L-AccX,L-AccY,L-AccZ,L-GyrX,L-GyrY,L-GyrZ,R-AccX,R-AccY,R-AccZ,R-GyrX,R-GyrY,R-GyrZ,timestamp
0.095,0.0775,-0.02625,0.0001825,-0.00032,-0.000305,-0.0175,-0.03125,0.12375,-0.00032,0.00045750002,-0.0001525,1742105888.470093
0.0925,0.08,-0.02125,-4.5e-05,-1.5e-05,-0.0007475,-0.02625,-0.09,0.11125,0.0614325,0.0026099999,0.017012501,1742105888.584512
0.095,0.0775,-0.02375,-0.0010075001,0.00079250004,-0.00079250004,-0.015,-0.09875,0.02,0.08258,-0.058335,0.0062100003,1742105888.697767
0.09375,0.07625,-0.025,-0.000535,0.000107500004,-0.000565,-0.02125,-0.11875,0.02125,0.0139,-0.0334025,-0.00087,1742105888.811869
0.08875,0.08875,-0.025,-0.000855,-0.0007325,0.0,-0.02375,-0.11375,0.04375,-0.00531,0.0042425,0.00377,1742105888.925737
0.09,0.08375,-0.02875,-0.000365,0.00087,-0.0004125,-0.02125,-0.1275,-0.045,0.0025175,0.0169825,0.002335,1742105889.0451179
0.0975,0.07625,-0.03,-0.0013425,9.25e-05,-0.0009,-0.01375,-0.12625,-0.04,-7.75e-05,-0.0084224995,0.0021975,1742105889.1539588
0.0875,0.08875,-0.0275,0.0030825,6e-05,0.0013875001,-0.03375,-0.12,0.0775,-0.0121925,-0.0007025,0.0009775,1742105889.2678452
0.0925,0.0775,-0.025,0.0010075001,-0.000305,0.001145,-0.0125,-0.12375,-0.01125,0.006775,0.0228125,0.0013575,1742105889.3848488
0.10125,0.06875,-0.02625,-0.00055,-0.000885,-0.0009,-0.00375,-0.12375,-0.025,-0.0031125,0.0044699996,0.00502,1742105889.495841
0.09375,0.075,-0.02625,-0.000107500004,-0.00058,0.000825,-0.00375,-0.12125,-0.00375,-0.00534,-0.0207975,0.0033425,1742105889.6099682
0.1075,0.065,-0.03,0.00033500002,0.0022574998,0.00023,-0.005,-0.125,0.0025,0.009430001,0.009140001,0.00035,1742105889.723845
0.09375,0.08125,-0.0275,0.000825,0.00029,0.00052,0.0,-0.12125,-0.02,0.00064,0.0077975,0.0016325001,1742105889.836542
0.09625,0.07875,-0.025,0.000945,0.0001525,0.00029,0.0075,-0.12375,-0.01625,-0.00508,-0.008850001,0.0043025,1742105889.949794
0.09,0.08625,-0.02,0.001785,0.0001225,0.0006725,0.00125,-0.115,0.0425,-0.0063325,0.0013725,0.002915,1742105890.0645928
0.09375,0.08,-0.0275,0.0010975,0.001115,0.00174,0.005,-0.1225,-0.00875,-0.001495,0.0178225,-0.0009625,1742105890.177739
0.09375,0.08125,-0.02375,9.25e-05,0.00055,-4.5e-05,0.01125,-0.1275,-0.0325,0.0001825,-0.00435,0.00151,1742105890.29167
0.09,0.09,-0.025,-0.000107500004,-0.0001225,-0.00026,-0.01125,-0.12125,0.04875,-0.0028675,-0.026092501,0.0046225,1742105890.405749
0.09,0.07875,-0.0175,0.00061,-6e-05,-0.0010975,0.01375,-0.12375,-0.01375,0.0013875001,0.018280001,-0.0005025,1742105890.524966
0.095,0.0775,-0.02625,-0.00064,-0.0009775,-0.00116,0.01,-0.1275,-0.035,-0.0032950002,-0.00508,-0.0001375,1742105890.633846
0.09625,0.075,-0.0225,-0.0004425,-0.0004425,-0.00052,0.0025,-0.1325,0.00875,-0.005065,-0.024445,0.002915,1742105890.747707
0.095,0.0725,-0.02,0.000625,-0.0015575,0.00026,0.0175,-0.12375,-0.015,0.0034175,0.0154875005,0.0006725,1742105890.865193
0.09625,0.07375,-0.025,-0.00059500005,-0.000365,-0.00033500002,0.015,-0.13,-0.02875,0.001235,-0.0025625,0.0004725,1742105890.975658
0.09625,0.07625,-0.02375,0.000625,0.0,0.0004125,0.015,-0.12125,-0.00125,-0.008529999,-0.0239725,0.0016025,1742105891.089718
0.1,0.0725,-0.02125,0.0019075,-0.000855,0.000825,0.01625,-0.12125,-0.005,0.0069875,0.01558,0.0002125,1742105891.2093859
0.095,0.07625,-0.02625,-0.000625,6e-05,9.25e-05,0.0175,-0.12375,-0.02625,0.0010675,0.008865,-0.00016750001,1742105891.318346
0.09625,0.07625,-0.02375,-0.0001225,-0.001175,0.0008075,0.01625,-0.12375,-0.01,-0.002335,-0.0239725,0.00093,1742105891.431775
0.0975,0.06625,-0.0225,-0.0009,0.0,-0.002365,0.015,-0.125,-0.01125,0.0065625,0.0114750005,-0.0013425,1742105891.5456681
0.09875,0.075,-0.0175,-0.000885,0.0034625002,0.0012825,0.015,-0.1175,-0.02125,0.0046375,0.0140525,-0.0016475001,1742105891.659688
0.09125,0.08125,-0.03125,0.0001225,-0.00148,0.00016750001,0.01375,-0.13,-0.02625,-0.00302,-0.0195625,0.0027925,1742105891.773789
0.09375,0.09,-0.02125,-0.0016625,-0.0014500001,-0.0018300001,0.0125,-0.12,0.0025,-0.002,0.010605,-0.00045750002,1742105891.887692
0.0925,0.085,-0.0225,-0.0006725,-0.0010675,0.002045,0.01625,-0.12,-0.01375,0.0040125,0.0119475005,0.0004725,1742105892.005234
0.09625,0.07625,-0.02125,-0.00048750002,-0.000535,-0.0001375,0.02,-0.12125,-0.02875,-0.0044250004,-0.0087425,0.0022125002,1742105892.115753
0.0875,0.0925,-0.02375,-0.00016750001,-0.00061,0.0013125,0.01375,-0.11625,0.01875,-0.0004725,0.0089275,-0.0006875,1742105892.229694
0.09375,0.08,-0.0225,-0.000655,0.00026,0.0018775001,0.0175,-0.1175,-0.01125,0.0039825,0.0119775,-7.75e-05,1742105892.3445718
0.09625,0.07625,-0.02125,-0.00023,-0.0003825,-0.000365,0.02,-0.12125,-0.0275,-0.0005025,0.0004725,0.00033500002,1742105892.4650729
0.09375,0.07875,-0.0225,0.00032,-9.25e-05,3e-05,0.02,-0.12125,-0.01375,-0.00557,-0.0163725,-0.0006875,1742105892.57182
0.1,0.0725,-0.02375,-0.00079250004,-0.0007625,0.0006875,0.02125,-0.12125,-0.01625,0.0034325,0.0031575,0.0006875,1742105892.688464
0.09375,0.08125,-0.025,-0.0001375,-0.0004275,-0.0001975,0.01625,-0.1225,-0.02,0.00328,0.011825,-0.000565,1742105892.8053591
0.095,0.07875,-0.0225,0.0002125,0.00033500002,0.0001825,0.0225,-0.12375,-0.03375,-0.01007,-0.010314999,0.0015725,1742105892.913768
0.095,0.08,-0.02125,0.00045750002,-3e-05,0.0002125,0.005,-0.1175,0.02625,-0.0051725,-0.016082501,-0.0011900001,1742105893.027643
0.0925,0.08,-0.02,0.000855,0.0002125,0.00061,0.02125,-0.11875,-0.00875,0.0056149997,0.0092475,0.000365,1742105893.146603
0.09625,0.07625,-0.02125,-4.5e-05,-0.00055,-0.0005025,0.02,-0.1275,-0.0275,0.0034025,0.0059825,0.00064,1742105893.255604
0.09375,0.08,-0.02375,0.0001225,0.00023,4.5e-05,0.02125,-0.11625,-0.005,-0.009292499,-0.01976,-0.0015575,1742105893.36976
0.10375,0.0675,-0.025,0.000275,0.0001975,0.0003825,0.0175,-0.12625,-0.015,0.0095675,0.00911,0.000535,1742105893.483853
0.095,0.08125,-0.025,4.5e-05,-0.000107500004,-0.00052,0.01875,-0.12625,-0.025,0.00113,0.008529999,-0.0020899998,1742105893.6048782
0.095,0.07875,-0.02375,-0.00084,-3e-05,-0.00045750002,0.01625,-0.125,-0.0125,-0.0101025,-0.01645,0.0015575,1742105893.711671
0.095,0.07,-0.02125,-0.0022274998,0.000107500004,-0.0034949998,0.02,-0.10875,0.0,-0.00798,0.008805,-0.002045,1742105893.8255842
0.0925,0.0825,-0.025,0.0005025,6e-05,-7.75e-05,0.01875,-0.1225,-0.005,-0.0007775,0.0095675,1.5e-05,1742105893.944072
0.0975,0.07375,-0.0225,-0.0004725,0.0006875,-0.00023,0.0175,-0.12625,-0.01125,0.0004725,-0.0083925,0.00154,1742105894.053605
0.09,0.08875,-0.025,-0.00032,-0.00079250004,0.000625,0.01625,-0.1125,0.02875,-0.001525,0.000855,0.0,1742105894.167403
0.09625,0.0775,-0.02375,0.0,0.0010375,0.0004725,0.015,-0.1225,-0.00625,0.00093,0.0165875,-0.003525,1742105894.28417
0.09875,0.07375,-0.02375,-0.0002125,-0.0002125,-0.0006875,0.01625,-0.12875,-0.025,0.000945,-0.0025325,0.0012825,1742105894.3955781
0.09625,0.07625,-0.02625,0.000275,-0.0001975,-0.0001375,0.01375,-0.1225,-0.00375,-0.0030975002,-0.022582501,0.0034175,1742105894.509668
0.095,0.075,-0.02125,0.0012825,0.00029,0.00087,0.02375,-0.12125,-0.01625,0.0061950004,0.008117501,-0.00302,1742105894.6248472
0.0975,0.07625,-0.025,-0.00023,-1.5e-05,-0.00091500004,0.015,-0.12875,-0.02625,0.0030975002,0.003525,-0.00033500002,1742105894.743737
0.09625,0.075,-0.02625,-1.5e-05,0.0001525,3e-05,0.01625,-0.12125,-0.01875,-0.0052024997,-0.0204325,0.0027474998,1742105894.851685
0.1,0.065,-0.025,-0.0003825,-0.0018775001,0.00052,0.02375,-0.12625,-0.0225,0.008865,0.0050975,-0.00113,1742105894.96561
0.09625,0.07875,-0.02625,-0.0004425,0.0004275,-0.00052,0.01625,-0.12375,-0.0175,0.003175,0.01004,-0.000365,1742105895.0833752
0.09875,0.0725,-0.0225,0.0004425,-6e-05,0.0004725,0.0175,-0.125,-0.0175,-0.00798,-0.018492501,0.00302,1742105895.1935968
0.1025,0.06125,-0.02375,-0.0010975,0.0003975,-0.0033575,0.0225,-0.12625,-0.01625,0.0099325,0.0044549997,-0.000565,1742105895.3076181
0.095,0.08125,-0.02375,0.00052,0.000945,0.0001975,0.02,-0.12125,-0.015,0.0027774998,0.0107425,-0.00055,1742105895.4241111
0.10125,0.07,-0.02,0.000245,-0.00016750001,-0.00029,0.02125,-0.12875,-0.02875,-0.0048825,-0.0131375,0.0012825,1742105895.535585
0.0975,0.08375,-0.02,0.000625,-0.0007025,0.00079250004,0.0175,-0.11,0.0225,-0.0051725,0.0048074997,0.0004275,1742105895.649367
0.0975,0.07625,-0.02125,-0.0007325,0.000107500004,0.00171,0.02375,-0.1175,-0.005,0.003555,0.01976,-0.00035,1742105895.763956
0.09875,0.0725,-0.02125,-0.00023,-0.000535,-0.0001975,0.02125,-0.12875,-0.03125,-0.00093,-0.0037525,-3e-05,1742105895.883232
0.0975,0.07625,-0.02375,1.5e-05,0.000107500004,-9.25e-05,0.02125,-0.115,0.0,-0.0078724995,-0.022049999,0.00059500005,1742105895.991492
0.10625,0.06875,-0.02,0.0013125,-0.0005025,0.00079250004,0.02,-0.1225,-0.00875,0.008895,0.020004999,-0.0039525,1742105896.1054878
0.09875,0.07375,-0.0225,0.0,-0.00026,-0.0003975,0.0175,-0.1275,-0.04125,0.0022725,0.0052175,-7.75e-05,1742105896.222799
0.0975,0.075,-0.02375,3e-05,9.25e-05,0.0004275,0.0175,-0.12125,0.00125,-0.0051125004,-0.024245001,0.002685,1742105896.3335
0.10125,0.06875,-0.02,-0.000535,-0.00032,-0.00177,0.0175,-0.115,0.0,0.0083325,0.0121775,-0.0027925,1742105896.447335
0.09875,0.075,-0.025,0.000365,0.00033500002,-0.0004425,0.01625,-0.12375,-0.02875,0.0057375003,0.01596,-0.0024725,1742105896.563349
0.09875,0.07375,-0.02125,0.0001525,6e-05,0.0,0.01625,-0.13,-0.03625,-0.0118725,-0.028717501,0.0063175,1742105896.675644
0.09375,0.08875,-0.02,0.0011900001,-9.25e-05,0.00023,-0.00375,-0.10875,0.0625,-0.009430001,-0.010055,0.0013275,1742105896.78955
0.09875,0.075,-0.0225,-0.00064,0.00052,0.0013575,0.02625,-0.12875,-0.01,0.0089425,0.0216675,0.003005,1742105896.9033852
0.1,0.0725,-0.02,-0.0001825,-0.00064,-0.00029,0.02875,-0.12375,-0.02125,-0.0013125,-0.0121625,0.0012825,1742105897.023916
0.09625,0.075,-0.02375,7.75e-05,4.5e-05,-6e-05,0.01625,-0.11125,0.02125,0.0001375,-0.014435001,0.0012975,1742105897.131379
0.0975,0.07125,-0.01625,0.0007025,0.0001375,0.0009775,0.0275,-0.125,-0.0075,0.01065,0.018004999,0.0003975,1742105897.245385
0.1,0.07375,-0.0225,0.0,-0.0006875,-0.000655,0.0275,-0.1225,-0.03,0.00502,0.0051275003,-0.000535,1742105897.363998
0.0975,0.075,-0.0225,1.5e-05,0.00048750002,0.00026,0.0225,-0.1225,-0.00625,-0.008575,-0.018692499,-0.00087,1742105897.4736772
0.105,0.06375,-0.02125,0.00023,0.000245,-0.0016325001,0.0225,-0.115,0.0,0.0066374997,0.0136425,-0.0013125,1742105897.587384
0.0975,0.075,-0.025,-0.0002125,-0.000245,-0.0007025,0.0275,-0.1175,-0.02625,4.5e-05,0.012085,-0.0022125002,1742105897.7016268
0.09875,0.07375,-0.02125,3e-05,0.000365,0.000245,0.02125,-0.12375,-0.0225,-0.0043800003,-0.0234825,0.0016475001,1742105897.815565
0.09625,0.08375,-0.01875,-0.0010225,-0.00055,-0.00093,0.0225,-0.10625,0.02,-0.0025775002,0.00801,1.5e-05,1742105897.929395
0.09625,0.0775,-0.02375,-0.0005025,-0.00026,0.0016775,0.0275,-0.11875,-0.01,0.002625,0.01686,-0.0018150001,1742105898.043592
0.1,0.0725,-0.01875,-0.00032,-0.0001225,-0.0003825,0.02625,-0.1275,-0.025,-0.002715,-0.0107425,0.0010225,1742105898.157583
0.09,0.09,-0.02375,0.0001375,-0.00059500005,0.00087,0.01625,-0.1125,0.03875,-0.0037375,-6e-05,-0.0011900001,1742105898.271517
0.1,0.07125,-0.02125,0.0003975,0.00023,0.0013275,0.025,-0.1175,-0.00125,0.00331,0.0151675,-0.0004125,1742105898.385389
0.1,0.07,-0.02125,-0.000245,-0.0004425,-0.000565,0.025,-0.12625,-0.025,0.0018150001,0.00079250004,6e-05,1742105898.504172
0.0975,0.075,-0.02375,3e-05,-3e-05,4.5e-05,0.02375,-0.1225,-0.005,-0.00612,-0.018524999,0.0012675,1742105898.6124532
0.10125,0.06875,-0.02,-9.25e-05,-0.00061,0.000855,0.025,-0.12375,-0.01,0.0081475,0.0103,-0.001115,1742105898.726372
0.09875,0.075,-0.02375,-0.0001975,-0.00058,-0.0004725,0.025,-0.12375,-0.02125,0.00177,0.0083325,-0.0018625,1742105898.844248
0.09875,0.07375,-0.0225,-4.5e-05,0.0003825,0.00026,0.02375,-0.12125,-0.00875,-0.0060575,-0.016205,0.0015875,1742105898.954514
0.1075,0.05875,-0.02375,-0.00059500005,4.5e-05,-0.00033500002,0.0225,-0.11875,-0.01125,0.005905,0.0073249997,-0.00045750002,1742105899.068428
0.0975,0.0775,-0.025,6e-05,0.0002125,-0.00035,0.02375,-0.12375,-0.01375,0.002915,0.00473,-0.00087,1742105899.187466
0.1,0.0725,-0.02,0.0001825,6e-05,0.00029,0.02375,-0.1225,-0.0075,-0.0049274997,-0.015655,0.0018,1742105899.296414
0.1,0.06625,-0.0225,-0.0010525,-0.0001225,-0.0025475,0.02375,-0.11875,-0.0075,-0.00035,0.00882,-0.0013125,1742105899.410483
0.095,0.0825,-0.02375,0.0001375,0.00091500004,0.00035,0.02375,-0.11875,-0.0125,0.00232,0.012025,-0.0031275,1742105899.5245051
0.10125,0.07125,-0.0175,0.0001825,6e-05,0.0001225,0.0225,-0.13,-0.0175,-0.004195,-0.017165001,0.0024425,1742105899.638508
0.095,0.08375,-0.0225,-0.001235,-0.000945,-0.0018925001,0.0225,-0.11625,-0.0,-0.002305,0.00908,-0.0004275,1742105899.752525
0.09375,0.0825,-0.0225,-0.000305,-0.0002125,0.0016175,0.0225,-0.11625,-0.005,-0.0007625,0.0083,-0.0010675,1742105899.866401
0.10125,0.07,-0.01875,-3e-05,-0.0001525,9.25e-05,0.0225,-0.125,-0.01125,-0.0026099999,-0.009505,0.0018475,1742105899.983656
0.09125,0.0875,-0.02375,-0.000275,-0.00087,0.0007325,0.02,-0.11375,0.025,-0.001175,0.0112,-0.0010675,1742105900.094296
0.0975,0.07625,-0.0225,-6e-05,-0.000107500004,0.0013275,0.025,-0.12,-0.0075,0.0010825,0.0112,-0.0013275,1742105900.2084239
0.1,0.0725,-0.02,-1.5e-05,-0.0001825,0.000107500004,0.02375,-0.12625,-0.015,-0.0036775,-0.006225,0.0005025,1742105900.3240619
0.0975,0.0775,-0.02125,9.25e-05,-0.0001375,0.0001975,0.00875,-0.125,0.01875,-0.00377,-0.01422,0.00174,1742105900.436312
0.09875,0.07125,-0.015,0.0013275,0.00113,0.00045750002,0.02625,-0.11625,-0.00125,0.0062875,0.016280001,-0.0016775,1742105900.550281
0.09875,0.07375,-0.02125,-3e-05,-0.0007025,-0.00058,0.025,-0.12875,-0.02875,0.000855,-0.0040275003,0.00061,1742105900.666518
0.09625,0.07625,-0.0225,-1.5e-05,0.00026,0.0001375,0.015,-0.12625,-0.0,-0.0036,-0.019485,0.002595,1742105900.78411
0.09625,0.07375,-0.015,0.0016925,0.000275,0.00059500005,0.02875,-0.12,-0.0075,0.0072325002,0.0101025,-0.0008075,1742105900.892329
0.09875,0.075,-0.02125,-0.000305,-0.000365,-0.0007175,0.02625,-0.12625,-0.025,0.0024425,-0.00035,6e-05,1742105901.006281
0.0975,0.075,-0.02125,9.25e-05,0.00035,0.0001375,0.01875,-0.12125,-0.01,-0.0072025,-0.01657,0.0010075001,1742105901.1247501
0.10125,0.0675,-0.02,-0.00033500002,-0.0010525,0.00113,0.0275,-0.12375,-0.01375,0.0071875,0.009385,0.0013425,1742105901.23421
0.0975,0.0775,-0.0225,-0.00029,-0.00052,-0.0007175,0.02625,-0.1225,-0.0275,0.00467,0.00673,0.0012050001,1742105901.348323
0.09875,0.07375,-0.02125,9.25e-05,0.00033500002,0.0003825,0.0275,-0.12375,-0.015,-0.0092175,-0.016479999,0.00151,1742105901.4639812
0.10625,0.0575,-0.02375,-0.0016625,-0.00016750001,-0.00328,0.03125,-0.11875,-0.015,0.0083325,0.0067600003,0.00084,1742105901.5761971
0.09625,0.08,-0.02375,-3e-05,0.00093,-0.0004725,0.0275,-0.12,-0.02125,0.00563,0.0110775,-4.5e-05,1742105901.690274
0.1,0.07125,-0.0175,0.000275,-6e-05,7.75e-05,0.02875,-0.125,-0.03,-0.002915,-0.010345,0.001495,1742105901.804302
0.09375,0.08375,-0.02125,-3e-05,-0.00058,0.000365,0.02625,-0.1175,0.0275,-0.0051275003,6e-05,0.001465,1742105901.923369
0.09625,0.07625,-0.0225,-3e-05,0.0005025,0.0003825,0.03125,-0.12,-0.0225,0.004685,0.0133825,0.0001375,1742105902.03231
0.1,0.07375,-0.01875,-0.0001225,7.75e-05,0.00016750001,0.03,-0.1225,-0.03125,-0.0040275003,-0.0064850003,0.0,1742105902.1463869
0.0975,0.0775,-0.0225,0.000245,-0.0004125,0.00045750002,0.015,-0.11625,0.0325,-0.0085,-0.01184,-0.00058,1742105902.264221
0.10125,0.07,-0.015,0.002595,0.0006725,0.00091500004,0.03375,-0.1175,-0.015,0.0039825,0.0110325,-0.0006875,1742105902.374325
0.09875,0.07375,-0.0225,6e-05,-0.0002125,-0.0007775,0.02875,-0.12375,-0.03,-0.0010225,0.0022425,3e-05,1742105902.4882739
0.0975,0.075,-0.0225,-0.0001525,0.00064,0.0001525,0.02375,-0.11625,-0.01,-0.0023800002,-0.0223075,0.00177,1742105902.6037881
0.10125,0.065,-0.02,0.0007025,0.000535,0.0007475,0.03375,-0.12375,-0.0175,0.0045925,0.0098125,-0.002305,1742105902.716218
0.09875,0.0775,-0.02125,-0.0002125,-0.000275,-0.0007625,0.02875,-0.125,-0.0275,0.00032,0.0036925,-0.0002125,1742105902.830227
0.0975,0.07375,-0.02375,-0.0001525,0.000365,0.000275,0.03375,-0.11375,-0.02375,-0.00673,-0.0180975,0.00151,1742105902.944437
0.11,0.0575,-0.02125,-0.001755,-0.000245,-0.00023,0.0325,-0.12375,-0.02625,0.0116425,0.0040125,-0.000107500004,1742105903.06377
0.09625,0.0825,-0.02375,0.0003825,0.0004125,0.000655,0.02375,-0.125,-0.02625,0.0066225,0.0115825,-0.00122,1742105903.172195
0.1,0.07125,-0.02,0.0002125,0.00032,0.00048750002,0.03125,-0.12125,-0.03375,-0.0072475,-0.014175001,0.0001225,1742105903.286392
0.09625,0.0775,-0.01625,0.00016750001,-0.0004125,-0.0046075,0.02125,-0.1125,-0.0075,0.0058899997,0.0071575,6e-05,1742105903.403636
0.09375,0.08375,-0.02125,0.0012825,-1.5e-05,0.0012825,0.02375,-0.1225,-0.02875,0.0037525,0.00908,-0.0003825,1742105903.514324
0.10125,0.07,-0.02,0.00033500002,-7.75e-05,0.000275,0.02625,-0.12375,-0.025,-0.010345,-0.0168925,0.0018625,1742105903.628294
0.10625,0.05875,-0.02375,-0.0007775,-0.000107500004,-0.0033725,0.02625,-0.12125,-0.0275,0.005935,0.005065,0.0001375,1742105903.743774
0.095,0.0825,-0.02,-0.00061,-1.5e-05,0.001435,0.0275,-0.12,-0.02875,0.002395,0.008195,-0.0007325,1742105903.85627
0.10125,0.07,-0.01875,0.00032,-0.0001825,0.00023,0.0275,-0.12375,-0.0325,-0.0037075,-0.01056,0.0018775001,1742105903.970324
0.09125,0.08875,-0.02125,-0.0005025,-0.000855,0.00079250004,0.025,-0.11375,0.015,-0.0037225,0.002365,-0.0008075,1742105904.084212
0.1,0.07125,-0.0175,0.00023,0.0010375,0.0016775,0.02875,-0.11125,-0.01375,0.0061950004,0.0146475,-4.5e-05,1742105904.1982138
0.1,0.07,-0.01875,-7.75e-05,-0.0004275,-0.0009775,0.02875,-0.12375,-0.03375,0.00055,-0.002135,-0.0001975,1742105904.312356
0.09625,0.07625,-0.02375,-0.0001225,6e-05,4.5e-05,0.025,-0.1175,-0.01375,-0.0074299998,-0.0216075,0.0007475,1742105904.4262679
0.09875,0.07125,-0.01625,0.0006725,-0.00079250004,0.0009775,0.0325,-0.12125,-0.015,0.0056149997,0.0122675,-0.00055,1742105904.543754
0.0975,0.0775,-0.0225,-0.000655,-0.0001975,-0.000855,0.02625,-0.12125,-0.03625,0.0006725,0.0090625,-0.002595,1742105904.6541498
0.09875,0.075,-0.02125,6e-05,0.000565,0.00032,0.0275,-0.11875,-0.02,-0.01236,-0.025055,0.0015875,1742105904.768298
0.10625,0.05375,-0.0225,-0.000825,0.00064,-0.0028375,0.02375,-0.11875,-0.015,0.0069875,0.0094,-0.0013275,1742105904.8840718
0.095,0.085,-0.0225,0.00079250004,0.001115,-0.000245,0.02125,-0.12375,-0.0275,0.00731,0.016967501,-0.0025625,1742105904.996223
0.10125,0.07125,-0.0175,0.000305,-4.5e-05,-4.5e-05,0.025,-0.12375,-0.03375,-0.0058449996,-0.0204625,0.0028375,1742105905.110301
0.0925,0.08625,-0.02,-0.00045750002,-0.0009925,-0.000365,0.02375,-0.11125,0.01125,-0.001115,0.007905,-0.00091500004,1742105905.224119
0.09625,0.07875,-0.02125,-0.00016750001,0.00045750002,0.0015575,0.0275,-0.11625,-0.01375,0.0027625,0.01538,-0.0006875,1742105905.343991
0.1,0.07125,-0.01875,1.5e-05,-0.000365,-0.000625,0.02625,-0.12625,-0.03,-0.0034325,-0.01355,0.0027625,1742105905.4521909
0.095,0.07875,-0.02375,0.00016750001,-0.000245,4.5e-05,0.0175,-0.11125,0.02875,-0.00302,0.0004275,0.0005025,1742105905.56602
0.1,0.07125,-0.02,0.001115,0.00116,0.000825,0.0275,-0.11875,-0.01625,0.00235,0.0125575,-0.00059500005,1742105905.680227
0.10125,0.07,-0.02,7.75e-05,-0.000365,-0.00055,0.03,-0.1225,-0.0275,-0.0012050001,-0.0047150003,0.0010675,1742105905.794395
0.0975,0.0775,-0.0225,-0.0001225,0.0001225,1.5e-05,0.01875,-0.11625,0.01625,-0.004685,-0.0110625,-3e-05,1742105905.9082081
0.1,0.07,-0.0175,0.001115,0.0010975,0.000855,0.03,-0.11875,-0.0125,0.0061025,0.012955,0.00142,1742105906.02389
0.1,0.0725,-0.0225,9.25e-05,-0.000365,-0.00055,0.03,-0.1225,-0.03125,0.0015875,-0.0019225,0.000107500004,1742105906.1351838
0.0975,0.075,-0.02375,3e-05,0.00035,0.000365,0.0275,-0.12,-0.01125,-0.00673,-0.0204175,0.0015725,1742105906.249213
0.09875,0.06875,-0.01875,0.00113,1.5e-05,0.0010375,0.03125,-0.1175,-0.01125,0.007065,0.0121625,-0.0009625,1742105906.363961
0.09875,0.07375,-0.02125,-0.00033500002,-0.0002125,-0.00093,0.03,-0.12625,-0.03375,0.0030825,0.0031575,-0.0011900001,1742105906.483358
0.0975,0.075,-0.02375,0.000107500004,0.00032,0.00032,0.02875,-0.1175,-0.01625,-0.01065,-0.018860001,-0.0007775,1742105906.591344
0.1075,0.06,-0.02125,-0.00064,0.00035,-0.000365,0.02875,-0.1225,-0.01875,0.0098275,0.0101175,-0.0003975,1742105906.707904
0.0975,0.0775,-0.02375,-0.000305,-0.00023,-0.00016750001,0.025,-0.11625,-0.025,6e-05,0.0107725,-0.0029449998,1742105906.824236
0.09875,0.07375,-0.02125,0.0001225,0.000365,0.0004425,0.0275,-0.12125,-0.02125,-0.0054175,-0.0140225,0.00079250004,1742105906.933247
0.0975,0.0825,-0.015,0.0009,-0.00087,0.0003825,0.0175,-0.11375,0.00875,-0.005355,0.0130775,-0.0016025,1742105907.047081
0.09375,0.08125,-0.0225,0.000305,-0.000625,0.00091500004,0.02125,-0.11875,-0.01,-0.0029449998,0.014695,-0.0016325001,1742105907.166788
0.1,0.07125,-0.01875,-0.0001225,-7.75e-05,3e-05,0.02375,-0.125,-0.01625,-0.00299,-0.0144650005,0.002105,1742105907.2751732
0.09625,0.07875,-0.02,-0.00116,-0.0008075,-0.0030675002,0.02375,-0.10875,0.00125,0.0031275,0.0089724995,0.0001525,1742105907.388875
0.095,0.0825,-0.02,0.000245,0.000275,0.0010675,0.0225,-0.11625,-0.01625,0.0038,0.0152275,-0.0019225,1742105907.503305
0.10125,0.07125,-0.01875,0.00029,-0.00035,-0.00045750002,0.02375,-0.12125,-0.0325,-0.0015725,-0.00859,0.00174,1742105907.616138
0.0975,0.07625,-0.0225,7.75e-05,-0.00032,-0.00035,0.01125,-0.11875,0.00875,-0.0072925,-0.0136725,0.0006725,1742105907.730031
0.09625,0.075,-0.0175,0.00113,0.0005025,0.00052,0.02625,-0.11875,-0.01,0.0036624998,0.0154275,0.0001375,1742105907.844074
0.1,0.0725,-0.01875,-9.25e-05,-0.00061,-0.0006875,0.02625,-0.125,-0.03375,-0.0025175,-0.00328,0.000365,1742105907.95714
0.0975,0.07625,-0.0225,-3e-05,-4.5e-05,0.0,0.0225,-0.1225,-0.005,-0.00821,-0.0204925,0.001405,1742105908.071187
0.10125,0.06875,-0.015,0.0010075001,-0.0012050001,0.000655,0.03,-0.12375,-0.01625,0.005005,0.008315,0.0007025,1742105908.187389
0.09875,0.07625,-0.0225,-0.00023,-0.00058,-0.0006875,0.02875,-0.1225,-0.0325,0.0004275,0.0027925,-0.0010525,1742105908.298213
0.0975,0.075,-0.02125,0.0001975,0.000625,0.0004275,0.025,-0.1225,-0.0025,-0.009125,-0.017930001,0.0012050001,1742105908.412114
0.105,0.06125,-0.02,0.00029,-1.5e-05,-0.0012825,0.0275,-0.1225,-0.01125,0.0101325,0.0119325,-0.0024725,1742105908.526017
0.0975,0.0775,-0.0225,-0.000107500004,-9.25e-05,-0.0001825,0.02875,-0.12,-0.0225,0.000945,0.006715,-0.00116,1742105908.6458728
0.09875,0.07375,-0.02,-6e-05,0.00058,0.0001225,0.0225,-0.12125,-0.01875,-0.0012975,-0.014557499,0.001145,1742105908.754107
0.09125,0.09,-0.02,0.000107500004,-0.0009625,0.000625,0.02,-0.10375,0.0275,0.001235,0.01329,-9.25e-05,1742105908.867893
0.095,0.08125,-0.02375,-0.0001225,0.0010525,0.002045,0.0275,-0.1225,-0.0075,0.00554,0.013625,7.75e-05,1742105908.98325
0.1,0.07125,-0.0175,-0.00023,0.0,-0.00035,0.02625,-0.1225,-0.025,0.0019225,0.00048750002,-0.00055,1742105909.096027
0.0975,0.07625,-0.02375,0.0,0.000275,6e-05,0.01625,-0.1225,0.01125,-0.0027625,-0.012725,0.0009,1742105909.210025
0.09625,0.07375,-0.02,0.000825,0.000625,0.0009925,0.02625,-0.12125,-0.01375,0.0013725,0.0107725,-0.0010375,1742105909.324021
0.10125,0.07125,-0.02,-0.00023,-0.000305,-0.000535,0.02625,-0.12,-0.01625,-0.0007475,-0.0004125,-0.000275,1742105909.44392
0.0975,0.075,-0.02125,3e-05,0.0,-4.5e-05,0.025,-0.1225,-0.0175,-0.00612,-0.01323,-0.000107500004,1742105909.552211
0.10625,0.06125,-0.02375,-0.0003975,0.0004425,-0.0004125,0.0225,-0.125,-0.02,0.0066675,0.0072175004,-0.00125,1742105909.666406
0.0975,0.07875,-0.02375,0.0,-0.0001525,0.0,0.02625,-0.12,-0.025,0.0001525,0.00319,-0.0007325,1742105909.784068
0.09875,0.075,-0.02,-7.75e-05,0.00052,0.0003975,0.0225,-0.1225,-0.01375,-0.003005,-0.013274999,0.00116,1742105909.894134
0.10625,0.06,-0.0225,-0.0007775,-0.000275,-0.0010525,0.025,-0.1225,-0.02,0.0033425,0.003005,-6e-05,1742105910.007945
0.095,0.08125,-0.02625,0.00016750001,0.0010525,1.5e-05,0.0225,-0.12375,-0.01375,0.00235,0.00679,-0.0004275,1742105910.124369
0.10125,0.07125,-0.0175,0.000245,0.000107500004,0.00023,0.025,-0.1225,-0.01625,-0.002135,-0.0083775,0.0016325001,1742105910.236094
0.09375,0.07875,-0.0225,-0.0004125,-0.0006875,-9.25e-05,0.02375,-0.11125,0.01625,-0.0049274997,0.0034625002,9.25e-05,1742105910.3499131
0.09875,0.07625,-0.01875,-0.0001975,0.0006725,0.0009,0.03,-0.11625,-0.00875,0.0034475,0.0060575,0.0009925,1742105910.464118
0.09875,0.0725,-0.02,-0.0001225,-0.0003825,-0.0005025,0.0275,-0.13125,-0.02375,-0.0077525,-0.009505,0.002,1742105910.583528
0.09125,0.08875,-0.02125,-6e-05,0.0003975,-0.0001975,0.015,-0.115,0.04375,-0.0036775,-0.00087,-9.25e-05,1742105910.69203
0.1025,0.0675,-0.01875,0.0024875,0.000305,0.0010225,0.02875,-0.11375,0.00375,0.00557,0.005875,0.00032,1742105910.8057768
0.09875,0.0725,-0.0225,-0.00033500002,-0.00026,-0.0010225,0.02875,-0.125,-0.015,-0.000245,-0.0010675,0.0001975,1742105910.923945
0.0975,0.07625,-0.02375,0.0,0.000365,0.00033500002,0.0175,-0.12125,0.01625,-0.00789,-0.018265,0.0007625,1742105911.033896
0.09875,0.06875,-0.0225,0.0006875,-0.0001825,-6e-05,0.0325,-0.1225,0.0,0.0055549997,0.005065,-0.0003825,1742105911.147748
0.0975,0.07375,-0.02625,-0.000275,0.00058,-0.0009925,0.025,-0.12625,-0.00125,0.003555,0.0112924995,-0.0018300001,1742105911.2642062
0.09875,0.07375,-0.02,0.0001225,0.000275,0.00032,0.0275,-0.1175,-0.0,-0.0057525,-0.0151375,0.0020150002,1742105911.3760488
0.105,0.05625,-0.025,-0.0007175,0.00023,-0.00177,0.03125,-0.125,-0.01125,0.0101475,0.006515,-0.001145,1742105911.489892
0.09625,0.07875,-0.02625,0.00033500002,0.0010975,-9.25e-05,0.025,-0.1225,-0.00625,1.5e-05,0.008850001,-0.001145,1742105911.604091
0.10125,0.07,-0.02,0.000107500004,0.00048750002,0.00059500005,0.02625,-0.12125,-0.0025,-0.0063775,-0.0163425,0.00084,1742105911.723093
0.10375,0.0625,-0.025,-0.0015725,-0.000365,-0.0027325,0.03,-0.12,-0.01,0.010832501,0.0079499995,-0.0019225,1742105911.832038
0.09625,0.08,-0.025,0.000305,0.0007475,0.000305,0.0275,-0.12125,-0.01875,0.00409,0.008239999,0.0014500001,1742105911.945913
0.1,0.07125,-0.02125,0.00016750001,0.0002125,0.00029,0.0275,-0.1175,-0.01125,-0.0048525,-0.01085,0.00079250004,1742105912.063628
0.09625,0.08125,-0.02125,-0.000107500004,-0.00023,0.00026,0.02875,-0.11125,0.00625,0.00116,0.0089875,0.0001975,1742105912.1736739
0.09375,0.08125,-0.02375,0.000107500004,4.5e-05,0.0004425,0.03,-0.11875,-0.0225,0.0025025,0.0077825,0.00058,1742105912.2869399
0.10125,0.07125,-0.02,0.0001225,0.000107500004,0.0001375,0.02875,-0.12,-0.0175,-0.001435,-0.00908,0.0009775,1742105912.403156
0.095,0.07875,-0.02375,0.0002125,-0.00055,0.0002125,0.025,-0.115,0.03,-0.003555,0.0024100002,0.00032,1742105912.5147939
0.09875,0.07375,-0.02125,-0.000245,0.00064,0.0013425,0.03125,-0.1175,-0.01,0.0001375,0.0089875,-0.0021525,1742105912.628908
0.1,0.07125,-0.02,0.0,-0.0004275,-0.00033500002,0.03125,-0.12375,-0.02125,0.0016925,0.0004425,-0.0001375,1742105912.7440279
0.0975,0.075,-0.02375,-1.5e-05,-0.00016750001,-0.00023,0.025,-0.125,-0.0075,-0.0010375,-0.0110325,0.0021525,1742105912.85692
0.105,0.0625,-0.0225,-0.00045750002,0.0,-0.0019675,0.02875,-0.11625,-0.01375,0.0048525,0.0083775,-0.0016025,1742105912.970807
0.0975,0.07625,-0.02375,0.0,-0.000305,-0.0004125,0.0275,-0.12375,-0.02875,0.0047,0.0059499997,0.00058,1742105913.084654
0.09875,0.07375,-0.02375,0.0,0.00052,0.000275,0.03,-0.11875,-0.02375,-0.0054625003,-0.013215,-0.0007175,1742105913.1980212
0.1025,0.0675,-0.02,-0.0001525,-0.0003975,-0.0020599999,0.025,-0.12125,-0.0175,0.00554,0.008285,3e-05,1742105913.312052
0.09625,0.07875,-0.025,0.000245,6e-05,-0.0003975,0.02875,-0.12,-0.02875,0.004975,0.0057675,-0.00059500005,1742105913.425814
0.09875,0.07375,-0.02125,3e-05,0.00045750002,0.00016750001,0.0275,-0.12,-0.01875,-0.0067600003,-0.01294,-0.00023,1742105913.5437598
0.0975,0.08,-0.02,-0.000535,-0.00035,-0.0027474998,0.02875,-0.1175,-0.01125,0.00177,0.0087425,0.00032,1742105913.653666
0.09125,0.085,-0.025,0.0,0.00064,0.000305,0.025,-0.11,-0.01625,0.00058,0.016692499,-0.0056775,1742105913.767817
0.10125,0.07125,-0.02,-3e-05,0.000365,4.5e-05,0.02375,-0.13125,-0.03375,-0.00055,-0.0099949995,0.00125,1742105913.884023
0.0975,0.075,-0.025,-6e-05,-0.0003975,-0.0004425,0.01,-0.1175,0.0075,-0.0069875,-0.016112499,0.0001975,1742105913.9958332
0.09625,0.07125,-0.0225,0.001495,0.0013425,0.00055,0.02375,-0.11875,-0.0175,0.001785,0.014297499,-0.00045750002,1742105914.109819
0.10125,0.07,-0.02,0.0,-0.0005025,-0.000945,0.025,-0.1225,-0.025,-0.0028675,-0.0053875,0.00029,1742105914.224097
0.0975,0.075,-0.02625,-0.000107500004,-9.25e-05,3e-05,0.015,-0.12375,-0.005,-0.002335,-0.0174725,0.0006725,1742105914.343852
0.095,0.075,-0.02125,-0.00032,-7.75e-05,0.0015575,0.0225,-0.12125,-0.0125,0.0016475001,0.013335,0.000625,1742105914.451746
0.1,0.0725,-0.02125,-6e-05,-0.000275,-0.0001975,0.02625,-0.12375,-0.02875,-0.0007775,-0.002595,0.000245,1742105914.5658848
0.0975,0.075,-0.025,1.5e-05,-0.000107500004,1.5e-05,0.02875,-0.12,-0.01625,-0.009185,-0.0169525,-0.00116,1742105914.680038
0.1075,0.05625,-0.0225,0.00045750002,0.00091500004,-0.0019675,0.025,-0.12625,-0.01375,0.008909999,0.0125124995,9.25e-05,1742105914.7937238
0.09625,0.07875,-0.025,0.00016750001,-0.0004275,-0.0005025,0.02875,-0.12,-0.0275,0.00087,0.0013875001,0.00033500002,1742105914.907616
0.0975,0.075,-0.02375,-0.00026,0.0006725,0.00035,0.02375,-0.1225,-0.01,-0.008239999,-0.012345,-0.0013275,1742105915.023896
0.1,0.06875,-0.02125,-0.0003825,-0.00016750001,-0.0036,0.02375,-0.12625,-0.02375,0.008485,0.0086375,-0.00055,1742105915.1358001
0.095,0.08125,-0.02625,0.00035,0.000245,-6e-05,0.02625,-0.1225,-0.025,0.005065,0.00798,0.0001825,1742105915.249613
0.09875,0.07375,-0.02125,-1.5e-05,0.0006725,0.0004725,0.025,-0.1225,-0.01875,-0.0059499997,-0.0119025,0.00035,1742105915.364139
0.0925,0.08875,-0.0225,-0.0001225,-0.00116,0.000825,0.02625,-0.11125,0.01,-0.003815,0.013152501,-0.00142,1742105915.477491
0.09375,0.0825,-0.025,-0.0001825,0.000275,0.00177,0.01875,-0.11875,-0.02125,0.0003825,0.0125575,-0.0012675,1742105915.590801
0.10125,0.07,-0.02,0.0,-3e-05,0.00016750001,0.02375,-0.11875,-0.02,-0.0019525,-0.00557,0.0005025,1742105915.7078872
0.09875,0.07375,-0.02125,4.5e-05,-0.000565,-0.0003975,0.0025,-0.12125,0.02875,-0.0020599999,-0.020875,0.0014500001,1742105915.823912
0.095,0.0725,-0.01875,0.0021525,0.00093,0.0007625,0.02625,-0.11625,-0.01125,0.0049274997,0.011779999,-0.000625,1742105915.932737
0.1,0.07375,-0.0225,-0.0001225,-0.000365,-0.0009925,0.02625,-0.12375,-0.02625,-0.000625,-0.00299,0.0007625,1742105916.0470662
0.09625,0.07625,-0.025,-3e-05,0.000365,-4.5e-05,0.01,-0.1225,-0.0025,-0.00296,-0.0163425,0.00035,1742105916.1665568
0.1,0.07,-0.02,0.0007175,-0.000855,0.00091500004,0.03,-0.12,-0.00875,0.0067600003,0.0132,-0.0006875,1742105916.2748742
0.0975,0.075,-0.02375,-0.0007325,-0.000275,-0.0010675,0.02625,-0.1225,-0.02375,-0.000625,-0.000245,7.75e-05,1742105916.388831
0.0975,0.075,-0.025,-0.0001375,0.0007025,7.75e-05,0.03,-0.1175,-0.02125,-0.0077525,-0.018295,0.0002125,1742105916.50385
0.11125,0.0475,-0.02625,-0.0004425,0.00035,-0.0007175,0.02875,-0.12125,-0.02125,0.0048674997,0.00644,0.0002125,1742105916.616674
0.09625,0.07875,-0.02875,-0.00061,0.00093,-0.00029,0.025,-0.12125,-0.02125,0.0015875,0.0037075,-0.00058,1742105916.730767
0.09875,0.07375,-0.02375,-0.00029,0.00087,0.000365,0.025,-0.11875,-0.01375,-0.0092325,-0.0119025,-0.0009775,1742105916.844898
0.1025,0.05875,-0.025,-0.0010075001,-0.0004275,-0.004485,0.02375,-0.1275,-0.0225,0.0069125,0.00801,-0.0001225,1742105916.963866
0.09375,0.0825,-0.0275,0.0007475,0.00079250004,-0.000275,0.02125,-0.1225,-0.0175,0.0010075001,0.0075075002,-0.0007625,1742105917.072709
0.10125,0.06875,-0.0225,4.5e-05,0.00035,0.000245,0.02375,-0.12125,-0.02125,-0.002305,-0.002,-0.00033500002,1742105917.187073
0.1,0.07125,-0.02375,3e-05,-0.0005025,-7.75e-05,0.01,-0.12375,0.0025,-0.0048825,-0.025757499,-1.5e-05,1742105917.3039098
0.1025,0.0625,-0.0225,0.000107500004,-0.000565,0.0021825,0.0225,-0.12,-0.01,0.0071575,0.0146175,0.001175,1742105917.414691
0.10125,0.07125,-0.02375,-0.00029,-0.0005025,-0.00055,0.02625,-0.12,-0.02625,-0.00116,0.0012675,0.0001525,1742105917.528737
0.09625,0.07375,-0.0275,-9.25e-05,0.0002125,0.00026,0.02875,-0.115,-0.02125,-0.0047600004,-0.02176,0.0001525,1742105917.645591
0.11125,0.05625,-0.025,-0.0004125,0.000855,-0.000535,0.02375,-0.12125,-0.0125,0.00737,0.01384,-0.0018625,1742105917.762869
0.0975,0.07625,-0.0275,-0.00091500004,-9.25e-05,-0.00032,0.0225,-0.125,-0.0275,0.0024100002,0.0055549997,-0.00026,1742105917.8707452
0.0975,0.07375,-0.02625,-0.000535,0.00093,0.00059500005,0.01875,-0.1225,-0.02,-0.00116,-0.00435,-0.000245,1742105917.984808
0.1,0.0725,-0.025,-4.5e-05,0.0001525,0.0003825,0.00125,-0.1375,0.00125,-0.0034325,-0.0192425,0.00116,1742105918.103819
0.0975,0.06625,-0.01875,0.00061,0.0012975,0.001115,0.00875,-0.14375,0.015,-0.03444,0.049195,-0.012345,1742105918.212673
0.09875,0.0725,-0.03125,-0.0013875001,-0.0002125,-0.00061,0.02375,-0.08375,0.03125,-0.11340249,0.04718,-0.0225675,1742105918.3266702
0.09875,0.07125,-0.02875,-0.001725,-0.0005025,-0.0001525,-0.01,-0.0725,0.09125,-0.035065,-0.012725,-0.0188,1742105918.4436579
0.09875,0.0725,-0.0275,0.0001225,-0.0006725,0.000275,-0.0275,-0.04,0.12375,-0.00685,-0.0021825,-0.005875,1742105918.5548532
0.09625,0.07375,-0.03,0.0003825,0.0007325,4.5e-05,-0.025,-0.03375,0.125,-0.0019824998,-0.0025325,-0.00357,1742105918.66883
0.0975,0.0725,-0.03,0.000305,0.00058,0.0004275,-0.025,-0.025,0.12875,0.00029,0.0008075,-0.0016025,1742105918.783796
