L-AccX,L-AccY,L-AccZ,L-GyrX,L-GyrY,L-GyrZ,R-AccX,R-AccY,R-AccZ,R-GyrX,R-GyrY,R-GyrZ,timestamp
0.0575,-0.0275,0.12875,-0.0012675,-0.0019675,-0.0010225,-0.00625,-0.02125,0.13625,-0.007005,-0.0004125,-0.000275,1742102408.4414442
0.03125,-0.02375,0.12875,0.0107875,0.023192499,0.047912497,-0.05,0.02125,0.18375,0.016205,0.0228425,-0.0163725,1742102408.554743
-0.0625,0.23375,0.11,0.01857,0.019135,0.022459999,0.01,-0.125,0.04125,-0.0093225,0.0582275,-0.0426475,1742102408.6677802
0.06625,-0.25125,0.16,-0.0511775,-0.0183725,-0.076995,0.03,0.0175,0.09875,0.043564998,-0.01561,0.0744925,1742102408.782036
-0.1075,0.285,0.0625,0.045792498,-0.001235,0.0646675,0.0225,-0.0525,0.055,-0.0254675,0.0476675,-0.0750575,1742102408.901671
0.0375,-0.14375,0.13375,-0.05304,-0.024705,-0.090072505,0.02125,-0.07625,0.065,0.060105,-0.0278325,0.078445,1742102409.010011
-0.0275,0.18625,0.03,0.029692499,0.0152275,0.0800625,0.0275,-0.04625,0.06875,-0.028335,0.05043,-0.0637675,1742102409.1258838
0.00125,-0.07125,0.11625,-0.0745075,-0.0262,-0.10133249,0.02875,-0.12875,-0.0,0.0673825,-0.029725,0.0744925,1742102409.2424479
0.04375,0.0475,0.03875,0.038117502,0.022370001,0.08641,0.035,0.0725,0.1525,-0.0239875,0.045165002,-0.0655375,1742102409.350667
-0.05375,0.06625,0.07,-0.072372496,-0.01654,-0.0992425,0.03,-0.21,-0.045,0.057997502,-0.020979999,0.062072497,1742102409.4640589
0.06,-0.08,0.08125,0.0336,0.042755,0.097334996,0.04125,0.2275,0.29625,0.0004425,0.0352775,-0.0475475,1742102409.584325
-0.06625,0.215,0.0575,-0.085357495,-0.011245,-0.073655,0.02875,-0.3375,-0.0575,-0.0148925,0.0109875,0.015595,1742102409.69204
0.15,-0.25625,0.1375,0.012665,0.03891,0.06884751,0.0375,0.37875,0.385,0.009292499,-0.011275,-0.0057375003,1742102409.8057148
-0.12875,0.32875,0.17875,0.024780001,0.0149225,-0.0086975,-0.015,-0.40875,0.0,-0.050474998,0.03418,-0.0514225,1742102409.9225442
0.29125,-0.5,0.24875,0.000885,0.0099325,0.009872501,-0.00375,0.24875,0.29625,0.015595,-0.049835,0.0800775,1742102410.0337548
-0.18875,0.4025,0.145,0.067825,0.0114125,0.05252,0.01875,-0.2,0.02875,-0.038055,0.02797,-0.076705,1742102410.1476989
0.1425,-0.39625,0.2025,-0.0117175,-0.0251925,-0.097260006,0.0225,-0.02125,0.11,0.05429,-0.053025,0.09137,1742102410.2629492
-0.0525,0.19625,0.0775,0.02745,0.0041799997,0.0762625,0.04,-0.0625,0.0525,-0.033097498,0.03804,-0.0714425,1742102410.3839989
-0.02625,-0.065,0.11875,-0.0473325,-0.0410775,-0.1160425,0.0325,-0.1325,-0.01,0.058975,-0.044525,0.07338,1742102410.490283
0.07125,0.03,0.04625,0.0322425,0.0207225,0.08397,0.04,0.025,0.10375,-0.0267175,0.046860002,-0.0623325,1742102410.606816
-0.0625,0.125,0.0625,-0.080445,-0.0419,-0.0998525,0.03,-0.2225,-0.06875,0.0523975,-0.0289,0.058135,1742102410.7240808
0.08875,-0.015,0.04875,0.048049998,0.0296475,0.07872,0.075,0.2075,0.275,-0.004485,0.035354998,-0.04564,1742102410.831858
-0.0675,0.16625,0.0475,-0.088287495,-0.0366675,-0.10591,0.03625,-0.34375,-0.08625,-0.0028074998,0.0047750003,0.017625,1742102410.945965
0.06625,-0.09875,0.085,0.034775,0.029465001,0.081405,0.05875,0.355,0.38,0.010635001,0.0098425,-0.0166625,1742102411.065612
-0.04125,0.2775,0.0275,-0.08992,-0.022582501,-0.059860002,0.005,-0.415,-0.06375,-0.024995001,0.030639999,-0.0434125,1742102411.173991
0.13,-0.2075,0.14125,0.0020599999,0.0193475,0.05922,-0.00125,0.33,0.36625,-0.016175,-0.02501,0.0245825,1742102411.2877288
-0.08375,0.34375,0.07625,-0.030182501,-0.0007025,-0.022459999,0.00875,-0.2675,-0.03,-0.02864,0.030777501,-0.0647125,1742102411.405344
0.29125,-0.49875,0.24625,-0.016280001,-0.01915,0.012390001,-0.01375,0.1175,0.29375,0.0308375,-0.06546,0.07785,1742102411.524905
-0.15125,0.405,0.1225,0.061325002,0.0281075,0.048005,0.02125,-0.15125,0.005,-0.030594999,0.04544,-0.070785,1742102411.629806
0.09625,-0.42125,0.24375,0.010832501,-0.03807,-0.084212504,0.055,-0.04875,0.06625,0.068755,-0.0750875,0.0846875,1742102411.746523
-0.10375,0.2725,0.0775,0.043625,0.0122225,0.090165004,0.02125,-0.045,0.07375,-0.022675,0.04947,-0.0733025,1742102411.865483
0.0325,-0.0725,0.1325,-0.06488,-0.05687,-0.11563,0.02625,-0.145,-0.05875,0.036392502,-0.051650003,0.058015,1742102411.971935
0.0325,0.0525,0.05625,0.017655,0.034302503,0.090165004,-0.0075,0.015,0.22125,0.015625,0.0448,-0.03978,1742102412.088248
-0.01,0.11875,0.0525,-0.0609425,-0.0549925,-0.09729,0.05,-0.2575,-0.09,0.02774,-0.0048074997,0.0379175,1742102412.206817
0.06,-0.19875,0.18625,0.012695,0.0658425,0.070205,-0.05875,0.22625,0.315,0.007005,-0.07187,0.030594999,1742102412.313667
0.0075,0.205,0.065,-0.03418,-0.0015875,-0.025360001,0.01375,-0.2725,-0.02375,-0.0762025,0.0774375,-0.079545,1742102412.426959
0.1525,-0.3775,0.19875,0.003525,0.0065300004,0.027479999,0.01,0.02625,0.15,-0.0101925,-0.1142125,0.0986475,1742102412.546494
-0.0625,0.2875,0.1425,0.0508575,0.0298,0.0579375,0.02625,-0.155,0.0575,-0.053404998,0.0863025,-0.0745075,1742102412.6662269
0.2,-0.4075,0.18375,0.013245,-0.023865,-0.071045,0.07,-0.045,0.0525,0.04123,-0.059905,0.0726025,1742102412.7678359
-0.0425,0.20875,0.1075,0.060744997,0.011535,0.076415,0.02875,-0.0425,0.10875,-0.0348975,0.0647425,-0.0611725,1742102412.88729
-0.005,-0.005,0.09875,-0.04631,-0.04155,-0.1107475,0.03125,-0.13625,-0.04125,0.0487975,-0.044815,0.061417498,1742102413.0065548
0.04375,0.02375,0.065,0.038680002,0.02324,0.100585,-0.0075,0.045,0.2325,-0.01918,0.0773625,-0.049865,1742102413.1097531
-0.02,0.04,0.10625,-0.0314025,-0.0152425,-0.08432,0.02625,-0.25375,-0.08,0.0345,-0.02797,0.047837503,1742102413.2273622
0.0625,-0.05625,0.09375,-0.00122,0.0059499997,0.0718075,0.04125,0.24,0.275,-0.019195,0.0086675,-0.034560002,1742102413.3476748
-0.06,0.13125,0.1225,-0.021302499,0.0003975,-0.07483,0.045,-0.27625,-0.0825,-0.00685,-0.0148625,0.0266125,1742102413.451852
0.10375,-0.18875,0.1225,-0.018645,-0.0051875,0.0529475,0.025,0.21,0.29625,-0.011565,-0.022125,-0.0043175,1742102413.568827
-0.09,0.2175,0.15375,-0.033065,0.00033500002,-0.061462503,0.03125,-0.28375,-0.0575,-0.03334,0.0025775002,0.01451,1742102413.68785
0.14375,-0.395,0.1625,0.044189997,-0.0452725,0.0028074998,-0.0025,0.16625,0.34625,-0.022705,-0.03569,0.017944999,1742102413.793718
-0.12125,0.18375,0.22125,0.04251,0.0098125,0.0292825,0.06,-0.27125,-0.02625,-0.0808725,0.0193625,-0.0396725,1742102413.9081988
0.06375,-0.25625,0.13875,0.0110174995,-0.0593425,-0.04193,0.00375,0.09375,0.28625,0.0440225,-0.057815,0.04622,1742102414.028049
-0.09375,0.20875,0.18375,0.025954999,0.0279225,0.0317225,0.0375,-0.2175,0.01,-0.07225,0.04953,-0.058930002,1742102414.147604
0.08375,-0.25375,0.13,0.000305,-0.0417775,-0.0304875,0.04,0.0575,0.14,0.09932,-0.0774225,0.071915,1742102414.249953
-0.11875,0.21625,0.18875,0.029845,0.023515,0.0728,0.0025,-0.08875,0.0875,-0.0293575,0.08635,-0.076585,1742102414.368358
0.07125,-0.17125,0.07375,-0.03598,-0.043855,-0.072569996,0.045,-0.01375,0.0575,0.08026,-0.0311575,0.0718375,1742102414.488547
-0.085,0.0825,0.1425,0.0146175,0.03128,0.085769996,-0.00375,0.12125,0.17875,-0.0056775,0.0853725,-0.06781,1742102414.591771
0.0425,-0.05875,0.05625,-0.0714425,-0.0077049998,-0.108292505,0.06,-0.16375,0.01375,0.037552502,-0.016875,0.051880002,1742102414.7093
0.01375,-0.05125,0.1025,-0.0016775,0.0152275,0.0830225,-0.0275,0.18125,0.25375,-0.0429525,0.00299,-0.0181125,1742102414.828959
-0.02125,0.07625,0.10875,-0.03836,0.018645,-0.07849,0.05,-0.20875,0.00125,-0.043915,0.0067600003,0.0090625,1742102414.933954
0.0875,-0.2975,0.15,0.025895001,0.0122375,0.06453,-0.06875,0.11,0.275,-0.0093525,-0.0785075,0.0199125,1742102415.051754
-0.1175,0.15125,0.17375,0.050765,-0.035095003,0.0565175,0.02625,-0.2275,0.08625,-0.0738675,0.0481425,-0.0582275,1742102415.169448
0.04625,-0.11875,0.08875,-0.075072505,-0.014115,-0.0818175,0.0275,0.04125,0.1325,0.0499425,-0.1113125,0.07109,1742102415.289939
-0.0125,0.16,0.1225,0.031615,0.0296325,0.072555,0.0125,-0.18875,0.08875,-0.0431225,0.072525,-0.0794375,1742102415.390115
0.075,-0.23875,0.115,-0.056945,-0.040345002,-0.074967496,0.065,-0.005,0.04,0.0886525,-0.031462498,0.06984,1742102415.50988
-0.04875,0.13125,0.1275,0.044097498,0.01645,0.0977325,-0.0075,0.0475,0.15125,-0.0099325,0.0477,-0.0591725,1742102415.633583
0.03375,-0.19875,0.07625,-0.07756,-0.0059975,-0.104004994,0.06875,-0.1275,0.0275,0.0467825,-0.0066374997,0.0517575,1742102415.732105
-0.025,0.04375,0.10125,0.0181125,0.0057075,0.1109,0.015,0.155,0.16,0.00583,-0.084655,-0.037169997,1742102415.8509781
-0.02,-0.015,0.07625,-0.0507975,0.056442503,-0.11261,-0.02625,-0.175,0.115,-0.032485,0.0680225,-0.040925,1742102415.970874
0.07,-0.19625,0.12125,0.0133525,0.0115975,0.068862505,-0.055,0.03875,0.2025,0.0154725,-0.08783,0.0573425,1742102416.073581
-0.14,0.16125,0.23875,0.012802499,0.0095225,-0.0044250004,0.025,-0.2475,0.06375,-0.0800625,0.0771625,-0.0773325,1742102416.1894789
-0.04125,-0.27625,0.21125,0.0233925,-0.056654997,-0.041275002,0.00875,0.0325,0.1025,0.0950325,-0.0452725,0.083725,1742102416.309945
-0.08,0.18625,0.1275,0.066010006,0.006165,0.12085,-0.0225,-0.135,0.11375,-0.0375825,0.07045,-0.073425,1742102416.430363
0.01,-0.1475,0.07625,-0.076675005,0.00882,-0.112762496,0.04875,-0.07,0.0225,0.0739125,-0.0202175,0.077622496,1742102416.5309498
0.03,0.0325,0.09375,0.0131075,0.0434725,0.0832225,-0.04875,-0.01,0.17625,-0.011825,0.06482,-0.061615,1742102416.649246
-0.03125,0.02,0.115,-0.049865,0.0193475,-0.08902,0.0475,-0.12375,0.0175,0.0547475,-0.0196375,0.06282,1742102416.7724001
0.06375,-0.02125,0.09,0.0111075,0.0083,0.0626375,-0.005,0.04875,0.175,-0.0083625,0.0390625,-0.0410925,1742102416.8712761
-0.0375,-0.0625,0.1575,-0.04889,0.0081625,-0.0793,0.0425,-0.1175,0.025,0.0345775,-0.016479999,0.0526875,1742102416.991748
-0.03,0.13375,0.11875,0.0195,0.015105,0.064652495,0.00875,0.145,0.2225,-0.016602501,0.03598,-0.041442502,1742102417.098607
0.03,-0.16375,0.08875,-0.038147498,-0.0242625,-0.072004996,0.02375,-0.095,0.0325,0.021270001,-0.0210125,0.05066,1742102417.2127721
-0.09125,0.21125,0.12,-0.0133825,0.053315,0.0598,0.0025,0.0975,0.16625,-0.005235,0.05429,-0.0568075,1742102417.333193
0.07625,-0.35625,0.1825,0.048584998,-0.056365002,-0.032135,0.00625,0.0225,0.1375,0.0528575,-0.0340725,0.06604,1742102417.451484
-0.0825,0.34625,0.07375,0.0066975,0.024765,0.010955,0.03375,-0.24125,-0.02125,-0.0423425,0.032057498,-0.0399925,1742102417.554722
0.10375,-0.26125,0.1725,0.0049125,-0.0379475,0.0367725,-0.00375,0.185,0.34125,0.0020150002,-0.020325001,0.0152275,1742102417.670242
-0.015,0.06125,0.08,-0.0116725,0.002135,-0.065735,0.05125,-0.25125,-0.0875,-0.041535,-0.0036324998,0.0078724995,1742102417.793068
-0.09625,0.205,0.1575,-0.008225,0.0254675,0.05899,0.00875,0.11875,0.26625,-0.0032950002,0.0576175,-0.0426475,1742102417.9126241
0.0925,-0.1975,0.135,-0.03923,-0.0519875,-0.067154996,0.03125,-0.0975,0.02875,0.054765,-0.04251,0.0534375,1742102418.0110772
-0.075,0.28625,-0.0475,-0.0068825004,0.0552825,0.071394995,0.00125,-0.08,0.05375,-0.0110925,0.0605475,-0.0526125,1742102418.124822
0.1425,-0.36375,0.29375,0.033997502,-0.02716,-0.0107125,0.02375,0.0125,0.16625,0.049195,-0.046875,0.048645,1742102418.251389
-0.08375,0.345,-0.00625,0.022705,0.00879,-0.0014500001,0.04125,-0.1875,-0.01875,-0.029845,0.03659,-0.03354,1742102418.352709
0.2075,-0.3675,0.2225,0.0202325,-0.0041199997,0.0246875,0.03,0.14125,0.33875,0.0024249998,-0.0239725,0.0181875,1742102418.470901
-0.0875,0.29375,0.06875,0.0021975,-0.00415,-0.052840002,0.06375,-0.335,-0.14125,-0.0499875,-0.0055075004,0.0016775,1742102418.592077
0.175,-0.27625,0.175,-0.017745001,0.0065,0.050965,0.03,0.18375,0.335,-0.00415,0.01654,-0.0144650005,1742102418.710376
-0.0475,0.14375,0.08375,-0.0083,-0.0093375,-0.0800025,0.05625,-0.22875,-0.07625,0.0057825,-0.0299525,0.03978,1742102418.811575
0.12375,-0.185,0.13875,-0.028930001,0.01062,0.05896,0.02,0.17125,0.33875,0.004485,0.043564998,-0.035065,1742102418.931932
-0.01875,0.015,0.09875,-0.0062399996,-0.008485,-0.08113,0.05625,-0.19625,-0.06375,-0.0047600004,-0.0249025,0.0255275,1742102419.050868
0.0325,0.01375,0.08875,-0.0102375,0.022765,0.060287498,0.02375,0.11875,0.295,0.0024249998,0.053467497,-0.0426475,1742102419.150669
0.0375,-0.1425,0.11,-0.00125,-0.0051725,-0.0640575,0.05875,-0.16875,-0.0725,0.021805,-0.0334925,0.0367125,1742102419.273503
-0.03125,0.1475,0.09,-0.008485,0.015625,0.066300005,0.01875,0.0325,0.18625,0.00091500004,0.0567775,-0.044845,1742102419.394034
0.04375,-0.18375,0.11,0.0101025,-0.01709,-0.0582725,0.03125,-0.1225,-0.00125,0.040099997,-0.0509175,0.053237498,1742102419.492844
-0.0725,0.23,0.08625,0.0024425,0.025604999,0.066865,0.01875,0.0225,0.1675,-0.0033425,0.063355,-0.0497425,1742102419.613328
0.075,-0.21875,0.1175,0.02156,-0.024872499,-0.05928,0.02375,-0.06875,0.04875,0.04535,-0.048752498,0.055175,1742102419.7334988
-0.1,0.2925,0.07625,0.000945,0.0289925,0.0655675,0.01,-0.03125,0.10375,-0.0046375,0.063645,-0.05107,1742102419.851437
0.11375,-0.2725,0.13375,0.012375,-0.03157,-0.048552502,0.02375,-0.05875,0.0575,0.060652502,-0.0525825,0.055189997,1742102419.952224
-0.1375,0.355,0.07125,0.007095,0.0205525,0.061355,0.0125,-0.09375,0.05375,-0.0143275,0.0561525,-0.0499575,1742102420.074024
0.15375,-0.33375,0.17,0.00122,-0.031585,-0.035935,0.0275,-0.01625,0.1075,0.062529996,-0.0535575,0.0523825,1742102420.190412
-0.12625,0.33,0.055,0.0128325,0.0089275,0.0505075,0.02125,-0.15125,0.005,-0.0101175,0.057145,-0.047135,1742102420.291457
0.1375,-0.30875,0.20375,-0.000885,-0.0273425,-0.0407875,0.04,0.01375,0.15625,0.04309,-0.0505075,0.042662498,1742102420.414325
-0.1125,0.34625,0.06,0.026595,0.0124975005,0.0337225,0.01875,-0.12875,0.0325,-0.01558,0.04651,-0.043655,1742102420.531904
0.145,-0.36,0.19875,0.00299,-0.0242625,-0.043395,0.04125,0.0325,0.185,0.045625,-0.0549175,0.0493325,1742102420.6330419
-0.13,0.37125,0.07,0.04068,0.0122225,0.041442502,0.0075,-0.1425,0.03,-0.019225,0.050049998,-0.045930002,1742102420.745565
0.11375,-0.2775,0.17,0.00016750001,-0.02826,-0.046265,0.04,0.00625,0.10625,0.0449225,-0.05751,0.05075,1742102420.8737369
-0.12625,0.36375,0.075,0.032532502,0.017424999,0.0429225,0.02375,-0.14875,0.02,-0.016647499,0.04927,-0.046447497,1742102420.9735491
0.11625,-0.27625,0.1575,0.01181,-0.029602502,-0.0451825,0.035,0.00125,0.10375,0.04799,-0.057205003,0.049835,1742102421.092512
-0.11375,0.3275,0.08625,0.013412501,0.0168925,0.0502625,0.015,-0.085,0.0875,-0.014145001,0.051087502,-0.047105,1742102421.211614
0.115,-0.275,0.15875,0.013825,-0.0292675,-0.04251,0.035,-0.01375,0.07875,0.054794997,-0.054702498,0.0517125,1742102421.315625
-0.05875,0.19125,0.11,0.017075,0.0184025,0.06462,0.0175,-0.05625,0.1075,-0.0136725,0.0520325,-0.050415,1742102421.429572
0.06625,-0.16,0.1225,-0.0018,-0.027940001,-0.0616,0.0375,-0.06375,0.03,0.0461125,-0.041794997,0.0499425,1742102421.552674
-0.005,0.08875,0.11,0.011275,0.0119175,0.068435,0.0325,-0.0075,0.15375,-0.0099475,0.0506275,-0.046997502,1742102421.671277
0.03625,-0.0775,0.095,-0.0379325,-0.0226125,-0.0773625,0.05375,-0.15875,-0.04875,0.03418,-0.03476,0.0443275,1742102421.7735941
0.0275,0.02875,0.1075,0.005935,0.014755,0.068405,0.04125,0.03125,0.19125,-0.002335,0.0437175,-0.0408775,1742102421.891485
-0.01125,0.0525,0.07375,-0.0428925,-0.0143575,-0.0785375,0.055,-0.1775,-0.06,0.022675,-0.028792499,0.039582502,1742102422.012366
0.045,-0.0475,0.125,-0.008025,0.01091,0.066925004,0.04875,0.09625,0.25,-0.0013275,0.0319525,-0.0316625,1742102422.112606
-0.02875,0.1475,0.0575,-0.01941,-0.016647499,-0.0779725,0.05625,-0.21875,-0.08,0.001785,-0.020569999,0.030792499,1742102422.2338219
0.03125,-0.07,0.14625,-0.019455,0.02234,0.057525,0.00125,0.14125,0.34125,-0.03279,-0.0258025,0.010635001,1742102422.354434
-0.0325,0.15875,0.06375,-0.034255,-0.010757499,-0.078185,0.07,-0.27125,-0.09125,-0.02797,0.02336,-0.018662501,1742102422.45462
0.05625,-0.12,0.16375,-0.0122825,0.0177775,0.05861,0.00875,0.1425,0.3425,-0.0063325,0.0030975002,-0.0006725,1742102422.573299
-0.0425,0.19125,0.095,-0.0122375,-0.00827,-0.057265,0.06875,-0.25625,-0.1025,-0.035995,0.0207975,-0.023255,1742102422.690658
0.13875,-0.3225,0.2125,0.01265,-0.0072175004,0.0207225,0.0225,0.06625,0.30625,-0.008909999,-0.02658,0.016235001,1742102422.796614
-0.065,0.22875,0.11625,0.017625,0.021745,0.0172575,0.06125,-0.22,-0.05125,-0.040512502,0.024657499,-0.025237499,1742102422.913753
0.0975,-0.23375,0.17,0.029815001,-0.03514,-0.03659,0.04625,0.02375,0.23625,0.0252675,-0.04544,0.029495,1742102423.0339751
-0.07,0.1825,0.11875,0.021775,0.042907503,0.085190006,0.04625,-0.13,0.00375,-0.0029000002,0.049195,-0.044175,1742102423.155128
0.02,-0.04375,0.06,-0.020049999,-0.0405275,-0.097260006,0.06625,-0.0375,0.05,0.0349425,-0.048995,0.043685,1742102423.254959
0.04,-0.0225,0.1175,-0.012252499,0.032592498,0.0741275,0.0325,-0.11,0.0725,-0.008957501,0.0470875,-0.033752497,1742102423.375602
0.0025,0.1025,0.07875,-0.04332,-0.0099174995,-0.064635,0.06875,-0.0275,0.04125,0.02336,-0.0364675,0.0413675,1742102423.4944189
0.13625,-0.24125,0.17875,0.0063925,0.0066525,0.037735,0.06125,-0.0675,0.07375,-0.0027925,0.0429675,-0.0402975,1742102423.593406
-0.035,0.14375,0.12125,0.045287497,0.017745001,0.02214,0.06875,-0.00625,0.075,0.036790002,-0.02861,0.031799998,1742102423.712436
0.055,-0.12875,0.1325,0.0219275,-0.043625,-0.056900002,0.07625,-0.05875,0.07875,-0.01143,0.0243825,-0.0435175,1742102423.832437
-0.015,0.02,0.1375,0.009872501,0.0273275,0.0814825,0.04,0.0175,0.125,0.045335,-0.032959998,0.0383,1742102423.93337
-0.00375,0.10375,0.0725,-0.0222925,-0.0045625,-0.0494225,0.06625,-0.0975,0.065,-0.017350001,0.03273,-0.0396875,1742102424.046627
0.06125,-0.28125,0.22375,0.020584999,-0.0345,0.0020299999,0.0525,0.0075,0.1225,0.068739995,-0.0346975,0.039077498,1742102424.160492
-0.07,0.18,0.09625,0.0332325,0.03421,0.079345,0.04,-0.17625,0.045,-0.017395,0.034165002,-0.045045,1742102424.274395
0.0225,-0.11375,0.095,-0.05336,-0.026504999,-0.101945,0.0525,0.0225,0.1225,0.0516825,-0.0414875,0.05014,1742102424.394939
0.04125,0.05,0.08375,0.004105,0.033935003,0.06401,0.03125,-0.1175,0.09875,-0.011155,0.04506,-0.04544,1742102424.5142322
0.005,-0.08625,0.09,-0.027465,-0.01027,-0.07022,0.03125,-0.05875,0.055,0.024292499,-0.0284875,0.050415,1742102424.615613
-0.05,0.065,0.16625,0.04129,0.031432502,0.0623625,0.02,0.07625,0.18125,0.007675,0.0357975,-0.0538025,1742102424.731838
-0.0025,-0.04625,0.0725,-0.0393675,0.015365,-0.0712125,0.05875,-0.14125,0.02625,0.029495,-0.0180675,0.043580003,1742102424.852364
-0.0175,0.0075,0.09625,0.00029,0.024825001,0.076644994,0.015,0.1575,0.21125,-0.008529999,0.0310525,-0.03325,1742102424.972358
-0.03625,0.07375,0.08625,-0.059357498,0.00583,-0.07953,0.05125,-0.22625,-0.025,-0.0081775,-0.009430001,0.0237575,1742102425.070545
0.05625,-0.1275,0.11625,-0.005295,-0.000825,0.052215,0.00625,0.20625,0.30125,-0.027985001,-0.0108025,-0.002715,1742102425.1906781
-0.08625,0.175,0.15125,-0.03827,0.021362498,-0.0337075,0.035,-0.30125,-0.05,-0.043029997,0.0239725,-0.0184025,1742102425.311703
0.14875,-0.3525,0.1675,0.024657499,-0.0343325,0.008575,0.025,0.10625,0.29,0.010024999,-0.052415002,0.0295575,1742102425.412479
-0.105,0.21875,0.16625,0.01361,0.02176,0.02806,0.03375,-0.2725,-0.03,-0.038650002,0.04152,-0.043837503,1742102425.526305
0.07,-0.22625,0.145,0.025604999,-0.040755,-0.04628,0.035,0.06625,0.17625,0.047805,-0.061417498,0.043532502,1742102425.639533
-0.1275,0.24375,0.15,0.0270075,0.02797,0.0792225,0.00375,-0.14875,0.06,-0.027817499,0.055465,-0.0596775,1742102425.754124
0.035,-0.115,0.08375,-0.00177,-0.02147,-0.065155,0.05,0.02625,0.11375,0.06662,-0.053099997,0.0550075,1742102425.8747709
-0.06,0.09875,0.1275,-0.0046225,0.0261525,0.070525,0.0025,-0.13125,0.0925,-0.0178825,0.0528725,-0.0511025,1742102425.995748
0.03125,-0.08375,0.0875,-0.01384,-0.01175,-0.0596,0.03875,-0.035,0.04,0.058119997,-0.05159,0.057555,1742102426.0956511
-0.0425,0.1,0.11125,-0.00087,0.017012501,0.068725,-0.01,-0.0825,0.12875,-0.0001825,0.063355,-0.0535725,1742102426.212915
0.02,-0.07625,0.0875,-0.022415001,-0.00969,-0.068375,0.0375,-0.0975,0.0075,0.0475,-0.0429525,0.056275003,1742102426.323551
-0.025,0.06375,0.12,-0.0046225,0.0190425,0.0682675,0.005,-0.015,0.16125,0.0032950002,0.056654997,-0.0488275,1742102426.4533288
0.0075,-0.0375,0.06875,-0.031997498,-0.009902501,-0.073045,0.04125,-0.1475,-0.01875,0.038315,-0.0367275,0.052840002,1742102426.554433
0.00375,0.01625,0.11625,-0.0055549997,0.0193625,0.06945749,0.0325,0.13,0.26625,-0.0034475,0.0484325,-0.041442502,1742102426.671691
-0.02,0.05125,0.07375,-0.032745,-0.0044250004,-0.072372496,0.0425,-0.2175,-0.04875,-0.002075,-0.01085,0.02542,1742102426.792321
0.05,-0.05625,0.10625,-0.0069575,0.0192875,0.0656425,0.04375,0.17,0.3025,-0.0075225,0.031905,-0.03041,1742102426.893311
-0.055,0.13375,0.095,-0.035767503,0.0038299998,-0.0688175,0.0475,-0.26125,-0.06875,-0.021255,0.0039224997,0.01036,1742102427.013491
0.0875,-0.12875,0.1075,-0.0068200002,0.0045625,0.0495,0.035,0.18875,0.35,-0.0086525,-0.0001975,-0.0076149995,1742102427.132171
-0.0725,0.1925,0.12875,-0.024504999,0.0076599997,-0.0576925,0.0225,-0.31625,-0.0775,-0.045135,0.02806,-0.01764,1742102427.235441
0.115,-0.22,0.13875,-0.0034475,0.0013875001,0.038117502,0.0225,0.14,0.345,0.02269,-0.0528725,0.03299,1742102427.3536
-0.1,0.27625,0.14125,-0.0012975,0.0022574998,-0.037445,0.02375,-0.2575,-0.04,-0.046997502,0.039047502,-0.034849998,1742102427.4715571
0.16125,-0.37125,0.18375,0.005355,-0.02678,0.0095375,0.0275,0.0325,0.17625,0.038330004,-0.051225,0.0416575,1742102427.595215
-0.11125,0.285,0.15,0.03218,0.010024999,0.0258475,0.03,-0.14125,0.0375,-0.02626,0.04332,-0.049652502,1742102427.692289
0.13625,-0.37375,0.19375,0.014755,-0.0234075,-0.0076,0.02625,-0.02875,0.0625,0.0650625,-0.0635975,0.060165,1742102427.811415
-0.14125,0.33,0.12125,0.033630002,0.020325001,0.053695,0.00375,-0.02375,0.1375,-0.0031275,0.0629275,-0.0529475,1742102427.918221
0.07375,-0.25125,0.15,0.014007499,-0.038345,-0.056197498,0.0325,-0.14125,-0.0025,0.0541075,-0.0434875,0.0590975,1742102428.031481
-0.05,0.105,0.135,0.0261075,0.023025,0.0809925,0.00875,0.12375,0.245,0.0009775,0.061692502,-0.051650003,1742102428.1553879
-0.035,-0.04,0.055,-0.0508125,-0.026014999,-0.098052494,0.055,-0.24625,-0.0675,0.0083325,-0.008805,0.030792499,1742102428.274281
0.01,-0.0775,0.13875,-0.004685,0.040925,0.09015,0.025,0.2125,0.34875,-0.0062399996,0.0341175,-0.027617501,1742102428.372504
-0.09375,0.21625,0.08625,-0.0429375,0.0007625,-0.0823975,0.02375,-0.34375,-0.095,-0.031432502,0.008407501,-0.00354,1742102428.492408
0.12125,-0.29125,0.1925,-0.02121,0.001465,0.050705,0.01625,0.18875,0.39625,0.0045324997,-0.03955,0.02504,1742102428.612493
-0.1525,0.35,0.125,-0.0101175,0.02359,-0.01474,-0.005,-0.32375,-0.05,-0.0475925,0.039474998,-0.036682498,1742102428.714456
0.1775,-0.3625,0.19625,0.014785,-0.07785,0.0059825,0.01125,0.09,0.2325,0.020172501,-0.0729225,0.052840002,1742102428.828309
-0.1425,0.37375,0.0925,-0.001785,0.016280001,0.0019375,0.0075,-0.19625,0.00375,-0.0429525,0.0579375,-0.0505225,1742102428.953194
0.15625,-0.4575,0.23625,0.0340425,-0.0664675,-0.040772498,0.025,0.015,0.1525,0.059830002,-0.054185003,0.05043,1742102429.071615
-0.15,0.29375,0.12875,0.031525,0.045470003,0.080474995,0.0075,-0.0675,0.0875,-0.021775,0.057372503,-0.056915,1742102429.1714911
0.02625,-0.17125,0.0975,-0.0039825,-0.0493625,-0.0883475,0.02375,-0.06875,0.03,0.053115003,-0.0576775,0.065415,1742102429.292908
-0.0525,0.13125,0.1275,0.0104375,0.0294025,0.0869,0.0025,-0.00625,0.16875,-0.0057225,0.0588675,-0.056092497,1742102429.412908
-0.02875,-0.02625,0.055,-0.044845,-0.027755,-0.0997625,0.03375,-0.1775,-0.06125,0.030639999,-0.03453,0.050017502,1742102429.511745
-0.0025,-0.02375,0.135,-0.0112,0.0408025,0.082550004,-0.0,0.1675,0.31875,-0.000565,0.0336,-0.03366,1742102429.6253529
-0.0575,0.13625,0.06375,-0.042372502,-0.0033725,-0.0849,0.03875,-0.3225,-0.1175,-0.03839,0.015045,-0.013215,1742102429.751036
0.1175,-0.2575,0.19625,-0.0113375,0.010255001,0.047912497,-0.00875,0.12875,0.40625,-0.01184,-0.0576325,0.0343175,1742102429.853428
-0.08625,0.265,0.1125,0.0101775,0.0243225,0.0107275,0.01625,-0.275,-0.0625,-0.0479725,0.0464775,-0.041275002,1742102429.97074
0.15,-0.385,0.2075,0.0160675,-0.042175,-0.0067600003,0.00875,0.05375,0.26625,0.0550525,-0.07177749,0.05159,1742102430.092664
-0.0975,0.255,0.13875,0.035752498,0.029495,0.0491325,0.01375,-0.1825,0.02,-0.042724997,0.0504,-0.049607497,1742102430.194117
0.02625,-0.18125,0.11375,0.011735,-0.0544275,-0.07022,0.025,-0.035,0.05875,0.064652495,-0.0680225,0.068725,1742102430.3129148
-0.04125,0.0775,0.15875,0.0137775,0.0309,0.0818775,-0.02,-0.05375,0.15875,0.0083775,0.066865,-0.0606375,1742102430.430592
-0.0625,0.04125,0.0375,-0.047607496,-0.004685,-0.0854175,0.0425,-0.1825,-0.05,0.0411225,-0.0375675,0.0568075,1742102430.534464
0.10375,-0.11,0.14625,0.000535,0.01799,0.066512495,0.00375,0.19625,0.33375,-0.00058,0.030365,-0.028442498,1742102430.653862
-0.05,0.1025,0.08,-0.043625,0.004365,-0.08052,0.05125,-0.2575,-0.08625,-0.0248575,-0.01004,0.0149225,1742102430.771863
0.055,-0.12,0.13375,-0.011155,-0.0075375,0.055632498,0.01375,0.2025,0.3375,0.00116,0.041259997,-0.028365,1742102430.890639
-0.02875,0.06125,0.09375,-0.04338,-0.00966,-0.0806875,0.0425,-0.285,-0.13125,-0.0243525,-0.0040125,0.0134275,1742102430.9928782
0.03,-0.04875,0.1075,-0.0113225,0.019072501,0.062805,0.025,0.17875,0.3525,-0.0071725002,0.0110775,-0.008895,1742102431.112685
-0.045,0.1175,0.07375,-0.0287775,-0.008117501,-0.0691225,0.04125,-0.31625,-0.12875,-0.040955003,0.007645,0.0046225,1742102431.231582
0.1,-0.22125,0.16625,-0.012635,0.0013125,0.0477,0.0125,0.13875,0.3425,-0.0124975005,-0.02539,0.016602501,1742102431.333778
-0.065,0.22375,0.10375,-0.026475001,0.007735,-0.027557502,0.02875,-0.3,-0.06625,-0.049835,0.0272525,-0.027084999,1742102431.452325
0.13625,-0.34875,0.205,0.0078575,-0.03688,-0.002715,0.0075,0.05375,0.23375,0.030257499,-0.0555575,0.0443875,1742102431.5709782
-0.09625,0.27,0.12375,0.0204925,0.0198525,0.048125,0.02375,-0.15,0.01875,-0.03427,0.0552525,-0.051772498,1742102431.6733
0.03625,-0.145,0.13375,0.0076149995,-0.034819998,-0.053467497,0.02875,-0.03375,0.065,0.072845004,-0.0585025,0.05989,1742102431.792913
-0.07625,0.1975,0.1275,0.004685,0.0346525,0.0674275,0.0125,-0.04,0.15,-0.01332,0.0597375,-0.0526725,1742102431.9113889
0.035,-0.085,0.1325,-0.056029998,-0.0366975,-0.0797125,0.0525,-0.18375,-0.05875,0.023682501,-0.0172875,0.035065,1742102432.014452
0.0125,0.035,0.03375,0.01213,0.0393975,0.07512,0.01625,0.16375,0.34125,-0.012252499,0.0228575,-0.011565,1742102432.133044
-0.045,0.00375,0.10625,-0.03212,-0.0246875,-0.1008,0.05125,-0.25125,-0.06,-0.034165002,0.0280925,-0.0261075,1742102432.2512739
0.0225,-0.17625,0.18625,-0.0111075,0.0272675,0.061767504,0.02,0.03,0.19125,0.0275875,-0.0520325,0.035935,1742102432.356339
-0.0625,0.265,0.0875,-0.0140525,0.017424999,0.017165001,0.04875,-0.11125,0.05375,-0.030885,0.04013,-0.0499425,1742102432.4704828
0.005,-0.285,0.20375,0.046630003,-0.085235,-0.067839995,0.03875,-0.03125,0.06125,0.0579075,-0.047957502,0.057435002,1742102432.5922308
-0.03125,0.10625,0.12125,0.02739,0.0533,0.091400005,0.02375,0.0525,0.18,-0.0020150002,0.0502025,-0.0499575,1742102432.71012
0.0025,-0.00375,0.0575,-0.040925,-0.03032,-0.087919995,0.065,-0.19125,-0.02125,0.0286875,-0.01468,0.03215,1742102432.812316
0.025,-0.0875,0.15375,-0.01529,0.0365,0.0612325,0.02125,0.13375,0.25125,-0.01825,-0.005585,-0.0045625,1742102432.933223
-0.04125,0.185,0.12,-0.003555,0.0246125,0.017182501,0.055,-0.21875,-0.04875,-0.02353,0.0102075,-0.01245,1742102433.050992
0.07625,-0.16875,0.19125,0.013564999,-0.0036925,0.002715,0.02125,-0.01125,0.21875,0.025757499,-0.058945,0.030975001,1742102433.154216
-0.09625,0.2675,0.0825,0.050675,-0.010575,0.0013725,0.04125,-0.205,-0.0025,-0.035887502,0.054564998,-0.0449675,1742102433.271945
0.11625,-0.29125,0.19625,0.022444999,-0.0178825,-0.010255001,0.05125,0.00625,0.10375,0.069809996,-0.048675,0.04268,1742102433.3823931
-0.10375,0.26,0.12375,0.0493625,0.025375,0.052552503,0.0175,-0.05875,0.11,-0.0043325,0.0558025,-0.0523975,1742102433.51247
0.04875,-0.185,0.11,-0.0449525,-0.0540475,-0.094665,0.055,-0.055,0.0425,0.04564,-0.0469525,0.050307497,1742102433.6104379
-0.11,0.13625,0.155,0.02304,0.0393825,0.0887,0.01125,0.0775,0.215,-0.0133525,0.062865004,-0.0440825,1742102433.7315998
0.0125,-0.075,0.03,-0.06842,-0.0178075,-0.1001275,0.055,-0.16625,-0.015,-0.01419,-0.02272,0.0355825,1742102433.837353
-0.105,0.00625,0.18,-0.00879,0.0396275,0.0885925,-0.0375,0.12875,0.335,-0.043945,0.001115,-0.0078275,1742102433.952276
-0.01125,0.04,0.02125,-0.052825,0.0045324997,-0.09526,0.0625,-0.3175,-0.1075,-0.0629575,0.013182499,-0.01152,1742102434.065248
-0.02625,-0.10125,0.1775,-0.015457501,0.009965,0.0620575,-0.0125,0.055,0.36,-0.015197501,-0.040772498,0.018432502,1742102434.1905868
-0.0675,0.21,0.095,-0.017365,-0.00125,-0.0608525,0.0225,-0.2475,-0.04875,-0.04033,0.0486,-0.04509,1742102434.293469
0.1,-0.27375,0.2075,-0.0012825,-0.0263225,0.012604999,0.00625,0.02625,0.25375,0.062225,-0.065887496,0.04309,1742102434.411041
-0.13625,0.27875,0.12,0.0251775,0.026185,0.0481725,0.00875,-0.17,0.01875,-0.03035,0.0565025,-0.04898,1742102434.532722
0.01875,-0.1875,0.1375,0.0084525,-0.05635,-0.07599,0.0325,-0.01875,0.05875,0.068739995,-0.067565,0.061997503,1742102434.635249
-0.04625,0.07375,0.14,0.0160375,0.0369875,0.0903925,-0.02125,-0.0875,0.13125,-0.0048225,0.0847175,-0.055770002,1742102434.752328
-0.0275,0.03625,0.0375,-0.0513,-0.020705,-0.0975025,0.03875,-0.0675,0.01125,0.0308675,-0.040925,0.0578775,1742102434.871684
-0.00125,-0.11625,0.1725,-0.014375,0.022582501,0.0670325,-0.0175,0.115,0.265,-0.0202325,0.0511625,-0.0414275,1742102434.990228
-0.10125,0.20375,0.1575,0.012725,0.016205,0.0026099999,0.03625,-0.2375,-0.03375,-0.0334325,0.009505,-0.00023,1742102435.093809
0.00875,-0.1775,0.15375,0.019989999,-0.091552496,-0.0641475,0.01125,-0.0025,0.22625,0.053115003,-0.0974425,0.057189997,1742102435.211474
-0.10875,0.14875,0.165,0.0273425,0.041702498,0.078415,0.02375,-0.145,0.07625,-0.0543825,0.0662525,-0.0593425,1742102435.331618
0.02875,-0.0675,0.05625,-0.034957502,-0.0275875,-0.0868375,0.04625,-0.035,0.05375,0.0729525,-0.039869998,0.0569775,1742102435.432458
-0.06125,0.07375,0.17625,-0.0109399995,0.038680002,0.067855,0.00625,0.075,0.19,-0.02864,0.0538475,-0.05037,1742102435.5507991
0.0025,0.04125,0.03,-0.031770002,-0.0016025,-0.0653375,0.065,-0.16625,0.02,0.016555,-0.0061950004,0.0281975,1742102435.6601741
0.01125,-0.08875,0.165,-0.0022574998,-0.018555,0.058305,-0.0425,0.0975,0.295,-0.02034,-0.0078425,-0.01059,1742102435.774324
-0.02,0.13,0.0575,-0.052932497,0.009765,-0.06337,0.06125,-0.23625,0.00875,-0.0745075,0.0328525,-0.038985,1742102435.8883379
0.1075,-0.24125,0.14625,0.0051424997,-0.014435001,0.044265,0.0025,0.0375,0.2175,0.0579525,-0.078872494,0.0420525,1742102436.011229
-0.11,0.24875,0.17125,0.0198375,0.02411,0.0393375,0.025,-0.16,0.09125,-0.0635525,0.056884997,-0.064482495,1742102436.132492
0.0425,-0.23,0.1475,0.0113825,-0.080809996,-0.067855,0.04625,-0.0075,0.05875,0.087019995,-0.0414875,0.0655825,1742102436.232859
-0.13875,0.2075,0.1925,0.0428925,0.0493325,0.1029975,-0.015,-0.015,0.17,-0.0295575,0.078415,-0.0658425,1742102436.353516
0.03,-0.0725,0.03,-0.06279,-0.03267,-0.104872495,0.05875,-0.12,0.0075,0.080199994,-0.0214375,0.058930002,1742102436.47412
-0.04125,0.025,0.165,-0.0012975,0.03067,0.0844425,-0.01375,0.16875,0.2225,-0.03212,0.055405,-0.045822497,1742102436.573877
0.01625,-0.005,0.0175,-0.0690625,0.010832501,-0.0883025,0.06625,-0.16375,0.01,0.00319,-0.014907501,0.03061,1742102436.691391
0.00125,0.0025,0.1225,0.021805,-0.015197501,0.06108,-0.03625,0.09375,0.29,-0.050169997,-0.0029000002,-0.0119175,1742102436.8127391
0.00625,-0.01,0.045,-0.04918,0.03891,-0.0720825,0.06625,-0.18625,0.0075,-0.0178525,-0.006165,0.01004,1742102436.9131892
-0.0375,-0.06625,0.125,0.0254975,-0.0264275,0.0703575,-0.00875,0.02125,0.255,-0.022049999,-0.02919,0.003815,1742102437.0330062
-0.02625,0.095,0.07375,-0.05359,0.0451825,-0.04123,0.0425,-0.21625,0.04375,-0.0605,0.010575,-0.0228725,1742102437.1540549
0.09625,-0.17375,0.10125,0.0118725,-0.0426475,0.05078,0.01625,0.01,0.22875,0.024139998,-0.0249475,0.0219125,1742102437.271349
-0.18625,0.18,0.2425,0.0116875,0.0228425,0.034455,0.0325,-0.25125,0.0675,-0.059997503,0.0093525,-0.030655,1742102437.3711429
0.03125,-0.205,0.13,-0.014527501,-0.043395,-0.055724997,0.04375,0.09875,0.1775,0.0727075,-0.05748,0.04927,1742102437.491452
-0.21375,0.20875,0.23125,0.0631875,0.0048825,0.0661175,-0.0075,-0.1675,0.095,-0.041197497,0.0422525,-0.048095003,1742102437.6118011
0.08875,-0.1675,0.05125,-0.052002497,0.0137950005,-0.05751,0.0525,-0.015,0.04875,0.065705,-0.03769,0.052185003,1742102437.71219
-0.1575,0.1,0.20625,0.0564725,-0.02208,0.066925004,-0.00625,-0.05875,0.1675,-0.01767,0.050995,-0.053985,1742102437.832461
0.06,-0.05,0.0075,-0.08461,0.0535725,-0.046767503,0.0425,-0.0975,0.03125,0.0328975,-0.0210875,0.053665,1742102437.954197
-0.08125,-0.02,0.19875,0.0596325,-0.0711975,0.041595,0.04,0.1275,0.19875,-0.0151525,0.0378125,-0.0337825,1742102438.05466
-0.00375,0.0275,0.08,-0.06067,0.03096,-0.0582425,0.0225,-0.2325,0.01,-0.00917,-0.0040275003,0.0187075,1742102438.170922
0.1375,-0.2275,0.0875,0.0310975,-0.034927502,0.0296175,0.00875,0.1125,0.29375,-0.014007499,-0.035919998,0.0140225,1742102438.291907
-0.20625,0.05,0.28625,0.0202475,0.0134275,0.0195475,0.0125,-0.25125,0.03875,-0.0570525,0.033447497,-0.035462502,1742102438.3951318
0.12875,-0.175,0.0225,-0.06656,0.0018,-0.0507975,0.045,0.05875,0.1525,0.06134,-0.0532075,0.0455025,1742102438.5124962
-0.2275,0.03875,0.29875,0.0488275,-0.0213325,0.046354998,0.01,-0.13125,0.085,-0.0383,0.043045,-0.0531925,1742102438.63427
0.135,-0.14875,0.00125,-0.09076,0.028885,-0.0466925,0.03625,-0.04125,0.0425,0.070967495,-0.043595,0.058029998,1742102438.7372
-0.175,0.04375,0.2325,0.10109,-0.076385,0.047105,0.00125,0.025,0.19,-0.0032650002,0.05693,-0.046830002,1742102438.8516638
0.08125,-0.09375,0.02625,-0.078095004,0.035615,-0.04776,0.0425,-0.17375,-0.0,0.000945,-0.0121775,0.027617501,1742102438.9726121
-0.0975,0.0025,0.18,0.070985004,-0.0567175,0.0538175,0.025,0.18,0.275,-0.0163725,0.02211,-0.022125,1742102439.079092
-0.005,0.01125,0.0575,-0.0679325,0.0467225,-0.061584998,0.00625,-0.27,0.00875,-0.042372502,0.013015,-0.010635001,1742102439.1931021
0.115,-0.175,0.08375,0.0331875,-0.0514075,0.05252,0.005,0.10375,0.30625,0.0069274995,-0.053512502,0.0294025,1742102439.313751
-0.1575,0.12375,0.2125,-0.0358275,0.0699625,-0.024292499,0.00375,-0.2475,0.04875,-0.071885005,0.0355525,-0.057815,1742102439.421094
0.1325,-0.2675,0.0725,0.0146025,-0.04457,0.0008075,0.01625,0.07,0.1875,0.07953,-0.05478,0.0645,1742102439.550436
-0.22375,0.12875,0.28375,0.027069999,0.0172425,0.06868,-0.0125,-0.1775,0.07375,-0.04721,0.0408025,-0.062759995,1742102439.6516979
0.12875,-0.10375,0.0375,-0.0553125,-0.021514999,-0.054215,0.0175,-0.01375,0.05625,0.0824725,-0.042372502,0.0702675,1742102439.7622058
-0.12125,0.04375,0.17125,0.046830002,-0.0443425,0.0766,0.00625,-0.03875,0.0925,-0.0248875,0.0523675,-0.06227,1742102439.891038
0.025,-0.07375,0.0125,-0.101655,0.035752498,-0.092575,0.02625,-0.1575,0.015,0.0504925,-0.018157499,0.0605,1742102439.991727
0.06,-0.06375,0.08375,0.037842497,-0.039490003,0.066589996,0.0375,0.1825,0.22,-0.01419,0.031845,-0.040755,1742102440.1136289
-0.06,0.0725,0.0925,-0.048905,0.0605775,-0.0575725,0.0125,-0.32,0.05125,-0.0065925,0.0114750005,0.02304,1742102440.2345228
0.10625,-0.145,0.09,0.0274975,-0.039977502,0.02922,0.02375,0.1675,0.2975,-0.0127725,-0.030030001,0.0089875,1742102440.332018
-0.17625,0.1075,0.255,0.023177499,0.0022725,0.0117175,-0.00875,-0.3225,0.04125,-0.068497494,0.0116875,-0.02562,1742102440.4458969
0.11875,-0.20125,0.0725,-0.0113525,-0.012085,-0.0227975,0.03,0.07,0.1825,0.070557505,-0.055970002,0.04831,1742102440.559199
-0.16375,0.135,0.22625,0.0384975,-0.0144650005,0.0443425,-0.00625,-0.15625,0.07625,-0.0452725,0.04657,-0.0641625,1742102440.6729841
0.07375,-0.0925,0.05375,-0.04741,0.0263825,-0.037612498,0.02875,-0.00625,0.05625,0.091095,-0.044205002,0.0653525,1742102440.792004
-0.0125,0.04375,0.13125,0.021102501,-0.0261225,0.0367125,0.00125,0.01375,0.12875,-0.0034949998,0.06015,-0.0644375,1742102440.9121568
0.0225,-0.06375,0.07,-0.0361325,0.03955,-0.039869998,0.02625,-0.14375,0.0075,0.04036,-0.013412501,0.0555575,1742102441.032168
0.0175,0.01125,0.11625,0.039215,-0.01561,0.053742502,0.05,0.22,0.2775,-0.009475,0.036147498,-0.0402675,1742102441.128875
-0.0225,0.035,0.10125,-0.034424998,0.03505,-0.05214,0.005,-0.3275,0.0025,-0.034835,0.0160375,-0.007355,1742102441.243119
0.06,-0.12375,0.12375,0.0173175,-0.011535,0.044142503,0.01875,0.16,0.32875,-0.0096424995,-0.028212499,0.0201875,1742102441.3729239
-0.085,0.17875,0.17625,0.000535,0.037657503,-0.013564999,0.01125,-0.27875,0.0425,-0.07016,0.02797,-0.0517425,1742102441.4711099
0.1,-0.295,0.1575,0.0066225,-0.037155,-0.016602501,0.0175,0.035,0.14875,0.083037496,-0.04657,0.062165,1742102441.592578
-0.14625,0.27125,0.17375,0.04866,0.028350001,0.0673825,0.00125,-0.1,0.1025,-0.0379325,0.046905,-0.067535006,1742102441.713089
0.0475,-0.12875,0.0775,-0.052705,-0.0411675,-0.073332496,0.04,-0.1275,0.00375,0.070115,-0.028930001,0.066787496,1742102441.813431
-0.05125,0.12375,0.145,0.01126,0.029129999,0.0735025,0.01125,0.09125,0.20375,-0.00618,0.0478975,-0.050645,1742102441.925877
-0.0075,0.0025,0.0475,-0.059722498,-0.0154425,-0.0820625,0.0375,-0.2625,-0.02875,0.01825,-0.00673,0.0464025,1742102442.039107
0.00625,-0.03,0.12,-0.0112,0.0197,0.071427494,0.00375,0.2,0.37,-0.0304875,-0.028870001,0.00673,1742102442.156461
-0.045,0.1275,0.1175,-0.0347125,0.0231475,-0.06218,-0.00625,-0.36625,-0.02625,-0.063857496,0.0310675,-0.038985,1742102442.267145
0.08875,-0.30125,0.1925,0.018555,-0.0180675,0.0266425,-0.005,0.05375,0.1675,0.0687725,-0.090285,0.0702525,1742102442.3967419
-0.115,0.27875,0.155,0.04033,0.031004999,0.061555002,-0.00875,-0.1575,0.0825,-0.037765,0.06607,-0.0768125,1742102442.494957
0.03625,-0.1525,0.075,-0.0208275,-0.05925,-0.0741425,0.0275,-0.09125,0.01,0.06947251,-0.050185002,0.07512,1742102442.6126451
-0.05125,0.0725,0.17125,0.0086375,0.02736,0.08664,-0.0075,0.12875,0.24,0.0019675,0.048157502,-0.057815,1742102442.73331
-0.0125,0.04125,0.04375,-0.06137,-0.0057525,-0.0921625,0.0475,-0.29625,-0.03875,-0.003875,0.0039525,0.0168,1742102442.852499
0.05875,-0.15875,0.19125,-0.0018775001,0.00534,0.0540775,-0.00875,0.225,0.3975,-0.016755,-0.0096424995,0.0006725,1742102442.9499478
-0.05625,0.14125,0.08625,-0.0278775,0.0068675,-0.0440075,0.03,-0.37125,-0.09875,-0.0767375,0.0128625,-0.014557499,1742102443.0640252
0.1175,-0.2275,0.17125,0.005935,-0.009734999,0.044357497,-0.00875,0.15125,0.4,-0.018325001,-0.02719,0.0160075,1742102443.177938
-0.095,0.25,0.11,0.0025775002,0.0089425,-0.02925,0.01125,-0.265,0.00625,-0.0626225,0.0372625,-0.0470125,1742102443.29197
0.1275,-0.34,0.18625,0.00911,-0.0245825,0.031875,0.01625,0.03375,0.1825,0.0780325,-0.063857496,0.0555725,1742102443.4059148
-0.16375,0.36625,0.13875,0.0275275,0.029845,0.0411675,0.01,-0.09125,0.0725,-0.046645,0.04976,-0.066635005,1742102443.519976
0.0425,-0.32875,0.19375,0.01535,-0.06511,-0.0585025,0.03125,-0.12125,0.0,0.07849,-0.045105,0.071045,1742102443.634037
-0.155,0.295,0.12,0.0125575,0.0328975,0.082550004,0.00625,0.025,0.14625,-0.0243525,0.06633,-0.064559996,1742102443.755015
0.07375,-0.31375,0.16125,-0.00882,-0.036485,-0.072265,0.03,-0.24375,-0.065,0.065597504,-0.0346375,0.0764475,1742102443.874053
-0.14,0.29,0.1025,0.020705,0.02069,0.081375,-0.00375,0.05,0.18125,-0.012085,0.06749,-0.054167498,1742102443.974797
0.0525,-0.21375,0.14,-0.0080575,-0.0289775,-0.066879995,0.04125,-0.27625,-0.0975,0.046919998,-0.028732501,0.06366,1742102444.092939
-0.18,0.4325,0.03875,0.0125875,0.017365,0.066542506,0.02,0.24,0.34625,-0.0128475,0.055145,-0.044875,1742102444.213032
0.065,-0.35625,0.2325,0.0166625,-0.0599525,-0.051055,0.015,-0.2125,-0.05625,0.073120005,-0.0411525,0.08078,1742102444.332354
-0.19125,0.49625,0.0375,0.0370325,0.0023800002,0.036544997,0.015,0.07875,0.1725,-0.0201575,0.0702675,-0.0667425,1742102444.4354692
0.11125,-0.45625,0.28,0.00708,-0.03476,0.00531,0.005,0.00375,0.13,0.0936425,-0.044907503,0.0724025,1742102444.551685
-0.16625,0.48625,0.0425,0.034819998,-0.0006725,-0.0010825,0.0325,-0.19375,-0.02375,-0.0585475,0.032212503,-0.058532503,1742102444.670828
0.10375,-0.2975,0.20875,-0.012955,0.019057501,0.049165,0.01875,0.06375,0.24,0.0514825,-0.043885,0.0517875,1742102444.771887
-0.11625,0.38875,0.06375,0.0160225,0.0007775,-0.04631,0.02875,-0.25875,-0.02375,-0.054215,0.03334,-0.054885,1742102444.8937972
0.09625,-0.31,0.2225,-0.007675,-0.01091,0.0290975,0.0125,0.06125,0.2375,0.0402225,-0.050049998,0.0496375,1742102445.011366
-0.125,0.41625,0.03625,0.0095525,0.0081775,-0.030257499,0.04,-0.17125,0.00875,-0.0509175,0.03131,-0.057175,1742102445.113939
0.11375,-0.37,0.2475,-0.0047925,-0.028747499,0.0139,0.01125,0.0425,0.2025,0.0448925,-0.0514525,0.0529175,1742102445.233073
-0.15875,0.4625,0.06,0.018127501,0.01657,-0.000625,0.03875,-0.1125,0.04125,-0.0494225,0.039215,-0.061065,1742102445.3529658
0.1375,-0.4475,0.2375,0.0128175,-0.039612498,-0.00821,0.0175,0.00375,0.13625,0.0738075,-0.0502325,0.0635375,1742102445.456002
-0.17625,0.37875,0.1275,0.0039675,0.027940001,0.051117502,0.0225,-0.0525,0.095,-0.042785,0.04364,-0.05899,1742102445.571309
0.08,-0.30875,0.15625,0.0025775002,-0.048875,-0.0533,0.0275,-0.12875,-0.02125,0.0789175,-0.041015,0.0677175,1742102445.691457
-0.12125,0.2625,0.14125,0.00023,0.0068200002,0.0585475,0.01,0.005,0.16375,-0.01506,0.0490425,-0.0529475,1742102445.7977228
0.07,-0.1925,0.1025,-0.0085,-0.0348675,-0.0627125,0.05625,-0.26125,-0.0775,0.040572498,-0.01381,0.050582502,1742102445.91312
-0.015,0.0575,0.14375,0.0144650005,0.01564,0.0624075,0.02,0.18875,0.36375,-0.00154,0.0125575,-0.01674,1742102446.0325718
-0.0225,0.025,0.0575,-0.026397498,-0.0187225,-0.08049,0.0125,-0.36125,-0.0875,-0.0331575,0.0187525,-0.014145001,1742102446.1544771
0.02625,-0.11875,0.15125,-0.00048750002,0.035492502,0.0641175,0.02375,0.13125,0.33625,0.00827,-0.030182501,0.0251925,1742102446.252955
-0.0775,0.26125,0.06625,0.0044400003,0.0223075,-0.012115,0.01875,-0.315,-0.04375,-0.044677503,0.027405001,-0.0452125,1742102446.372658
0.1175,-0.3375,0.22375,-0.000365,-0.0240775,0.003005,0.0275,0.03875,0.19625,0.045335,-0.05571,0.04576,1742102446.4911392
-0.11625,0.295,0.11375,0.0076,0.0214075,0.045424998,0.03875,-0.09,0.07,-0.0395975,0.037445,-0.048965,1742102446.610399
0.05625,-0.23375,0.15,0.0077049998,-0.0425575,-0.053650003,0.035,-0.0775,0.00375,0.06488,-0.04248,0.0600125,1742102446.711596
-0.0225,0.1125,0.1525,0.0066825,0.0072925,0.0578925,0.0225,0.04875,0.22625,-0.0148775,0.049392503,-0.0475925,1742102446.8319201
0.0575,-0.0575,0.04125,-0.01976,-0.0025025,-0.06758,0.06,-0.21875,-0.06375,0.0193325,-0.00801,0.032135,1742102446.952618
-0.02,-0.0525,0.17375,0.0149225,-0.030272499,0.01039,0.03625,0.09625,0.22625,-0.0072475,0.0018625,-0.0030825,1742102447.051883
-0.0125,0.01,0.12375,-0.001405,-0.0092775,-0.008895,0.04375,-0.095,0.06625,-0.0107875,-0.0101175,-0.008865,1742102447.172086
-0.01,-0.0275,0.1175,0.001525,-0.0030525,-0.001755,0.04375,-0.06125,0.11,0.0067600003,-0.0172875,0.0021975,1742102447.292688
