L-AccX,L-AccY,L-AccZ,L-GyrX,L-GyrY,L-GyrZ,R-AccX,R-AccY,R-AccZ,R-GyrX,R-GyrY,R-GyrZ,timestamp
0.06,0.005,0.1825,-0.009765,0.001785,-0.047515,0.01375,-0.0275,0.11875,0.0010375,0.002595,-0.0012975,1742088866.311264
0.0025,-0.105,0.19625,0.005035,0.028717501,-0.0173025,0.01125,-0.03375,0.12,0.00296,-0.00232,0.0007475,1742088866.427927
0.005,-0.05375,0.0825,0.032775,0.031235,0.0136425,0.01125,-0.03125,0.125,0.000825,-0.000655,-0.0001825,1742088866.538796
0.05,-0.01875,0.015,0.0290525,-0.0005025,0.0305775,0.01,-0.0275,0.1225,0.0013425,0.0,-0.000275,1742088866.651922
0.08875,0.03,0.03,0.013564999,-0.019257499,0.024535,0.01125,-0.03,0.1225,-0.000565,-0.000107500004,-0.00032,1742088866.767217
0.10125,0.045,0.0825,-0.00525,-0.03093,0.0024575,0.01,-0.03,0.12125,0.0006875,-0.0007475,-0.00052,1742088866.888451
0.08875,0.05625,0.1275,-0.02124,-0.0234375,-0.017365,0.0125,-0.0325,0.12125,-0.0001525,0.0001975,-0.00029,1742088866.99742
0.06625,0.0025,0.19375,-0.0332325,-0.00148,-0.030989999,0.00875,-0.0275,0.11875,0.00026,-0.0007775,0.000535,1742088867.112159
0.02625,-0.0775,0.2,-0.0064850003,0.0041799997,-0.03888,0.01375,-0.0375,0.12,0.00059500005,-0.001755,0.0010825,1742088867.2289321
0.02625,-0.0525,0.11875,0.035325002,0.0310375,0.0010975,0.01,-0.035,0.12125,-0.000365,-0.0003975,0.00061,1742088867.337017
0.04125,-0.03375,0.0275,0.033845,0.0038299998,0.025940001,0.00875,-0.03375,0.12125,-0.00116,-0.00087,-0.00029,1742088867.451226
0.0675,0.0325,0.03875,0.020675,-0.0130925,0.02826,0.0075,-0.03,0.12125,-0.0011900001,-0.0003825,-0.0004425,1742088867.57087
0.08125,0.04375,0.06125,0.00325,-0.024995001,0.01088,0.0075,-0.02875,0.12,0.0001375,-0.00029,-0.000305,1742088867.678794
0.0825,0.06,0.1175,-0.008805,-0.023924999,-0.0078275,0.00875,-0.03125,0.12,0.000245,7.75e-05,0.000107500004,1742088867.792873
0.0925,0.0375,0.165,-0.0158075,-0.011657501,-0.034819998,0.0075,-0.03,0.12125,-0.000275,-0.00016750001,0.00016750001,1742088867.908083
0.0175,-0.08125,0.21375,0.0037375,0.008835,-0.040085,0.00625,-0.03,0.12125,0.0003975,-0.000365,0.00029,1742088868.020109
0.0,-0.0775,0.1075,0.024627501,0.0360875,-0.002655,0.0075,-0.03125,0.12,0.00059500005,-0.0005025,0.0001375,1742088868.1340108
0.03125,-0.04125,0.03625,0.0251925,0.01355,0.0207525,0.0075,-0.03125,0.1225,-0.00023,-0.00033500002,1.5e-05,1742088868.24789
0.06375,-0.0,0.0325,0.01854,-0.0112,0.0285025,0.00625,-0.03,0.12,-0.0001375,0.0001975,-0.00026,1742088868.368465
0.07625,0.025,0.0525,0.0010525,-0.022217501,0.0163425,0.005,-0.02875,0.1225,3e-05,0.000535,-4.5e-05,1742088868.475787
0.09,0.06,0.1025,-0.0116875,-0.025985,-0.002395,0.00625,-0.03125,0.12125,-9.25e-05,-3e-05,-0.00023,1742088868.590931
0.08,0.05875,0.175,-0.020965,-0.024795,-0.03807,0.0025,-0.0275,0.12125,-0.0004125,-7.75e-05,0.0001525,1742088868.7083972
0.0125,-0.0925,0.21375,-0.00023,0.0066225,-0.04889,0.00625,-0.0325,0.12125,0.0004725,-0.0001525,0.00029,1742088868.818007
-0.005,-0.0675,0.135,0.016479999,0.03569,-0.008315,0.00625,-0.03125,0.12125,0.000565,1.5e-05,7.75e-05,1742088868.933604
0.02125,-0.055,0.055,0.028944999,0.02333,0.0168,0.00625,-0.03375,0.12125,-0.00055,-0.000107500004,0.0003975,1742088869.049194
0.055,-0.03125,0.025,0.026825001,-0.00708,0.0307475,0.005,-0.03,0.12375,-0.000655,4.5e-05,-0.0001825,1742088869.158837
0.07625,0.03875,0.03375,0.0151525,-0.0269325,0.02942,0.00625,-0.03,0.12,-0.0001975,0.000275,-0.00032,1742088869.2728791
0.085,0.04125,0.085,-0.009872501,-0.032654997,-0.0027325,0.00625,-0.02875,0.12,-6e-05,0.0001525,-0.0004125,1742088869.387785
0.07375,0.06375,0.17125,-0.01953,-0.029524999,-0.027802499,0.00625,-0.03125,0.12125,0.0001525,0.0001975,-6e-05,1742088869.5092769
0.035,-0.03875,0.2175,-0.011047499,0.0027625,-0.050474998,0.005,-0.02875,0.1225,-4.5e-05,-0.00023,0.0004425,1742088869.614881
-0.015,-0.13,0.1725,0.012069999,0.03569,-0.0198825,0.00625,-0.03,0.12125,0.0011900001,-9.25e-05,0.0001225,1742088869.72911
0.01,-0.06,0.0525,0.030594999,0.02449,0.022782499,0.00625,-0.03125,0.12375,0.00016750001,0.0004125,0.00016750001,1742088869.848129
0.04625,-0.01875,0.03375,0.021745,-0.0057525,0.030105,0.00625,-0.03,0.1225,-4.5e-05,-3e-05,6e-05,1742088869.9558342
0.07,0.015,0.0425,0.01381,-0.0169375,0.02324,0.0075,-0.02875,0.12125,0.00016750001,0.000945,-0.00061,1742088870.070167
0.0925,0.0425,0.08125,-0.00496,-0.0233,0.0027925,0.0075,-0.0325,0.1225,-0.00032,-3e-05,-0.00052,1742088870.188138
0.0925,0.0375,0.13375,-0.018934999,-0.016785,-0.021879999,0.00625,-0.02875,0.1225,-0.0001975,0.00033500002,-0.00023,1742088870.2970712
0.09125,0.00375,0.18875,-0.0245675,0.00409,-0.028625,0.005,-0.03,0.12375,-0.00084,-0.00048750002,9.25e-05,1742088870.410723
0.0225,-0.12375,0.18,0.00302,0.0231475,-0.0239575,0.01,-0.02875,0.12125,-0.00113,-0.00154,0.0010075001,1742088870.5281339
0.0325,-0.0475,0.06375,0.0225975,0.0176075,0.012390001,0.005,-0.03125,0.1225,-0.000275,-0.000855,0.0006725,1742088870.638714
0.05375,-0.01625,0.05125,0.018645,-0.0037225,0.01744,0.0025,-0.02625,0.125,0.00032,-7.75e-05,-7.75e-05,1742088870.751887
0.075,0.00625,0.05875,0.0099475,-0.01027,0.017700002,0.00625,-0.03,0.12125,1.5e-05,0.0004425,-0.000535,1742088870.867798
0.08625,0.04,0.07,0.00091500004,-0.01596,0.00673,0.00625,-0.0275,0.1225,0.0003975,0.00033500002,-0.000625,1742088870.9788392
0.09375,0.02625,0.10125,-0.02472,-0.009902501,-0.00473,0.0075,-0.03,0.12125,6e-05,-0.0001225,0.0001375,1742088871.0919218
0.13625,0.0725,0.1325,-0.024415001,-0.00174,-0.0190275,0.00625,-0.02875,0.1225,-0.000535,-0.0002125,0.0001975,1742088871.208488
0.0625,-0.08375,0.23875,-0.0052175,0.015945,-0.0328075,0.00375,-0.025,0.12375,1.5e-05,-0.0003975,0.0004125,1742088871.3199759
0.02625,-0.0575,0.06625,0.0175925,0.024780001,-0.002335,0.00875,-0.03375,0.1175,0.0024100002,0.0001375,-0.0003975,1742088871.433826
0.0425,-0.02875,0.02125,0.0257875,0.0043325,0.0119175,0.005,-0.03,0.12125,-3e-05,0.00032,-0.00048750002,1742088871.549085
0.06375,-0.005,0.05625,0.016112499,-0.017547501,0.024139998,0.00625,-0.03,0.12,0.0004425,0.000305,-0.0007625,1742088871.668352
0.09125,0.0575,0.05375,0.005965,-0.017350001,0.014695,0.00375,-0.03,0.12,0.0001825,0.00026,-0.0004125,1742088871.774823
0.0825,0.0325,0.1075,-0.012802499,-0.022782499,-0.0063625,0.005,-0.02875,0.12125,0.000535,0.00023,-0.00045750002,1742088871.88894
0.1,0.05375,0.15125,-0.019745002,-0.007035,-0.011855,0.0075,-0.03125,0.12,-0.000855,-0.000107500004,6e-05,1742088872.0077598
0.07125,0.01,0.1975,-0.009872501,-0.0021199998,-0.036544997,0.005,-0.025,0.125,-0.0010825,-0.00055,0.000655,1742088872.116962
0.01125,-0.09625,0.135,0.013122501,0.0361625,-0.0048525,0.005,-0.02625,0.12125,0.0016175,-0.0007625,0.0001825,1742088872.23084
0.04125,-0.02125,0.04625,0.02559,0.013702501,0.013564999,0.0075,-0.03125,0.12125,-0.0016775,-0.00048750002,0.00052,1742088872.3479948
0.06875,0.00375,0.03875,0.0213475,-0.010345,0.020325001,0.005,-0.02875,0.12125,0.00033500002,0.00016750001,-0.000245,1742088872.457906
0.0925,0.0425,0.05,0.0040599997,-0.014557499,0.0157475,0.00375,-0.02875,0.12125,-0.0003825,0.00029,-0.000535,1742088872.571606
0.09125,0.055,0.09125,-0.011215,-0.020584999,-0.005295,0.0025,-0.0275,0.12375,6e-05,0.0003825,-0.0006725,1742088872.6879628
0.09375,0.03875,0.135,-0.0237275,-0.0139,-0.022629999,0.00625,-0.03,0.12375,-0.0004425,6e-05,0.0001375,1742088872.7990441
0.075,0.0075,0.1875,-0.011229999,-0.0010225,-0.032302503,0.00375,-0.0275,0.1225,0.000305,9.25e-05,0.0004425,1742088872.9128058
0.02375,-0.08375,0.16375,0.0137325,0.0301675,-0.0102075,0.00375,-0.02875,0.12375,0.0004125,-0.00016750001,0.0001975,1742088873.02862
0.035,-0.05125,0.055,0.023772499,0.017700002,0.0104375,0.00625,-0.03,0.12375,0.00052,-7.75e-05,-0.000107500004,1742088873.14727
0.05875,-0.0125,0.0425,0.021835,0.0029449998,0.018142499,0.00375,-0.02875,0.12125,-0.0001375,-1.5e-05,-0.00035,1742088873.2537029
0.08125,0.0175,0.04625,0.014205,-0.008835,0.021485,0.00625,-0.03,0.12125,-0.0001525,0.000107500004,-0.00052,1742088873.3672261
0.0975,0.045,0.06625,0.0013275,-0.01892,0.009185,0.0025,-0.025,0.12375,0.0,-1.5e-05,-0.0004425,1742088873.479807
0.0975,0.0375,0.10125,-0.0118725,-0.016967501,-0.009902501,0.00625,-0.03,0.12125,0.0007775,0.0,7.75e-05,1742088873.594264
0.09875,0.01125,0.1425,-0.0243525,-0.0119325,-0.02243,0.0075,-0.03,0.1225,-0.0010675,-0.0001525,0.00059500005,1742088873.708856
0.0725,-0.02,0.16625,-0.011779999,0.0027774998,-0.0346675,0.00375,-0.02625,0.12375,-0.00087,-0.00016750001,7.75e-05,1742088873.82844
0.02,-0.06875,0.1425,0.01236,0.0245525,-0.012345,0.005,-0.02875,0.1225,-0.0003975,-0.00033500002,-0.0001825,1742088873.934946
0.04625,-0.0525,0.0525,0.018737499,0.013854999,0.0064075,0.005,-0.0275,0.12125,-0.0007625,-0.0004125,3e-05,1742088874.049255
0.06875,-0.02625,0.045,0.01912,-0.00079250004,0.01625,0.005,-0.02625,0.12125,-1.5e-05,-0.00023,9.25e-05,1742088874.1687748
0.08125,0.00125,0.04375,0.011765,-0.0090175,0.0195625,0.005,-0.0275,0.12375,-4.5e-05,6e-05,-6e-05,1742088874.27668
0.095,0.03625,0.05625,0.0032950002,-0.021057501,0.0141,0.00375,-0.0275,0.1225,0.000565,0.0003825,-0.00029,1742088874.391318
0.09,0.0375,0.105,-0.014755,-0.02452,-0.0136875,0.00375,-0.02625,0.12125,3e-05,0.00026,-0.00023,1742088874.507828
0.075,0.02,0.1625,-0.0199425,-0.012375,-0.0264575,0.005,-0.0275,0.1225,-0.0004275,9.25e-05,0.0,1742088874.6178281
0.04125,-0.0675,0.175,-0.00737,0.007905,-0.0351725,0.00375,-0.025,0.1225,0.000245,0.0,-0.0001525,1742088874.731874
0.0125,-0.07625,0.1325,0.01233,0.027755,0.0010075001,0.00625,-0.0275,0.12125,0.0007775,-3e-05,-4.5e-05,1742088874.8474429
0.04,-0.04625,0.0675,0.019745002,0.0115825,0.014587499,0.00375,-0.02625,0.12375,-0.00029,-1.5e-05,4.5e-05,1742088874.959618
0.06625,-0.0125,0.0575,0.0157925,0.001145,0.02089,0.00625,-0.02625,0.12125,0.000945,0.000655,-0.0010675,1742088875.0736551
0.08125,0.01625,0.04625,0.00763,-0.0081325,0.018265,0.00375,-0.02875,0.1225,0.000945,0.00035,-0.0006725,1742088875.188603
0.0875,0.035,0.06625,-0.000945,-0.020172501,0.0052024997,0.005,-0.03,0.1225,0.0012675,0.0005025,-0.000535,1742088875.30866
0.0875,0.07125,0.10375,-0.0080875,-0.0234525,-0.016465,0.0075,-0.0375,0.1175,0.0051275003,0.0004425,-0.0007175,1742088875.4149601
0.05625,-0.00375,0.2125,-0.0092775,-0.010757499,-0.048752498,0.00625,-0.0325,0.1225,-0.00148,-0.00061,0.00064,1742088875.529388
-0.00875,-0.1225,0.18375,0.009582501,0.0270225,-0.021514999,0.00375,-0.0325,0.12125,-0.0010525,-0.0004275,0.00058,1742088875.6473138
0.0075,-0.08625,0.07875,0.0174875,0.0261525,0.009095,0.0075,-0.03625,0.12125,-0.0015725,-0.00016750001,0.0006875,1742088875.756633
0.04125,-0.05375,0.03875,0.0195625,0.008042499,0.023682501,0.00375,-0.03,0.12,-0.0009775,-0.0002125,0.00033500002,1742088875.8696508
0.07125,0.0075,0.03,0.0173175,-0.0112,0.03305,0.00375,-0.0325,0.1225,-0.0007325,-0.000107500004,-0.0002125,1742088875.988205
0.07875,0.055,0.05375,-9.25e-05,-0.026215,0.0119175,0.0025,-0.03,0.12125,-0.0005025,0.00026,-0.00052,1742088876.096627
0.07375,0.05375,0.12125,-0.012984999,-0.030442499,-0.015702501,0.00375,-0.03,0.12125,0.0001825,1.5e-05,-9.25e-05,1742088876.210783
0.05875,0.03,0.20125,-0.0109399995,-0.0160375,-0.0440525,0.005,-0.03125,0.12,3e-05,0.000107500004,0.00016750001,1742088876.327921
0.0175,-0.13,0.19875,0.0013275,0.016265,-0.0366375,0.00375,-0.02875,0.12125,6e-05,-0.0003825,0.000625,1742088876.43871
-0.0075,-0.06,0.1225,0.018815,0.043305002,0.0010975,0.01,-0.03125,0.12,0.0001225,-0.0004425,0.0004425,1742088876.552798
0.02625,-0.04875,0.02375,0.01799,0.0152125,0.018692499,0.0025,-0.0275,0.1225,-0.00091500004,-0.00048750002,0.0004425,1742088876.6689532
0.0575,-0.01375,0.0425,0.0146325,-0.0054175,0.030792499,0.005,-0.03125,0.12125,-0.0002125,0.000305,-0.0004125,1742088876.779655
0.08125,0.02375,0.05,0.00618,-0.01834,0.02719,0.00125,-0.02625,0.12375,-0.000107500004,0.000275,-0.00045750002,1742088876.893604
0.10625,0.06375,0.08875,-0.0038599998,-0.026337499,0.0060125,0.00375,-0.03125,0.12125,0.0006875,0.0001975,-0.0003825,1742088877.0084102
0.09,0.0525,0.13375,-0.0204625,-0.018235,-0.028747499,0.0075,-0.03,0.1225,0.000245,0.00064,-0.0009625,1742088877.1217752
0.0525,-0.00875,0.195,-0.0130925,-0.0011900001,-0.050049998,0.0025,-0.0275,0.12125,-0.001405,-0.00032,0.0007775,1742088877.2359092
0.0175,-0.10125,0.18125,0.0056925,0.0310975,-0.0193475,0.0025,-0.02625,0.12125,0.0008075,-0.000107500004,0.000245,1742088877.349814
0.015,-0.0625,0.05375,0.0188,0.0266575,0.008285,0.005,-0.03,0.1225,-0.0001975,-9.25e-05,0.00016750001,1742088877.467753
0.0525,-0.04375,0.02625,0.02385,-0.0038299998,0.0254825,0.005,-0.03,0.12125,-0.00059500005,-0.0003825,-0.00029,1742088877.577794
0.0675,0.01875,0.05375,0.01526,-0.0198825,0.0292975,0.00375,-0.03,0.12125,-3e-05,0.000365,-0.0006725,1742088877.693676
0.09375,0.055,0.07,-0.0029749998,-0.020295,0.008880001,0.00375,-0.0275,0.1225,0.000305,0.0003825,-0.0004425,1742088877.811197
0.09875,0.0525,0.12875,-0.016097499,-0.0267175,-0.02243,0.005,-0.03,0.12125,0.00064,0.00029,1.5e-05,1742088877.920335
0.0625,0.0175,0.19625,-0.0154725,-0.0043025,-0.0434875,0.005,-0.02875,0.1225,-0.000107500004,0.0,0.0001825,1742088878.033726
0.0125,-0.125,0.185,0.0022125002,0.0269625,-0.026549999,0.005,-0.0275,0.1225,0.00048750002,-0.00016750001,0.0002125,1742088878.148109
0.01625,-0.085,0.0825,0.021850001,0.030975001,0.00975,0.005,-0.0325,0.1225,-0.00033500002,-0.0001225,0.00029,1742088878.2691221
0.0475,-0.0425,0.03375,0.022782499,0.006165,0.02652,0.005,-0.02875,0.1225,-0.00032,-4.5e-05,-4.5e-05,1742088878.37479
0.07125,0.01625,0.045,0.018662501,-0.009765,0.0286875,0.00625,-0.03,0.12125,-0.000365,4.5e-05,-0.000655,1742088878.489686
0.07625,0.04125,0.0525,0.0077975,-0.0165875,0.013885,0.005,-0.03,0.12125,-4.5e-05,0.0001525,-0.0004425,1742088878.6025012
0.1075,0.0575,0.08375,-0.01065,-0.022935,-0.0056,0.0025,-0.02875,0.12375,-0.000305,-9.25e-05,9.25e-05,1742088878.7158139
0.09875,0.02,0.15125,-0.01953,-0.020295,-0.0322275,0.005,-0.03,0.12125,0.000305,6e-05,0.00023,1742088878.82974
0.05125,-0.03625,0.1875,-0.0139475,0.0051875,-0.042494997,0.00375,-0.0275,0.12125,-0.00016750001,-0.00016750001,0.00016750001,1742088878.94881
0.0125,-0.10625,0.1775,0.0099325,0.033982497,-0.0163125,0.0025,-0.02875,0.1225,1.5e-05,0.0,0.00033500002,1742088879.057665
0.03125,-0.07125,0.04875,0.021362498,0.022979999,0.0083625,0.005,-0.02875,0.1225,-3e-05,-0.0001975,0.00032,1742088879.171513
0.05,-0.04125,0.03625,0.020569999,-0.0010375,0.0222025,0.00375,-0.02875,0.12125,-0.0001225,-0.00016750001,-0.00029,1742088879.2877629
0.06625,0.01125,0.045,0.016235001,-0.0077049998,0.0261225,0.00625,-0.03125,0.12,0.0001825,0.00032,-0.0007475,1742088879.398466
0.09125,0.035,0.045,0.00679,-0.0149375,0.021270001,0.00375,-0.02875,0.1225,0.0004125,0.0001225,-0.0004425,1742088879.511625
0.1025,0.055,0.07625,-0.0063925,-0.032592498,-0.006255,0.005,-0.03,0.12,0.00055,0.0001375,-0.0002125,1742088879.633337
0.08625,0.06,0.1525,-0.017135,-0.025557501,-0.03131,0.00625,-0.0325,0.12,-0.0001975,6e-05,0.0002125,1742088879.739767
0.045,-0.03625,0.18625,-0.0060425,0.0061350004,-0.0493,0.00375,-0.02875,0.12125,-0.0007475,-0.00035,0.00048750002,1742088879.853735
0.00375,-0.10875,0.16875,0.0130625,0.028212499,-0.0139625,0.0025,-0.02875,0.1225,0.00023,-0.00035,0.000275,1742088879.968343
0.02875,-0.065,0.0725,0.0221875,0.024795,0.0116425,0.005,-0.03125,0.1225,-0.000565,-0.00023,0.000365,1742088880.082266
0.0575,-0.03625,0.03875,0.020537501,0.0024725,0.0242775,0.0025,-0.0275,0.12125,0.000365,6e-05,-9.25e-05,1742088880.194745
0.0725,0.015,0.03625,0.0169525,-0.0072325002,0.025604999,0.005,-0.03,0.12125,9.25e-05,0.00026,-0.000655,1742088880.308644
0.0975,0.035,0.045,0.0046375,-0.019395001,0.017165001,0.00375,-0.0275,0.1225,0.00087,0.00033500002,-0.000825,1742088880.428458
0.09125,0.04375,0.085,-0.0099949995,-0.0308525,-0.0066825,0.0025,-0.03125,0.1225,0.00029,0.0002125,-0.000305,1742088880.536791
0.08,0.05125,0.17875,-0.017455,-0.0193325,-0.035217497,0.005,-0.0325,0.1225,-0.0007475,-7.75e-05,0.0004275,1742088880.650861
0.02625,-0.06625,0.19625,-0.00705,0.0087425,-0.0516975,0.0025,-0.0275,0.12375,-7.75e-05,-0.000245,0.00023,1742088880.7686641
0.00125,-0.08625,0.15875,0.0219725,0.03479,-0.01184,0.00625,-0.03125,0.12,0.0007625,-0.00029,0.00045750002,1742088880.8787708
0.03,-0.04625,0.06,0.027207501,0.024705,0.0140375,0.005,-0.03125,0.1225,-0.00033500002,-0.0001225,0.00016750001,1742088880.9927292
0.05875,-0.0375,0.02625,0.0229175,-0.00033500002,0.0313275,0.005,-0.03,0.12125,0.0004275,3e-05,-0.00033500002,1742088881.112011
0.08,0.02375,0.0275,0.02301,-0.01065,0.032837503,0.00375,-0.02875,0.12,0.0001975,0.00023,-0.0003825,1742088881.220578
0.09,0.05,0.05,0.0060125,-0.0240625,0.018082501,0.00375,-0.03,0.1225,0.0003975,0.0001825,-0.0004725,1742088881.334431
0.09625,0.0625,0.0975,-0.00763,-0.0305625,-0.0047925,0.005,-0.03,0.12125,0.00035,6e-05,-1.5e-05,1742088881.44783
0.0825,0.07125,0.17125,-0.011779999,-0.015717499,-0.0435175,0.005,-0.03125,0.1225,-0.00058,-3e-05,0.00033500002,1742088881.561829
0.01875,-0.065,0.1925,-0.0054175,0.0021525,-0.0578775,0.00375,-0.0275,0.12125,-0.00026,-0.000275,0.00023,1742088881.675671
0.00125,-0.10625,0.14,0.0186,0.0370325,-0.0119775,0.005,-0.03125,0.12125,6e-05,-0.00016750001,0.0001525,1742088881.7938812
0.03125,-0.07,0.05875,0.02942,0.023559999,0.016205,0.005,-0.02875,0.1225,0.0001375,0.0002125,0.0001375,1742088881.908266
0.0525,-0.035,0.02375,0.024795,-0.0024875,0.0325775,0.00625,-0.02875,0.1225,0.000945,0.0001525,-0.0001825,1742088882.017664
0.0775,0.0225,0.02375,0.0172425,-0.014985,0.029465001,0.00375,-0.03,0.12125,0.0028525,0.000625,-0.000885,1742088882.13253
0.09,0.0625,0.0525,0.0036175,-0.0301975,0.008712499,0.00625,-0.0375,0.11875,0.0007025,0.000365,-0.00084,1742088882.2480042
0.08375,0.04875,0.1325,-0.0142375,-0.030272499,-0.0172425,0.00375,-0.03375,0.12,-7.75e-05,0.0,-0.0001525,1742088882.357663
0.085,0.01,0.19125,-0.02153,-0.00966,-0.0334325,0.00625,-0.03375,0.12125,-0.0007625,-0.000107500004,0.000365,1742088882.471562
0.0375,-0.07375,0.2025,-0.0043325,0.0222325,-0.035384998,0.005,-0.03,0.12125,-0.0007625,-0.00029,0.00064,1742088882.5947251
0.01875,-0.07875,0.08875,0.017760001,0.0351725,-0.0030975002,0.00625,-0.035,0.12,0.000305,-0.0001975,0.000275,1742088882.699595
0.045,-0.05625,0.0275,0.0228575,0.0110625,0.01616,0.005,-0.0325,0.12125,-0.001115,-0.000275,0.0004725,1742088882.813581
0.07125,-0.01375,0.04,0.017395,-0.006835,0.02588,0.005,-0.0325,0.12125,7.75e-05,0.0001375,-0.00052,1742088882.928354
0.0775,0.0275,0.03875,0.0072775004,-0.01384,0.0225675,0.00375,-0.03125,0.12125,3e-05,0.000245,-0.00084,1742088883.0413692
0.095,0.05,0.065,-0.0010825,-0.027115,0.0066075,0.005,-0.0325,0.12125,0.00058,0.0001825,-0.0004725,1742088883.154402
0.0825,0.07375,0.135,-0.009734999,-0.0299675,-0.0196375,0.005,-0.0325,0.12,-0.0001225,4.5e-05,0.00023,1742088883.268945
0.05875,0.02,0.22,-0.0110775,-0.00409,-0.053772498,0.005,-0.03125,0.12125,-0.000855,-0.000245,0.0003825,1742088883.388764
0.0075,-0.11125,0.16,0.00554,0.0325,-0.02304,0.00375,-0.03125,0.12125,0.001235,-0.000305,-0.0001375,1742088883.496655
0.02625,-0.0675,0.05375,0.024535,0.025055,0.0109875,0.00625,-0.03375,0.12125,-0.0012675,-0.000245,0.0004275,1742088883.611884
0.05625,-0.0425,0.025,0.020004999,-0.001465,0.026,0.00375,-0.03,0.12125,-0.0004425,-0.0003825,0.0001375,1742088883.7284522
0.07,0.02,0.0475,0.0121450005,-0.0099325,0.02951,0.00375,-0.03125,0.12125,-0.000275,7.75e-05,-0.000275,1742088883.837427
0.09,0.05875,0.0525,0.0034475,-0.0210875,0.010575,0.005,-0.03125,0.12125,0.0006725,0.0001375,-0.00045750002,1742088883.9504619
0.08125,0.06,0.1075,-0.0098875,-0.0284575,-0.0163425,0.005,-0.0325,0.12125,0.00023,1.5e-05,1.5e-05,1742088884.0711539
0.07375,0.035,0.19875,-0.0192875,-0.0177775,-0.047119997,0.005,-0.0325,0.12125,-0.000275,0.00016750001,0.0001225,1742088884.177569
0.0075,-0.10625,0.20875,0.003555,0.025512502,-0.036849998,0.00375,-0.03,0.12125,0.0012825,-0.0001375,0.0004425,1742088884.291677
0.02375,-0.07,0.0725,0.022217501,0.04039,-0.000945,0.00625,-0.03375,0.12,-0.00061,-0.000107500004,0.000825,1742088884.407406
0.05125,-0.0575,0.02,0.02385,0.006775,0.0227975,0.00375,-0.03,0.12125,-3e-05,-0.0001825,0.00016750001,1742088884.5194721
0.06875,-0.0125,0.0425,0.013122501,-0.0066525,0.0314175,0.005,-0.0325,0.12125,-0.00035,6e-05,-0.000275,1742088884.6334
0.085,0.04125,0.0475,0.0090475,-0.0181125,0.020370001,0.005,-0.03125,0.12125,0.00052,0.0001825,-0.000305,1742088884.747664
0.09125,0.0375,0.07875,-0.0076,-0.029082501,-0.003585,0.005,-0.0325,0.12125,0.0001525,0.0001525,-0.000245,1742088884.8595982
0.07,0.05625,0.14625,-0.00821,-0.026899999,-0.027787501,0.005,-0.03375,0.12125,-0.0001975,7.75e-05,0.0001525,1742088884.9734762
0.02625,-0.03875,0.21875,-0.008545,-0.00354,-0.054825,0.005,-0.03375,0.12,-0.00079250004,-0.0001525,0.0004425,1742088885.091934
-0.00875,-0.0925,0.17,0.0083,0.0426475,-0.02002,0.005,-0.03125,0.11875,0.00055,-0.0002125,0.000365,1742088885.2084239
0.02375,-0.06875,0.04,0.026595,0.027985001,0.0136425,0.005,-0.0325,0.12125,-0.00064,-0.000107500004,0.00033500002,1742088885.315479
0.05625,-0.035,0.0275,0.0202325,-0.0087425,0.036927503,0.00625,-0.03,0.12125,-0.0001225,3e-05,7.75e-05,1742088885.429448
0.0925,0.03125,0.04875,0.0136425,-0.0139775,0.024535,0.00375,-0.02875,0.1225,0.000107500004,0.00016750001,-0.00048750002,1742088885.550765
0.0875,0.0375,0.07,-0.00087,-0.0222775,0.0034025,0.00625,-0.0325,0.12125,0.00055,0.0001825,-0.000625,1742088885.656478
0.08,0.03875,0.11125,-0.0056,-0.02777,-0.017059999,0.00625,-0.0325,0.12125,0.0001225,0.000107500004,-0.00023,1742088885.770553
0.06125,0.02375,0.17375,-0.01175,-0.01805,-0.04271,0.00625,-0.03375,0.12125,-0.0004275,-4.5e-05,0.000245,1742088885.890047
0.00875,-0.0675,0.21,-0.01558,0.0043175,-0.042357497,0.005,-0.03,0.1225,0.00064,-0.0001825,0.0003975,1742088885.9986272
-0.00125,-0.0925,0.1075,0.0263825,0.0369575,-0.00879,0.005,-0.03125,0.12125,-0.00055,6e-05,0.0002125,1742088886.112586
0.03125,-0.06625,0.04875,0.0255275,0.015702501,0.0264275,0.005,-0.03125,0.1225,-6e-05,1.5e-05,7.75e-05,1742088886.2294662
0.0525,-0.0175,0.05625,0.0196525,0.006255,0.03688,0.00625,-0.03375,0.12,-0.0004275,-7.75e-05,-1.5e-05,1742088886.339307
0.07625,0.0225,0.04125,0.014375,-0.0148775,0.0351725,0.00625,-0.0325,0.12,0.000565,0.0001825,-0.000275,1742088886.452306
0.08,0.07,0.0625,0.006745,-0.0284275,0.0098125,0.005,-0.0325,0.12,0.00016750001,9.25e-05,-0.00016750001,1742088886.570434
0.075,0.06625,0.12875,-0.0062875,-0.036560003,-0.021775,0.00375,-0.03375,0.12125,0.0004425,0.0001975,-0.00016750001,1742088886.6788428
0.02,0.0475,0.2225,-0.011735,-0.005235,-0.06311,0.005,-0.03125,0.12125,-0.000365,-4.5e-05,6e-05,1742088886.7925508
-0.02375,-0.14,0.17875,0.028137501,0.034775,-0.0234975,0.005,-0.0325,0.12125,0.00084,-0.0001525,4.5e-05,1742088886.9078028
0.0225,-0.07875,0.04875,0.0285025,0.0305175,0.0167075,0.00625,-0.03625,0.1225,-0.0010225,-0.00016750001,0.00048750002,1742088887.020458
0.04375,-0.03625,0.04125,0.015395001,0.0010975,0.0284725,0.00375,-0.03,0.12,-0.0001825,-0.0001525,0.0001525,1742088887.1342962
0.0725,0.00875,0.04625,0.008909999,-0.01303,0.0246125,0.00625,-0.0325,0.12125,-9.25e-05,0.000107500004,-0.00035,1742088887.249762
0.08375,0.03125,0.07,-0.000825,-0.02266,0.0109399995,0.00375,-0.0325,0.12125,0.0005025,0.00029,-0.000885,1742088887.3677309
0.085,0.0525,0.12,-0.007385,-0.02652,-0.011445,0.00625,-0.03375,0.12,0.00033500002,0.000245,-0.00032,1742088887.474546
0.04625,0.0625,0.19,-0.0127725,-0.012345,-0.04721,0.005,-0.0325,0.12125,-0.000565,0.0003825,0.0001225,1742088887.590165
-0.0075,-0.15375,0.20875,-0.005905,0.0164175,-0.0361175,0.005,-0.0325,0.12125,0.000945,-9.25e-05,6e-05,1742088887.708936
0.00125,-0.08625,0.09125,0.0149225,0.0391225,0.0081025,0.01125,-0.03625,0.12125,-0.0007025,3e-05,0.000625,1742088887.816254
0.0425,-0.05125,0.03375,0.020065,0.0125275,0.0263225,0.005,-0.03,0.12125,-0.00087,-0.00026,0.00064,1742088887.929217
0.0625,0.01,0.03875,0.0143125,-0.0062399996,0.032715,0.00625,-0.03375,0.12,-0.0001825,0.000107500004,-0.0007325,1742088888.049469
0.08625,0.04625,0.04625,0.0069125,-0.0219275,0.019989999,0.005,-0.03125,0.1225,0.00045750002,0.00113,-0.001145,1742088888.1553202
0.085,0.0575,0.10625,-0.0061025,-0.03337,-0.002105,0.00875,-0.03375,0.12,0.00084,0.0004425,-0.0003825,1742088888.2695549
0.0675,0.05125,0.17625,-0.01497,-0.019790001,-0.0393225,0.0075,-0.0325,0.1225,-0.0001825,0.0001825,9.25e-05,1742088888.3887382
0.01625,-0.07,0.2275,-0.0331125,0.00064,-0.045197498,0.005,-0.03125,0.12,4.5e-05,-0.000305,0.0004425,1742088888.498095
-0.00125,-0.07375,0.13125,0.029862499,0.042985,-0.0025625,0.01125,-0.0375,0.11875,0.000107500004,0.0001825,0.00058,1742088888.611673
0.03625,-0.035,0.03875,0.0214225,0.026014999,0.02269,0.00625,-0.0275,0.12375,-0.00093,-0.0004125,0.000535,1742088888.7285929
0.06625,0.00375,0.025,0.0323175,-0.0083475,0.0361625,0.0075,-0.0325,0.12125,4.5e-05,1.5e-05,-0.00052,1742088888.8384728
0.075,0.0425,0.04875,0.01274,-0.0165875,0.01941,0.005,-0.03125,0.12125,0.0007775,0.00023,-0.00091500004,1742088888.951221
0.0825,0.05625,0.07,0.00441,-0.03102,-0.0034949998,0.00625,-0.0325,0.12,0.00093,0.00016750001,-0.0004725,1742088889.0701702
0.05375,0.06375,0.16125,0.0028675,-0.0319825,-0.049514998,0.0075,-0.035,0.12125,0.00064,0.00026,-0.0002125,1742088889.178366
-0.02,-0.09,0.205,-3e-05,-0.00537,-0.0706625,0.00625,-0.03375,0.1225,-1.5e-05,-0.0001225,9.25e-05,1742088889.292638
-0.0525,-0.13125,0.15875,0.0064850003,0.028732501,-0.026885001,0.00875,-0.03625,0.11875,-3e-05,-0.0001825,0.000275,1742088889.4079108
-0.01625,-0.0975,0.07125,0.023177499,0.042465,0.0201425,0.00625,-0.03375,0.1225,-0.0009625,-0.0003825,0.000825,1742088889.520421
0.035,-0.0475,0.01875,0.016205,0.0044250004,0.04039,0.005,-0.03375,0.12125,-0.00023,-0.0002125,0.0004725,1742088889.6342669
0.075,0.0225,0.04375,0.0163425,-0.016692499,0.033645,0.0075,-0.0325,0.12,0.00016750001,6e-05,-0.00045750002,1742088889.748703
0.08125,0.0825,0.06625,0.0198375,-0.04776,-0.0042125,0.00625,-0.03375,0.12125,0.0015725,0.000535,-0.00151,1742088889.8679419
0.02125,0.02125,0.16,-0.0037525,-0.0322575,-0.047165003,0.0075,-0.03875,0.11875,-4.5e-05,0.00026,-0.00032,1742088889.9745111
-0.0525,-0.1025,0.24,-0.028930001,0.0037850002,-0.051055,0.005,-0.03375,0.12,-0.0006875,-0.00029,0.0004125,1742088890.091056
-0.04875,-0.07625,0.16125,0.0160075,0.058287498,-0.0154275,0.0075,-0.03375,0.11875,6e-05,-0.00029,0.000945,1742088890.209862
0.00125,-0.06125,0.05625,0.02118,0.04004,0.011657501,0.0075,-0.0325,0.12,-0.0018925001,-0.0004275,0.001405,1742088890.316344
0.04875,-0.06125,0.0325,0.0202625,0.002915,0.0310825,0.00625,-0.03625,0.11875,0.0004275,-0.000245,0.00023,1742088890.4302552
0.08375,-0.0,0.02375,0.0220325,-0.010314999,0.036284998,0.00625,-0.03125,0.12,-0.0001825,0.000365,-0.0009925,1742088890.5489159
0.07375,0.0425,0.07,0.01497,-0.0372,0.01773,0.0075,-0.0325,0.12125,0.0007775,0.00029,-0.00079250004,1742088890.658336
0.06875,0.05375,0.12375,-0.0027325,-0.032485,-0.01712,0.00625,-0.03375,0.12,3e-05,0.0002125,-0.0004275,1742088890.774608
0.00875,-0.015,0.18875,0.0083,-0.0184025,-0.058715,0.0075,-0.03375,0.12,-0.000275,0.0,0.000107500004,1742088890.888424
-0.04,-0.115,0.2025,-0.0074775,0.023162501,-0.043625,0.0075,-0.0325,0.12,-0.00033500002,-0.00023,0.000305,1742088891.008492
-0.02625,-0.12625,0.0975,0.0154275,0.047775,0.0074625,0.0075,-0.03375,0.12,-0.00023,-3e-05,0.0004125,1742088891.1143959
0.01625,-0.0725,0.04125,0.016175,0.0146025,0.03418,0.0075,-0.03125,0.12125,-0.000945,-0.00023,0.00029,1742088891.2284741
0.05125,-0.0275,0.0275,0.0243375,0.0057075,0.038255002,0.0075,-0.03125,0.12,-4.5e-05,0.000107500004,-0.000275,1742088891.3494542
0.08125,0.02,0.04375,0.020295,-0.0245675,0.0334925,0.0075,-0.0325,0.12,0.0004725,0.000365,-0.0007775,1742088891.455148
0.08125,0.05125,0.07,0.0043025,-0.0309,0.0095525,0.00875,-0.0325,0.12,0.000275,0.0001225,-0.000565,1742088891.570841
0.0575,0.03875,0.135,0.003525,-0.034805,-0.0233925,0.0075,-0.03375,0.12,-0.0002125,0.0001225,-0.000275,1742088891.688357
0.015,-0.0025,0.17125,-0.0048825,-0.0137175,-0.04576,0.0075,-0.0325,0.12125,-0.00045750002,-0.0001375,0.0,1742088891.796507
-0.0325,-0.06375,0.2225,-0.030105,0.0131675,-0.0491325,0.00625,-0.0325,0.12125,-0.0002125,-0.00035,0.00058,1742088891.91049
-0.01375,-0.10625,0.12625,0.020965,0.051575,-0.0027925,0.0075,-0.035,0.12125,0.0007625,-0.0001975,0.00052,1742088892.028862
0.02375,-0.055,0.0475,0.0163125,0.0249325,0.027755,0.00625,-0.03,0.12125,0.0001525,-0.00026,0.000855,1742088892.138195
0.05875,-0.01875,0.03125,0.018295,0.0007175,0.034849998,0.0075,-0.0325,0.12,-4.5e-05,1.5e-05,-0.000275,1742088892.2522
0.08125,0.01875,0.04875,0.02028,-0.0210125,0.024627501,0.00625,-0.03125,0.12,0.000535,0.0001975,-0.0006725,1742088892.368584
0.0775,0.0425,0.08,0.00644,-0.0322725,0.0024100002,0.0075,-0.0325,0.12125,0.0001375,9.25e-05,-0.0004275,1742088892.478119
0.05875,0.03,0.135,0.000305,-0.0288075,-0.024430001,0.0075,-0.0325,0.12125,-0.0001225,3e-05,-3e-05,1742088892.59142
0.01375,-0.00125,0.19,-0.0046550003,-0.0057075,-0.047377497,0.00625,-0.0325,0.1225,-0.0009625,-0.0001975,0.0001975,1742088892.7087202
-0.035,-0.09125,0.23,-0.02269,0.0213775,-0.041732498,0.005,-0.03125,0.12,0.000365,-0.00035,-7.75e-05,1742088892.819492
-0.0075,-0.10125,0.105,0.012542499,0.052552503,0.0060575,0.0075,-0.03375,0.12125,-0.0001375,-0.00023,0.0003825,1742088892.9332101
0.03875,-0.0375,0.0275,0.028594999,0.0220325,0.028959999,0.00625,-0.03,0.12125,-6e-05,-0.00052,0.00026,1742088893.0496068
0.0675,-0.0,0.01125,0.029495,-0.008239999,0.0364375,0.00625,-0.03375,0.12125,9.25e-05,-9.25e-05,-0.0003975,1742088893.168364
0.07875,0.04375,0.02875,0.0263675,-0.0360575,0.021225,0.00375,-0.03125,0.12125,0.00116,0.00055,-0.00087,1742088893.2750878
0.0525,0.04625,0.1025,0.012069999,-0.0458675,-0.01001,0.00625,-0.03375,0.12,0.00064,0.00052,-0.0004125,1742088893.388892
0.00875,0.00625,0.17625,0.003525,-0.027207501,-0.046492502,0.00625,-0.03375,0.12125,6e-05,0.0004275,7.75e-05,1742088893.508495
-0.03625,-0.0725,0.22125,-0.017745001,0.0086975,-0.0537875,0.00625,-0.0325,0.12,-0.000305,-0.000107500004,0.000275,1742088893.616386
-0.06375,-0.12875,0.195,-0.0042425,0.056884997,-0.026565,0.00625,-0.03125,0.12125,0.00016750001,-0.0002125,0.000365,1742088893.7303832
-0.0,-0.0725,0.05625,0.0231325,0.0564125,0.0178225,0.0075,-0.03125,0.12125,-0.0013275,-0.00048750002,0.001235,1742088893.847549
0.04625,-0.01625,0.01,0.0304575,-0.0010675,0.03914,0.00625,-0.03,0.12,-0.0004425,-6e-05,0.0003825,1742088893.958296
0.0725,0.02625,0.0375,0.0307,-0.021270001,0.033265,0.0075,-0.03,0.12125,0.00016750001,0.0005025,-0.0004275,1742088894.072418
0.0875,0.06,0.075,0.0112,-0.0289,0.0134575,0.0075,-0.0325,0.12,0.00113,0.0006725,-0.001175,1742088894.188778
0.05875,0.06,0.1175,0.00154,-0.03125,-0.01674,0.00875,-0.0325,0.12,0.000655,0.00061,-0.0003975,1742088894.300166
0.025,0.02375,0.1725,-0.01329,-0.01773,-0.042632498,0.0075,-0.03125,0.12125,-0.000107500004,6e-05,0.0001525,1742088894.4143748
-0.02625,0.00125,0.23875,-0.027282499,0.0024425,-0.05948,0.0075,-0.03,0.12125,-0.00035,-0.00023,0.00055,1742088894.529067
-0.02125,-0.10125,0.16875,0.0169525,0.0509175,-0.0222325,0.00875,-0.0325,0.12125,-3e-05,-9.25e-05,0.000275,1742088894.648182
0.02875,-0.04625,0.03875,0.0230875,0.0281525,0.0249025,0.0075,-0.03,0.12125,-0.0009775,-0.00016750001,0.0005025,1742088894.756118
0.05625,-0.00625,0.03375,0.017700002,0.0044250004,0.033462502,0.00875,-0.0325,0.12,0.0,6e-05,-0.0001225,1742088894.8690538
0.0825,0.025,0.035,0.014435001,-0.0022125002,0.0279075,0.0075,-0.03125,0.12,0.00091500004,0.000535,-0.00091500004,1742088894.988297
0.08625,0.04375,0.06625,0.0060725003,-0.020782499,0.01674,0.00875,-0.03375,0.12,0.001435,0.000275,-0.0008075,1742088895.095135
