L-AccX,L-AccY,L-AccZ,L-GyrX,L-GyrY,L-GyrZ,R-AccX,R-AccY,R-AccZ,R-GyrX,R-GyrY,R-GyrZ,timestamp
0.39,0.66,0.67,0.12,-1.53,-4.09,-0.32,-0.95,0.09,-2.81,2.2,-2.44,1742249156.6062772
0.46,0.66,0.78,7.87,4.46,-14.28,-0.37,-0.95,0.11,2.56,-9.16,0.98,1742249156.72024
0.62,0.61,0.8,29.72,41.75,-40.34,-0.52,-1.23,0.08,46.51,8.97,87.59,1742249156.8341591
0.82,0.63,0.52,-22.52,47.91,-88.44,-0.24,-1.08,-0.06,105.16,42.18,167.36,1742249156.948211
0.65,0.57,0.47,-49.99,-8.73,-108.46,0.39,-0.65,-0.23,78.25,56.7,174.44,1742249157.065652
0.57,0.42,0.59,-25.21,-33.33,-67.57,0.59,-0.4,-0.55,25.94,44.25,100.65,1742249157.176258
0.57,0.36,0.61,-10.74,-14.16,-36.8,0.57,-0.56,-0.51,20.57,-18.62,27.53,1742249157.292516
0.6,0.27,0.65,-7.08,-32.47,-0.49,0.63,-0.59,-0.46,4.21,-0.24,12.88,1742249157.405418
0.61,0.33,0.72,-11.9,-30.46,-3.23,0.55,-0.6,-0.55,0.92,2.32,17.52,1742249157.5180318
0.6,0.36,0.68,-26.0,-24.9,3.6,0.62,-0.54,-0.51,17.21,3.85,8.3,1742249157.631188
0.61,0.4,0.71,10.8,-11.41,-0.43,0.6,-0.57,-0.59,8.48,5.55,4.82,1742249157.748584
0.58,0.35,0.77,-6.04,-7.39,-7.08,0.64,-0.59,-0.59,-11.47,-2.69,19.84,1742249157.85923
0.62,0.35,0.73,-23.44,16.3,-17.88,0.66,-0.51,-0.51,-21.48,-12.27,19.53,1742249157.9734101
0.63,0.44,0.64,-25.09,0.49,0.12,0.65,-0.59,-0.48,6.29,-1.83,0.98,1742249158.08726
0.66,0.49,0.79,-14.95,-1.83,-9.58,0.76,-0.46,-0.49,-8.12,-25.51,9.28,1742249158.201371
0.63,0.24,0.72,14.4,5.98,3.54,0.76,-0.47,-0.54,-7.81,-14.16,34.12,1742249158.315348
0.65,0.55,0.56,14.59,0.49,0.18,0.77,-0.44,-0.37,39.61,-18.13,-11.11,1742249158.429425
0.62,0.39,0.7,42.79,-7.45,-15.62,0.78,-0.43,-0.43,32.96,-6.84,21.24,1742249158.545853
0.62,0.1,0.74,8.54,-2.26,-31.8,0.76,-0.37,-0.48,-15.32,9.52,2.44,1742249158.657156
0.62,0.22,0.74,-6.53,-6.65,-6.47,0.79,-0.4,-0.45,-4.58,9.34,5.74,1742249158.771137
0.59,0.19,0.79,-11.66,-2.56,-3.48,0.74,-0.44,-0.49,-13.67,6.04,-2.87,1742249158.885935
0.61,0.29,0.74,4.58,-2.26,3.48,0.75,-0.46,-0.45,7.32,-2.44,3.85,1742249158.999157
0.6,0.18,0.77,9.58,-6.35,-1.34,0.78,-0.39,-0.46,5.0,6.23,0.79,1742249159.113051
0.59,0.23,0.76,9.58,-4.58,-3.85,0.77,-0.39,-0.48,9.34,2.14,5.49,1742249159.22829
0.58,0.2,0.78,-5.25,-5.74,-2.01,0.76,-0.37,-0.5,0.12,10.25,0.12,1742249159.343039
0.56,0.2,0.79,-1.65,-1.95,1.16,0.75,-0.38,-0.52,1.04,4.03,-0.85,1742249159.455182
0.57,0.22,0.79,-3.48,-5.31,3.48,0.76,-0.38,-0.52,4.21,8.61,-1.77,1742249159.5691452
0.55,0.22,0.8,0.49,-1.71,1.71,0.74,-0.39,-0.53,2.5,3.36,-2.75,1742249159.68632
0.56,0.22,0.8,0.79,-2.93,-1.53,0.74,-0.37,-0.54,1.46,3.6,0.0,1742249159.797023
0.56,0.22,0.8,-3.48,0.98,-1.1,0.74,-0.38,-0.54,-1.04,3.6,-2.81,1742249159.9112241
0.56,0.24,0.79,2.56,-0.55,-0.79,0.74,-0.39,-0.56,2.75,0.49,1.4,1742249160.026463
0.55,0.22,0.79,1.34,0.06,1.22,0.74,-0.38,-0.54,0.12,0.12,-1.04,1742249160.138133
0.56,0.23,0.79,0.12,1.04,1.46,0.74,-0.39,-0.54,-1.71,-0.61,-0.85,1742249160.252279
0.55,0.24,0.79,-0.92,2.32,-0.06,0.73,-0.39,-0.53,-1.34,-0.85,-0.61,1742249160.366213
0.56,0.23,0.79,-1.28,0.12,-0.31,0.73,-0.39,-0.54,1.1,2.62,-1.71,1742249160.480043
0.55,0.22,0.8,0.18,0.24,0.37,0.73,-0.39,-0.55,-0.12,-0.37,-1.71,1742249160.594207
0.56,0.23,0.79,0.92,-0.67,0.06,0.74,-0.38,-0.55,0.24,0.06,0.67,1742249160.7080672
0.55,0.23,0.79,-1.04,-0.12,0.43,0.74,-0.39,-0.55,-0.67,-0.24,-1.1,1742249160.825675
0.55,0.23,0.8,-0.31,-0.67,0.06,0.74,-0.38,-0.55,-0.24,0.24,-0.98,1742249160.93613
0.57,0.23,0.79,-1.28,-1.4,-0.06,0.74,-0.39,-0.53,-0.85,1.22,0.31,1742249161.050007
0.55,0.23,0.79,-1.4,-1.53,0.73,0.73,-0.38,-0.55,1.1,1.46,-1.89,1742249161.165348
0.57,0.25,0.78,0.12,0.12,1.1,0.73,-0.4,-0.55,0.12,0.67,-0.73,1742249161.2780108
0.55,0.23,0.79,1.16,-0.73,-0.12,0.72,-0.39,-0.55,-1.16,1.59,-0.06,1742249161.392123
0.55,0.24,0.8,-1.65,2.75,-0.37,0.73,-0.39,-0.55,-1.16,-0.24,-1.34,1742249161.506262
0.55,0.24,0.81,-0.61,0.18,0.85,0.73,-0.4,-0.55,0.18,0.55,-0.79,1742249161.6200461
0.56,0.24,0.79,1.4,0.12,-1.1,0.73,-0.39,-0.54,0.85,0.37,0.55,1742249161.733963
0.55,0.25,0.79,0.24,-0.31,0.24,0.72,-0.4,-0.55,0.18,0.0,-0.06,1742249161.848027
0.54,0.24,0.8,0.43,-0.06,-0.18,0.72,-0.39,-0.55,-0.49,-0.49,-0.43,1742249161.965394
0.55,0.24,0.8,-0.67,-0.31,-0.98,0.73,-0.39,-0.56,1.28,-0.37,-0.55,1742249162.0761302
0.56,0.25,0.79,0.31,-0.18,-0.18,0.72,-0.4,-0.56,1.53,0.61,0.43,1742249162.189943
0.55,0.24,0.8,1.1,-0.24,0.43,0.72,-0.39,-0.56,1.1,-0.31,-0.55,1742249162.305108
0.56,0.24,0.8,1.04,-0.67,0.12,0.73,-0.4,-0.56,1.1,-0.12,0.31,1742249162.418002
0.55,0.23,0.8,2.08,-0.73,-0.43,0.73,-0.38,-0.55,1.46,0.37,1.28,1742249162.531935
0.54,0.23,0.8,1.46,-1.4,-0.31,0.72,-0.37,-0.56,1.59,0.67,0.55,1742249162.645943
0.54,0.23,0.81,-0.55,-0.06,-0.55,0.73,-0.38,-0.56,1.53,0.55,-0.92,1742249162.759972
0.55,0.25,0.8,1.28,-1.34,-0.67,0.72,-0.38,-0.56,2.5,1.46,0.43,1742249162.873822
0.54,0.24,0.79,1.83,-3.05,1.59,0.71,-0.39,-0.57,1.83,1.89,0.61,1742249162.987784
0.54,0.22,0.81,3.78,-2.93,-0.61,0.72,-0.37,-0.59,5.25,3.78,0.37,1742249163.10515
0.53,0.23,0.8,10.8,-5.92,-4.33,0.71,-0.34,-0.58,11.23,4.33,6.04,1742249163.21594
0.5,0.17,0.84,10.99,-5.68,-0.55,0.71,-0.33,-0.6,6.65,3.17,0.85,1742249163.3298078
0.52,0.18,0.84,0.55,1.89,1.04,0.71,-0.34,-0.59,1.22,-1.16,-2.5,1742249163.445717
0.51,0.2,0.83,2.44,-2.69,0.18,0.71,-0.34,-0.6,2.81,0.24,-0.37,1742249163.55792
0.51,0.19,0.84,2.08,-5.13,1.89,0.71,-0.34,-0.61,2.56,2.99,-0.98,1742249163.671914
0.5,0.18,0.84,1.77,-7.2,0.06,0.7,-0.33,-0.62,2.87,2.93,0.61,1742249163.785902
0.49,0.17,0.85,1.89,-2.5,-0.18,0.71,-0.33,-0.62,1.95,1.04,-0.98,1742249163.899924
0.49,0.18,0.84,1.28,-1.34,0.55,0.7,-0.33,-0.62,1.04,1.53,-1.4,1742249164.013987
0.49,0.18,0.85,0.67,0.31,0.61,0.7,-0.33,-0.63,1.28,0.92,-1.04,1742249164.128065
0.49,0.17,0.85,-0.92,-0.43,1.16,0.7,-0.32,-0.62,-1.77,2.32,-3.17,1742249164.242035
0.49,0.19,0.85,-5.74,-1.34,2.99,0.7,-0.35,-0.63,-2.81,1.95,-2.44,1742249164.3558972
0.49,0.21,0.85,0.0,-1.04,-0.49,0.68,-0.35,-0.63,1.71,0.55,0.85,1742249164.46987
0.48,0.19,0.85,0.67,0.0,-0.24,0.68,-0.34,-0.62,0.79,0.31,-0.49,1742249164.585075
0.47,0.19,0.85,1.46,-2.2,-0.49,0.7,-0.32,-0.64,0.37,-1.34,0.0,1742249164.697852
0.48,0.19,0.85,-0.12,-0.85,2.44,0.68,-0.35,-0.63,1.95,1.65,-2.32,1742249164.8119109
0.48,0.19,0.85,-0.31,-1.59,0.79,0.68,-0.35,-0.63,0.67,1.4,-0.79,1742249164.925844
0.47,0.2,0.86,-0.43,-0.67,0.18,0.69,-0.35,-0.64,-1.16,0.37,-0.37,1742249165.046349
0.47,0.2,0.85,0.98,-0.67,-1.1,0.68,-0.34,-0.63,0.49,0.73,0.55,1742249165.155738
0.46,0.2,0.86,1.34,-0.24,-0.31,0.68,-0.34,-0.63,1.28,0.43,-0.61,1742249165.269831
0.47,0.19,0.86,0.18,-1.28,0.92,0.68,-0.34,-0.63,0.18,1.95,-0.79,1742249165.384712
0.46,0.19,0.86,-1.65,-2.69,0.73,0.68,-0.34,-0.65,1.4,5.13,-0.92,1742249165.49783
0.46,0.2,0.86,-2.01,-3.72,-0.92,0.69,-0.34,-0.66,-0.43,1.16,-1.95,1742249165.611955
0.45,0.21,0.87,-0.73,0.98,0.24,0.67,-0.34,-0.64,-2.69,-3.91,-1.04,1742249165.7273989
0.46,0.2,0.86,0.85,-0.98,0.98,0.67,-0.34,-0.64,0.67,1.16,-0.12,1742249165.8398132
0.45,0.2,0.86,0.73,-1.83,1.04,0.66,-0.35,-0.64,1.77,3.48,-1.95,1742249165.953863
0.45,0.2,0.86,-1.59,-5.07,1.1,0.67,-0.35,-0.68,5.49,11.35,-3.72,1742249166.0678499
0.43,0.21,0.88,-0.55,-2.01,2.69,0.66,-0.37,-0.67,-0.92,0.43,-0.98,1742249166.1850188
0.43,0.21,0.86,0.73,-2.26,-1.46,0.65,-0.34,-0.66,0.85,2.01,1.04,1742249166.295786
0.42,0.21,0.88,0.61,-1.46,-0.92,0.65,-0.34,-0.66,6.71,1.89,0.92,1742249166.409765
0.43,0.19,0.87,9.03,-6.71,-0.31,0.62,-0.31,-0.68,8.42,7.26,3.6,1742249166.5250812
0.41,0.2,0.88,5.62,-14.59,-0.18,0.65,-0.32,-0.74,5.62,4.39,0.18,1742249166.6377559
0.39,0.18,0.89,3.42,-2.87,1.4,0.61,-0.3,-0.71,0.37,1.1,0.24,1742249166.751724
0.37,0.17,0.9,1.65,-1.65,0.67,0.62,-0.3,-0.72,0.49,1.04,-1.28,1742249166.865937
0.39,0.18,0.9,1.34,-0.92,-0.12,0.62,-0.3,-0.71,0.55,-0.12,0.67,1742249166.979854
0.38,0.18,0.9,2.38,-1.83,1.1,0.61,-0.3,-0.72,1.53,1.53,0.06,1742249167.093867
0.38,0.18,0.9,2.26,-3.54,1.22,0.6,-0.28,-0.72,3.3,6.71,-1.46,1742249167.207841
0.37,0.15,0.91,0.0,-5.43,3.66,0.6,-0.28,-0.73,-7.39,12.15,-8.12,1742249167.325087
0.35,0.2,0.92,-9.58,-5.31,8.48,0.56,-0.32,-0.74,-1.28,5.43,-6.84,1742249167.4359648
0.34,0.21,0.92,5.25,-3.23,5.43,0.57,-0.32,-0.75,7.63,-3.42,-3.23,1742249167.549814
0.36,0.21,0.91,6.16,-1.28,2.81,0.57,-0.31,-0.76,6.23,-2.14,-0.67,1742249167.664706
0.35,0.16,0.91,14.28,-1.22,-2.93,0.59,-0.27,-0.76,0.31,0.18,2.32,1742249167.777618
0.34,0.19,0.91,-2.32,-3.72,-1.89,0.58,-0.3,-0.77,2.5,-2.14,1.16,1742249167.891862
0.34,0.15,0.92,4.88,-2.81,-3.85,0.57,-0.29,-0.76,-2.69,0.43,-2.14,1742249168.00592
0.35,0.17,0.91,-2.32,-0.79,-3.3,0.58,-0.29,-0.76,-4.15,1.1,3.42,1742249168.119722
0.33,0.16,0.93,-1.46,-3.54,-3.3,0.57,-0.28,-0.76,-0.49,1.16,-0.67,1742249168.233831
0.33,0.16,0.92,-0.73,-0.67,-0.24,0.57,-0.3,-0.76,0.67,0.79,0.18,1742249168.347695
0.33,0.15,0.92,2.87,-0.55,0.73,0.57,-0.3,-0.77,0.55,0.67,-2.2,1742249168.4649332
0.34,0.17,0.92,1.53,0.31,1.16,0.57,-0.29,-0.77,0.0,1.95,0.06,1742249168.575686
0.33,0.16,0.92,1.65,-2.2,1.46,0.56,-0.29,-0.76,0.24,1.28,-0.67,1742249168.689771
0.32,0.15,0.92,-0.12,-1.16,1.95,0.56,-0.3,-0.76,3.6,2.2,-3.05,1742249168.8043761
0.32,0.16,0.92,-0.79,-0.98,2.08,0.56,-0.31,-0.78,2.87,2.69,-1.77,1742249168.917761
0.32,0.17,0.92,1.77,-0.12,-0.18,0.56,-0.29,-0.78,-0.43,-1.28,-0.06,1742249169.03191
0.32,0.16,0.93,2.38,-0.55,0.49,0.56,-0.28,-0.78,0.0,-2.69,-0.67,1742249169.145808
0.33,0.16,0.92,2.2,-0.79,-0.37,0.55,-0.28,-0.77,1.95,-0.85,-0.12,1742249169.259852
0.32,0.14,0.92,0.73,1.28,0.73,0.55,-0.3,-0.77,1.95,0.12,-0.98,1742249169.3736992
0.32,0.15,0.93,0.24,1.04,-0.37,0.56,-0.3,-0.77,0.85,-0.73,-0.12,1742249169.487811
0.32,0.15,0.93,1.46,0.18,-1.22,0.56,-0.28,-0.77,0.37,-0.98,0.24,1742249169.604574
0.32,0.14,0.92,1.65,0.61,-0.79,0.57,-0.28,-0.77,0.37,-0.49,-0.61,1742249169.7157938
0.33,0.14,0.92,0.55,0.31,-0.12,0.56,-0.29,-0.77,0.43,1.16,0.73,1742249169.829677
0.32,0.14,0.93,0.12,-0.18,-4.46,0.56,-0.3,-0.77,-2.32,0.98,5.13,1742249169.944845
0.32,0.12,0.94,-0.37,2.08,-14.77,0.58,-0.27,-0.77,-18.55,-4.7,8.3,1742249170.0578518
0.33,0.14,0.93,-11.84,3.85,-17.46,0.57,-0.29,-0.77,-18.25,-7.69,8.36,1742249170.171838
0.34,0.13,0.91,-9.89,12.94,-19.41,0.58,-0.29,-0.72,-13.85,-9.64,9.83,1742249170.285865
0.38,0.12,0.9,-6.41,15.93,-15.87,0.63,-0.3,-0.7,-10.01,-6.47,6.29,1742249170.3998861
0.44,0.13,0.88,-6.16,9.4,-5.55,0.62,-0.33,-0.68,-1.77,-0.98,-1.04,1742249170.513931
0.45,0.14,0.88,-2.5,-1.77,3.3,0.62,-0.35,-0.69,3.11,6.84,-2.93,1742249170.6276128
0.44,0.17,0.87,-4.03,-5.68,6.59,0.59,-0.33,-0.7,5.13,9.46,-6.77,1742249170.741667
0.41,0.18,0.89,-5.43,-7.14,8.42,0.58,-0.35,-0.75,3.48,12.02,-8.54,1742249170.855646
0.38,0.22,0.89,-0.31,3.66,8.48,0.57,-0.36,-0.73,-1.77,2.01,-5.49,1742249170.9697258
0.41,0.19,0.88,-8.24,1.95,0.92,0.57,-0.34,-0.75,-3.6,6.84,-6.77,1742249171.084183
0.38,0.23,0.89,-5.92,0.31,3.66,0.55,-0.36,-0.77,-7.81,0.79,-10.56,1742249171.197742
0.4,0.25,0.88,-8.06,9.28,4.52,0.55,-0.43,-0.75,-6.47,-6.77,-11.54,1742249171.3118458
0.44,0.28,0.87,-4.76,11.84,1.28,0.55,-0.42,-0.73,-9.83,-9.16,-7.63,1742249171.425826
0.44,0.29,0.84,-3.3,13.0,-0.55,0.56,-0.43,-0.69,-8.36,-7.93,-4.27,1742249171.539798
0.49,0.26,0.84,-3.48,5.55,0.92,0.56,-0.45,-0.69,-1.28,-3.42,-1.71,1742249171.6538649
0.47,0.29,0.83,2.14,3.97,-0.43,0.57,-0.46,-0.67,4.88,-2.5,1.4,1742249171.768034
0.51,0.27,0.81,-2.2,-3.11,-0.37,0.56,-0.46,-0.69,0.06,5.8,0.18,1742249171.884554
0.47,0.3,0.84,-0.12,-3.54,-1.77,0.55,-0.44,-0.71,1.71,3.42,3.17,1742249171.994462
0.46,0.3,0.83,1.65,-3.48,-1.77,0.55,-0.42,-0.7,1.4,1.71,2.08,1742249172.1085591
0.46,0.28,0.84,1.16,-5.98,-1.71,0.55,-0.42,-0.71,2.08,3.42,3.54,1742249172.2225459
0.46,0.26,0.84,-0.85,-3.42,-2.32,0.55,-0.41,-0.71,2.99,5.49,2.56,1742249172.33661
0.43,0.26,0.86,0.0,-5.25,0.85,0.55,-0.39,-0.74,2.56,5.0,-1.1,1742249172.450567
0.44,0.26,0.86,0.85,-4.64,3.54,0.54,-0.39,-0.74,2.56,1.65,-1.77,1742249172.564553
0.43,0.26,0.85,0.43,-0.79,3.72,0.53,-0.38,-0.74,1.22,0.92,-1.34,1742249172.678539
0.43,0.27,0.86,1.71,-0.18,3.6,0.55,-0.4,-0.75,2.32,1.59,-1.65,1742249172.792562
0.43,0.27,0.86,1.4,-2.93,2.32,0.54,-0.39,-0.74,3.11,2.01,-0.85,1742249172.906877
0.42,0.27,0.85,-0.92,-3.54,1.95,0.51,-0.39,-0.75,2.38,4.82,-2.01,1742249173.0205498
0.41,0.29,0.85,-1.28,-2.69,3.36,0.5,-0.4,-0.73,2.2,6.84,-0.49,1742249173.134542
0.4,0.31,0.85,-3.17,-4.94,2.01,0.5,-0.38,-0.78,6.23,8.06,0.18,1742249173.248385
0.39,0.3,0.89,1.59,-3.78,3.3,0.48,-0.39,-0.79,6.59,3.72,-1.59,1742249173.365191
0.38,0.31,0.87,2.56,-3.48,4.7,0.48,-0.36,-0.81,8.79,-0.49,-2.69,1742249173.476665
0.36,0.28,0.88,3.91,1.4,6.23,0.49,-0.36,-0.77,4.88,-2.75,-5.86,1742249173.593705
0.38,0.26,0.86,-1.04,3.85,5.74,0.49,-0.37,-0.79,2.38,1.1,-8.0,1742249173.706923
0.38,0.29,0.88,-3.11,1.77,3.85,0.48,-0.38,-0.8,1.22,1.16,-3.85,1742249173.818605
0.37,0.29,0.88,-0.85,2.32,2.32,0.47,-0.36,-0.81,3.11,-2.32,-3.05,1742249173.9352572
0.38,0.3,0.87,2.44,3.11,5.62,0.48,-0.37,-0.8,6.41,-4.33,-5.43,1742249174.0475361
0.39,0.3,0.86,4.52,2.38,4.82,0.48,-0.37,-0.79,2.2,-3.11,-2.87,1742249174.165698
0.39,0.29,0.86,4.21,1.95,1.1,0.48,-0.37,-0.79,1.28,-0.24,-1.22,1742249174.275601
0.38,0.29,0.87,0.37,0.92,-0.61,0.48,-0.35,-0.8,2.62,-1.16,1.46,1742249174.3894742
0.38,0.28,0.88,5.62,-1.4,-0.67,0.47,-0.35,-0.8,7.51,1.89,-1.16,1742249174.504736
0.38,0.27,0.87,7.51,-5.07,2.44,0.49,-0.34,-0.82,8.67,3.11,-7.45,1742249174.617554
0.37,0.29,0.89,5.68,0.49,7.32,0.47,-0.36,-0.82,6.29,-2.93,-1.77,1742249174.7315378
0.39,0.28,0.88,6.84,1.89,0.12,0.47,-0.33,-0.81,1.89,-3.54,2.2,1742249174.845514
0.39,0.26,0.88,2.93,1.83,-2.08,0.48,-0.31,-0.82,-0.06,-1.95,3.97,1742249174.968241
0.38,0.25,0.88,4.52,-1.71,-2.93,0.5,-0.3,-0.8,2.75,-0.43,5.74,1742249175.073548
0.38,0.22,0.88,2.87,-5.37,-2.75,0.47,-0.29,-0.83,4.21,4.7,3.85,1742249175.187286
0.36,0.23,0.9,2.99,-5.74,-0.98,0.47,-0.28,-0.83,6.35,5.55,2.32,1742249175.3086069
0.35,0.25,0.89,4.09,-7.93,0.18,0.47,-0.26,-0.83,8.54,0.61,4.46,1742249175.4133382
0.32,0.19,0.91,5.92,-2.2,-1.89,0.47,-0.25,-0.84,4.27,0.49,2.14,1742249175.526468
0.34,0.19,0.93,0.79,-0.24,-1.28,0.48,-0.27,-0.86,2.56,-0.61,1.89,1742249175.64431
0.33,0.21,0.91,5.07,-0.43,-4.15,0.48,-0.23,-0.84,5.92,-2.81,5.92,1742249175.754457
0.34,0.18,0.92,7.2,-2.87,-1.71,0.51,-0.23,-0.84,0.49,-0.43,3.23,1742249175.868393
0.33,0.2,0.92,3.6,-0.67,-0.73,0.51,-0.22,-0.84,2.56,-0.31,5.74,1742249175.985108
0.33,0.18,0.92,4.64,-5.19,-0.73,0.48,-0.21,-0.83,3.36,1.65,5.19,1742249176.0963469
0.32,0.17,0.92,4.52,-10.31,-2.2,0.48,-0.18,-0.85,3.3,7.02,5.37,1742249176.210329
0.29,0.15,0.93,-0.37,-15.14,-4.09,0.49,-0.2,-0.88,-0.49,8.91,7.2,1742249176.324833
0.27,0.18,0.94,-1.1,-8.48,-6.23,0.45,-0.18,-0.85,-4.27,1.59,10.07,1742249176.4384372
0.24,0.17,0.95,-3.66,-3.97,-9.34,0.47,-0.16,-0.83,-22.28,-32.17,7.57,1742249176.5525398
0.29,0.18,0.93,4.94,12.94,1.71,0.54,-0.2,-0.79,-9.28,-18.19,8.91,1742249176.666537
0.3,0.14,0.93,2.69,10.56,-1.77,0.58,-0.18,-0.81,-3.11,-12.08,-4.7,1742249176.7806358
0.33,0.15,0.94,8.54,9.46,10.25,0.57,-0.26,-0.76,5.0,-15.99,-7.81,1742249176.8944352
0.35,0.18,0.93,9.52,14.59,-0.79,0.61,-0.19,-0.76,9.46,-23.5,-5.0,1742249177.008563
0.39,0.07,0.91,12.02,9.95,4.82,0.63,-0.21,-0.72,0.73,-5.68,4.03,1742249177.124831
0.38,0.09,0.91,1.22,0.85,-2.99,0.64,-0.19,-0.74,7.57,-15.81,-12.21,1742249177.236429
0.39,0.06,0.92,8.06,3.6,8.91,0.67,-0.22,-0.72,4.03,-14.77,-4.03,1742249177.350529
0.4,0.04,0.91,2.44,15.81,6.23,0.67,-0.23,-0.71,-4.58,-9.28,-4.46,1742249177.464971
0.42,0.1,0.88,-4.52,10.8,7.2,0.6,-0.24,-0.65,-20.63,-5.68,0.06,1742249177.5784261
0.41,0.15,0.85,-1.77,5.92,9.64,0.66,-0.27,-0.67,5.55,0.24,-5.68,1742249177.6923451
0.41,0.15,0.9,0.49,-0.37,-0.37,0.69,-0.28,-0.69,-0.55,-8.06,3.36,1742249177.806422
0.45,0.11,0.87,0.73,12.57,-6.53,0.71,-0.24,-0.65,-1.16,-14.1,6.35,1742249177.9204218
0.44,0.08,0.88,-2.5,19.65,-11.54,0.74,-0.24,-0.67,-8.06,-20.51,9.58,1742249178.0344498
0.5,0.13,0.87,13.98,19.78,-13.85,0.77,-0.21,-0.53,3.36,-24.48,4.46,1742249178.1483672
0.57,0.02,0.8,12.7,7.51,-7.26,0.77,-0.18,-0.56,4.82,-7.02,4.33,1742249178.262371
0.53,-0.02,0.84,3.91,-2.01,-3.23,0.81,-0.19,-0.57,3.36,-5.86,-4.76,1742249178.376439
0.54,-0.01,0.87,-3.6,-11.41,0.37,0.82,-0.23,-0.53,-17.21,-6.65,-1.22,1742249178.490552
0.5,0.01,0.81,-4.58,-10.86,3.78,0.8,-0.19,-0.52,5.31,-2.2,0.31,1742249178.604843
0.5,-0.05,0.85,5.8,0.12,3.85,0.82,-0.22,-0.55,1.1,2.99,-4.76,1742249178.718813
0.49,0.01,0.88,2.99,-3.36,2.93,0.81,-0.21,-0.54,-9.34,3.3,4.64,1742249178.832314
0.49,0.02,0.87,3.91,-10.07,-4.52,0.82,-0.23,-0.52,-19.41,4.7,7.39,1742249178.946377
0.47,-0.0,0.85,-8.67,-5.19,-14.34,0.83,-0.2,-0.54,-2.69,0.06,0.61,1742249179.0644228
0.45,-0.03,0.89,2.5,-1.4,0.92,0.8,-0.22,-0.54,-0.06,-0.12,-2.44,1742249179.174436
0.45,-0.02,0.88,1.53,0.06,2.5,0.8,-0.23,-0.54,4.88,-0.18,-6.59,1742249179.289349
0.45,-0.01,0.89,2.08,1.59,6.1,0.8,-0.24,-0.54,0.49,2.75,-4.58,1742249179.405366
0.46,-0.0,0.89,-2.38,0.06,2.2,0.8,-0.24,-0.55,1.71,0.43,-0.73,1742249179.516363
0.46,-0.01,0.89,-0.18,0.31,0.31,0.79,-0.24,-0.55,2.75,1.77,-1.71,1742249179.6303658
0.46,-0.01,0.88,-0.43,-1.77,0.98,0.78,-0.24,-0.56,2.32,0.61,0.31,1742249179.747547
0.44,-0.0,0.88,0.92,0.12,0.18,0.79,-0.22,-0.56,6.65,-0.24,-5.86,1742249179.8584478
0.47,-0.01,0.89,1.83,-0.49,6.47,0.78,-0.24,-0.56,1.65,1.28,0.24,1742249179.972121
0.45,0.0,0.89,0.92,-2.2,0.43,0.78,-0.24,-0.56,1.59,0.43,-1.83,1742249180.086227
0.45,0.0,0.89,0.12,-0.49,0.73,0.79,-0.23,-0.57,1.04,0.79,0.37,1742249180.200143
0.45,-0.0,0.88,0.61,-0.79,-0.49,0.78,-0.23,-0.56,-0.43,1.83,-2.38,1742249180.31434
0.45,0.0,0.89,-0.79,-0.55,2.44,0.78,-0.23,-0.56,1.71,2.5,-1.65,1742249180.428262
0.44,0.01,0.89,-0.61,-2.44,1.65,0.78,-0.24,-0.56,0.85,1.65,-2.14,1742249180.544974
0.44,0.01,0.89,0.12,-0.98,1.22,0.78,-0.25,-0.57,1.4,-0.06,-0.43,1742249180.656317
0.44,0.01,0.89,1.46,-0.24,-0.24,0.78,-0.23,-0.57,0.55,0.31,-2.08,1742249180.770303
0.44,0.0,0.89,-0.73,0.06,1.89,0.78,-0.25,-0.57,1.1,1.22,-1.16,1742249180.884314
0.44,0.01,0.89,-0.06,-1.95,0.55,0.77,-0.23,-0.57,0.49,1.28,-1.89,1742249180.9982772
0.44,0.01,0.89,-0.61,-1.28,1.65,0.78,-0.25,-0.58,0.24,0.37,-1.1,1742249181.1122859
0.44,0.03,0.9,1.04,-0.12,-0.31,0.77,-0.24,-0.57,0.73,0.0,-0.85,1742249181.2271261
0.44,0.01,0.89,-0.67,-0.12,0.79,0.77,-0.25,-0.58,0.12,1.34,0.12,1742249181.340178
0.44,0.02,0.89,0.12,-1.46,-0.73,0.77,-0.24,-0.57,0.85,0.85,-0.06,1742249181.454247
0.43,0.0,0.89,0.18,-0.18,-0.24,0.77,-0.25,-0.57,0.67,0.92,-0.85,1742249181.5682921
0.44,0.01,0.89,-0.12,-0.98,0.12,0.77,-0.25,-0.57,-0.37,-0.92,-0.79,1742249181.6849449
0.44,0.01,0.89,-0.55,0.49,0.18,0.76,-0.24,-0.58,-0.85,-0.73,-0.61,1742249181.796476
0.44,0.01,0.89,-0.12,0.06,-0.24,0.76,-0.24,-0.58,-0.31,0.43,0.0,1742249181.91024
0.44,0.02,0.89,0.18,-0.67,-0.55,0.77,-0.24,-0.58,0.0,-0.06,-0.31,1742249182.024262
0.44,0.01,0.9,0.31,0.18,-0.31,0.76,-0.24,-0.58,-0.12,-0.49,0.43,1742249182.1383429
0.44,0.02,0.89,0.85,-0.37,-0.55,0.77,-0.24,-0.59,0.85,-0.06,-1.22,1742249182.252256
0.44,0.01,0.9,-0.18,0.43,0.55,0.76,-0.24,-0.59,1.22,0.55,0.0,1742249182.366071
0.43,0.02,0.89,0.61,-0.61,0.31,0.77,-0.24,-0.59,-0.12,2.26,0.55,1742249182.479281
0.43,0.01,0.89,-0.73,-0.73,-1.1,0.76,-0.24,-0.59,0.24,1.71,1.59,1742249182.593196
0.42,0.02,0.9,0.49,-1.53,-1.4,0.76,-0.24,-0.59,-1.16,0.92,0.43,1742249182.707272
0.43,0.02,0.89,-0.18,-0.24,-1.22,0.77,-0.23,-0.59,-1.46,2.5,0.37,1742249182.8247528
0.43,0.01,0.9,0.18,-1.89,-1.83,0.75,-0.24,-0.59,-5.55,4.09,4.64,1742249182.935175
0.41,0.01,0.9,-2.93,-6.23,-7.32,0.74,-0.24,-0.6,-0.31,1.46,-0.12,1742249183.049372
0.41,0.01,0.9,-0.92,-0.98,-0.92,0.76,-0.23,-0.61,-0.06,0.79,-1.59,1742249183.16429
0.41,0.01,0.91,0.12,0.24,1.28,0.75,-0.23,-0.6,1.34,1.83,0.12,1742249183.2771552
0.41,0.01,0.9,-0.55,-0.55,-0.98,0.74,-0.24,-0.6,-0.12,1.28,-2.2,1742249183.391257
0.41,0.02,0.9,-1.53,0.0,1.22,0.76,-0.24,-0.6,-0.06,-0.98,-1.95,1742249183.505334
0.42,0.01,0.9,0.06,-0.24,0.85,0.75,-0.24,-0.6,-0.18,0.12,-1.71,1742249183.619264
0.42,0.02,0.9,-0.55,0.18,1.28,0.75,-0.25,-0.61,-1.28,1.53,-2.5,1742249183.733294
0.42,0.03,0.91,-1.83,-0.43,0.73,0.74,-0.25,-0.6,0.73,0.06,-1.28,1742249183.847214
0.41,0.02,0.9,-0.98,0.18,0.92,0.75,-0.25,-0.6,0.79,0.85,-2.26,1742249183.965481
0.42,0.03,0.9,0.06,-0.61,1.83,0.75,-0.25,-0.6,-0.79,-0.49,-0.85,1742249184.075369
0.43,0.03,0.89,-0.79,0.0,0.12,0.74,-0.26,-0.6,-0.49,1.16,-0.73,1742249184.189269
0.42,0.03,0.9,-1.04,-1.22,0.18,0.74,-0.25,-0.6,0.31,1.53,0.61,1742249184.3036969
0.42,0.03,0.9,-0.24,-1.59,-0.85,0.74,-0.25,-0.61,-0.55,0.67,-1.04,1742249184.417289
0.41,0.04,0.9,-0.61,-0.24,0.43,0.74,-0.25,-0.61,0.24,0.67,0.43,1742249184.5310988
0.41,0.04,0.9,0.12,-0.92,-0.67,0.74,-0.26,-0.62,-0.37,0.43,-1.53,1742249184.6452649
0.41,0.05,0.91,-0.92,0.67,0.37,0.74,-0.25,-0.62,0.24,0.98,0.49,1742249184.759063
0.4,0.04,0.91,-0.06,-0.31,-0.79,0.73,-0.26,-0.61,-0.31,0.55,-0.43,1742249184.873163
0.41,0.04,0.9,-0.31,-0.31,-0.12,0.73,-0.26,-0.62,-0.31,0.49,-1.16,1742249184.987256
0.41,0.04,0.9,-0.55,0.55,0.24,0.73,-0.26,-0.62,1.04,0.79,-0.73,1742249185.104681
0.41,0.04,0.91,0.24,0.67,0.18,0.73,-0.25,-0.61,0.24,0.67,-1.83,1742249185.21505
0.41,0.04,0.9,-0.37,-0.31,1.4,0.73,-0.26,-0.63,1.34,0.12,-0.73,1742249185.329066
0.41,0.05,0.91,0.98,-0.24,0.55,0.73,-0.26,-0.62,0.31,0.67,-0.61,1742249185.44413
0.41,0.05,0.91,0.18,0.49,0.43,0.73,-0.26,-0.62,-0.24,0.79,-0.12,1742249185.557158
0.41,0.05,0.91,0.24,0.43,-0.31,0.73,-0.26,-0.62,0.61,-0.37,1.22,1742249185.6710222
0.41,0.04,0.9,1.34,-0.18,-1.1,0.72,-0.26,-0.62,0.06,-0.24,-0.79,1742249185.7851362
0.41,0.04,0.9,0.12,0.18,0.31,0.73,-0.27,-0.62,0.79,-0.92,-0.98,1742249185.899161
0.42,0.05,0.9,0.98,0.73,0.85,0.73,-0.26,-0.62,2.14,-2.93,-2.69,1742249186.0132039
0.41,0.03,0.9,3.17,3.3,4.03,0.73,-0.27,-0.63,0.49,0.98,-1.77,1742249186.127077
0.42,0.05,0.91,-0.24,-0.79,1.04,0.73,-0.25,-0.62,0.24,-2.26,-0.73,1742249186.241131
0.41,0.05,0.9,1.04,1.89,0.0,0.74,-0.26,-0.61,0.37,-1.46,-1.04,1742249186.355127
0.43,0.04,0.9,0.85,1.4,0.79,0.74,-0.25,-0.62,-0.18,0.98,-0.18,1742249186.4691598
0.42,0.04,0.9,-0.31,0.31,0.06,0.73,-0.27,-0.62,0.85,-0.73,0.61,1742249186.584929
0.42,0.06,0.9,0.24,0.18,-0.49,0.74,-0.26,-0.61,0.18,0.85,-1.77,1742249186.697079
0.42,0.04,0.9,-0.98,0.0,1.28,0.74,-0.28,-0.62,-0.85,5.25,-1.77,1742249186.8111858
0.43,0.05,0.9,-4.64,-4.03,1.65,0.72,-0.27,-0.63,-1.95,0.79,0.55,1742249186.9250538
0.41,0.06,0.9,-0.85,0.12,-1.59,0.72,-0.26,-0.62,-0.55,-0.31,0.06,1742249187.0391638
0.42,0.06,0.9,0.0,1.34,-0.92,0.72,-0.27,-0.62,0.79,0.12,-0.67,1742249187.1529732
0.43,0.07,0.9,-0.79,0.43,0.92,0.72,-0.27,-0.62,0.67,1.89,-0.92,1742249187.268089
0.42,0.06,0.89,-0.61,-3.42,1.16,0.72,-0.29,-0.63,-1.04,1.34,-2.62,1742249187.384084
0.42,0.07,0.9,-1.71,-0.73,2.32,0.72,-0.28,-0.63,0.12,0.98,0.24,1742249187.494967
0.41,0.07,0.9,-0.92,-0.67,0.0,0.71,-0.28,-0.63,0.24,0.06,-0.55,1742249187.6089642
0.42,0.07,0.9,0.06,0.55,0.31,0.72,-0.27,-0.64,0.67,1.53,-0.18,1742249187.726582
0.41,0.07,0.9,-0.92,-1.28,-0.06,0.71,-0.28,-0.63,1.71,1.04,0.55,1742249187.8369842
0.41,0.07,0.89,0.79,-0.98,0.0,0.72,-0.28,-0.63,-0.06,1.65,-0.98,1742249187.95102
0.41,0.07,0.9,-1.16,-2.38,0.43,0.71,-0.28,-0.64,-0.24,1.22,0.49,1742249188.064961
0.41,0.07,0.91,-0.43,-1.04,-0.85,0.71,-0.27,-0.64,0.18,0.79,0.43,1742249188.178883
0.4,0.07,0.9,0.12,-0.73,-0.73,0.72,-0.28,-0.64,0.12,0.31,-0.49,1742249188.292945
0.4,0.07,0.91,-0.24,-0.98,0.18,0.71,-0.29,-0.64,-6.53,5.62,5.8,1742249188.40694
0.4,0.07,0.91,-4.09,-7.63,-9.89,0.68,-0.27,-0.65,-4.21,5.98,5.31,1742249188.5212328
0.38,0.08,0.91,-2.93,-7.51,-7.93,0.71,-0.26,-0.65,-0.85,5.55,3.23,1742249188.6350029
0.38,0.06,0.92,-1.95,-6.16,-5.49,0.69,-0.26,-0.66,-1.16,2.99,2.01,1742249188.7489579
0.36,0.07,0.92,-0.98,-4.09,-2.62,0.69,-0.25,-0.66,-0.06,1.22,-0.37,1742249188.864724
0.36,0.07,0.92,-0.92,-0.67,-0.49,0.69,-0.27,-0.67,-0.43,1.4,-1.22,1742249188.977103
0.35,0.09,0.92,-0.85,0.31,0.98,0.7,-0.27,-0.66,-0.37,-0.43,-0.37,1742249189.0911639
0.37,0.08,0.93,0.43,-0.37,0.24,0.69,-0.27,-0.66,-0.31,-0.61,-0.61,1742249189.205345
0.35,0.08,0.92,0.79,1.59,0.31,0.68,-0.27,-0.67,-0.55,1.04,0.37,1742249189.318999
0.36,0.08,0.92,-0.92,-0.31,-0.61,0.69,-0.26,-0.66,0.37,-1.28,0.0,1742249189.432849
0.35,0.08,0.92,0.92,1.53,-0.37,0.69,-0.27,-0.67,1.04,-1.65,-1.04,1742249189.547075
0.35,0.09,0.92,1.46,2.5,0.98,0.71,-0.28,-0.66,1.04,-3.78,1.95,1742249189.663914
0.38,0.08,0.92,3.91,2.62,-1.53,0.7,-0.26,-0.65,-1.1,-3.23,-0.12,1742249189.775074
0.38,0.07,0.92,-0.18,1.89,0.43,0.7,-0.27,-0.65,-2.14,0.18,-2.01,1742249189.889034
0.38,0.06,0.92,-0.67,1.4,1.34,0.69,-0.28,-0.67,0.06,0.0,-3.05,1742249190.004608
0.37,0.09,0.92,-0.98,-0.61,3.42,0.7,-0.28,-0.64,0.55,-1.59,-0.55,1742249190.117098
0.38,0.09,0.91,1.65,1.1,0.79,0.7,-0.28,-0.66,-0.61,-0.43,-1.34,1742249190.231099
0.38,0.08,0.92,-0.31,0.18,0.85,0.7,-0.27,-0.65,-1.04,0.24,1.4,1742249190.344828
0.38,0.08,0.91,0.18,-0.43,-1.77,0.69,-0.27,-0.65,-0.06,0.92,-1.04,1742249190.458957
0.38,0.09,0.91,-1.4,-0.37,0.18,0.7,-0.27,-0.66,-0.31,0.79,-1.59,1742249190.572957
0.38,0.09,0.92,-0.92,-0.85,0.49,0.69,-0.28,-0.65,0.18,0.31,-0.49,1742249190.686852
0.38,0.09,0.91,-0.12,-0.61,0.06,0.7,-0.29,-0.66,-0.06,1.16,-0.61,1742249190.8032918
0.38,0.09,0.91,0.0,-0.92,0.31,0.69,-0.28,-0.65,-0.55,-0.55,1.04,1742249190.9151192
0.37,0.09,0.91,0.43,0.79,-1.34,0.7,-0.29,-0.66,-1.1,1.04,-2.26,1742249191.0293708
0.38,0.09,0.92,-1.22,0.73,1.46,0.69,-0.27,-0.65,0.61,-0.49,1.77,1742249191.144228
0.37,0.1,0.91,1.59,-0.61,-1.4,0.7,-0.29,-0.65,-0.55,0.49,-2.81,1742249191.2569852
0.38,0.09,0.91,-0.79,0.85,1.71,0.7,-0.28,-0.66,0.43,0.24,1.22,1742249191.370794
0.37,0.1,0.92,0.67,-1.53,-0.92,0.69,-0.28,-0.64,1.1,-0.55,1.28,1742249191.4849029
0.38,0.09,0.91,2.32,0.49,-0.98,0.69,-0.28,-0.66,-0.67,0.18,-1.89,1742249191.598977
0.37,0.09,0.92,-0.67,0.0,1.34,0.7,-0.28,-0.65,0.43,-1.04,-0.12,1742249191.7129622
0.38,0.1,0.92,0.18,1.22,0.12,0.7,-0.28,-0.64,0.06,0.98,-1.4,1742249191.826889
0.38,0.09,0.91,-0.67,-0.24,0.85,0.7,-0.29,-0.66,-0.12,0.85,0.31,1742249191.941708
0.38,0.1,0.92,-0.61,-0.79,0.0,0.69,-0.28,-0.65,-0.24,-0.37,-0.49,1742249192.0550542
0.37,0.09,0.91,0.43,1.1,-0.37,0.69,-0.29,-0.66,0.06,0.98,-0.61,1742249192.168868
0.38,0.1,0.92,0.0,-0.55,0.92,0.69,-0.26,-0.65,-0.61,-0.24,1.34,1742249192.2828748
0.38,0.08,0.92,1.71,0.67,-1.46,0.69,-0.29,-0.66,-0.12,0.85,-1.71,1742249192.397014
0.39,0.11,0.91,-0.67,0.31,2.08,0.69,-0.28,-0.66,0.24,0.0,-0.43,1742249192.510762
0.37,0.1,0.92,0.06,-0.24,0.31,0.69,-0.29,-0.66,0.0,0.31,0.85,1742249192.6247191
0.37,0.1,0.91,-0.55,-0.67,-0.37,0.69,-0.28,-0.65,-0.98,0.06,-1.46,1742249192.7388859
0.37,0.09,0.92,-1.16,1.1,-0.31,0.69,-0.28,-0.66,-0.31,0.12,0.31,1742249192.85281
0.37,0.1,0.92,-0.12,-0.43,-0.55,0.69,-0.29,-0.65,-0.98,-0.31,-1.53,1742249192.9669352
0.38,0.1,0.9,-0.31,1.16,0.98,0.68,-0.3,-0.66,1.59,1.28,-0.61,1742249193.082004
0.38,0.11,0.91,0.0,-0.61,1.4,0.69,-0.29,-0.66,0.85,1.22,-0.49,1742249193.194787
0.38,0.1,0.92,0.49,-1.1,0.43,0.68,-0.29,-0.66,-1.1,2.08,-0.85,1742249193.3088572
0.37,0.1,0.91,-0.73,-1.04,0.43,0.68,-0.29,-0.67,-0.67,0.18,-1.04,1742249193.425128
0.37,0.12,0.92,-0.73,0.61,0.24,0.68,-0.3,-0.66,0.55,-0.98,1.04,1742249193.5368361
0.38,0.12,0.92,-0.06,-0.31,-0.31,0.68,-0.29,-0.67,-1.04,-1.22,-1.77,1742249193.6509728
0.36,0.1,0.91,0.31,1.59,-0.18,0.68,-0.3,-0.66,0.67,0.24,1.89,1742249193.768048
0.38,0.12,0.92,0.06,-0.79,-0.55,0.68,-0.29,-0.65,-0.12,0.37,-0.31,1742249193.878853
0.37,0.09,0.91,0.73,0.24,-1.22,0.69,-0.3,-0.68,2.08,6.1,2.81,1742249193.992618
0.39,0.12,0.92,0.12,-5.98,-1.04,0.67,-0.27,-0.67,-0.24,2.38,2.44,1742249194.106812
0.35,0.09,0.92,0.43,-3.11,-3.36,0.7,-0.28,-0.67,-6.59,5.43,-2.87,1742249194.220842
0.37,0.08,0.92,-9.22,-0.12,-0.31,0.65,-0.29,-0.68,0.73,0.98,3.48,1742249194.33459
0.35,0.16,0.92,-3.23,-2.01,-1.77,0.66,-0.28,-0.68,0.0,3.78,-1.59,1742249194.4487948
0.36,0.11,0.92,-1.22,-0.31,-0.18,0.65,-0.29,-0.69,3.72,3.66,2.14,1742249194.564227
0.35,0.14,0.92,0.06,-3.6,1.28,0.66,-0.26,-0.69,0.37,0.79,0.49,1742249194.676794
0.33,0.11,0.93,0.18,-1.28,-2.01,0.65,-0.27,-0.7,1.71,2.14,-0.18,1742249194.790813
0.35,0.12,0.92,-0.12,-0.18,0.67,0.65,-0.26,-0.7,-0.73,-0.31,-0.37,1742249194.904973
0.34,0.12,0.92,-0.24,1.83,-0.55,0.65,-0.28,-0.7,-0.92,0.43,-1.04,1742249195.018891
0.36,0.12,0.92,-2.14,3.78,0.49,0.65,-0.27,-0.68,-2.75,2.93,-1.95,1742249195.1328099
0.36,0.12,0.9,-4.33,4.09,0.92,0.65,-0.29,-0.72,-0.37,2.38,-3.3,1742249195.247277
0.36,0.16,0.92,-4.39,1.46,2.75,0.65,-0.3,-0.69,0.73,-2.32,-0.31,1742249195.364465
0.37,0.16,0.91,1.83,2.93,1.71,0.65,-0.27,-0.69,-0.55,2.2,-1.53,1742249195.474894
0.38,0.12,0.91,-0.24,-0.98,0.0,0.65,-0.29,-0.7,-2.38,0.79,-0.37,1742249195.5888069
0.37,0.17,0.9,-3.97,0.12,-0.98,0.64,-0.3,-0.7,-0.73,0.37,0.18,1742249195.705239
0.38,0.16,0.91,-0.98,0.24,-0.61,0.66,-0.3,-0.69,11.47,-7.69,5.31,1742249195.816715
0.37,0.2,0.9,12.39,2.56,-3.36,0.68,-0.26,-0.69,-8.3,0.0,18.55,1742249195.930689
0.39,0.06,0.9,15.62,-3.85,-24.48,0.68,-0.21,-0.68,-14.77,-4.94,5.25,1742249196.0447319
0.35,0.02,0.93,-4.64,9.22,-18.43,0.67,-0.21,-0.64,-3.23,4.94,-3.36,1742249196.1587782
0.39,0.04,0.89,-11.54,3.17,-5.07,0.66,-0.23,-0.71,4.21,7.69,-16.78,1742249196.272646
0.35,0.04,0.89,-10.01,3.17,9.52,0.63,-0.31,-0.67,-6.35,1.95,-24.48,1742249196.386792
0.37,0.1,0.87,-15.38,7.93,17.52,0.64,-0.42,-0.71,-4.09,3.66,-18.19,1742249196.502379
0.45,0.23,0.88,-16.3,2.75,5.74,0.61,-0.44,-0.74,-10.99,-5.8,-7.26,1742249196.614843
0.48,0.29,0.9,-10.25,7.87,-1.83,0.6,-0.43,-0.65,-13.85,-9.46,-10.07,1742249196.728848
0.45,0.24,0.86,-9.03,19.53,-0.79,0.62,-0.47,-0.63,-10.74,-3.54,-8.85,1742249196.844733
0.5,0.24,0.82,-8.12,13.61,0.06,0.6,-0.49,-0.66,-7.51,-2.75,-3.23,1742249196.956791
0.47,0.26,0.86,-6.84,3.23,-3.91,0.62,-0.48,-0.63,-10.56,-4.58,5.37,1742249197.070782
0.53,0.26,0.82,-0.24,3.85,-7.69,0.63,-0.47,-0.59,-14.34,-2.5,3.91,1742249197.184799
0.49,0.22,0.82,-4.46,1.53,-14.34,0.63,-0.5,-0.62,-0.18,7.14,1.95,1742249197.2985868
0.57,0.27,0.81,-4.76,0.79,-1.34,0.61,-0.47,-0.61,6.41,6.65,3.97,1742249197.412468
0.5,0.25,0.8,0.18,-8.79,0.61,0.63,-0.48,-0.62,7.32,7.93,8.73,1742249197.525478
0.51,0.24,0.83,1.71,-7.69,-3.48,0.62,-0.47,-0.65,4.64,6.53,13.24,1742249197.6394439
0.52,0.26,0.84,2.44,-9.58,-6.04,0.62,-0.39,-0.65,7.26,4.76,15.75,1742249197.752417
0.46,0.21,0.84,6.84,-6.77,-8.91,0.63,-0.37,-0.66,4.21,4.46,9.03,1742249197.865439
0.45,0.17,0.84,4.58,-7.26,-8.0,0.63,-0.38,-0.71,8.61,5.0,7.87,1742249197.9794712
0.45,0.2,0.89,4.94,-6.77,-1.46,0.62,-0.32,-0.67,13.61,2.56,13.55,1742249198.093465
0.42,0.19,0.88,11.78,-7.51,-2.93,0.6,-0.25,-0.66,11.35,-0.31,1.22,1742249198.206578
0.37,0.11,0.85,11.84,-7.45,3.85,0.66,-0.28,-0.66,3.6,-8.54,-5.92,1742249198.324515
0.38,0.11,0.85,8.12,2.08,8.3,0.69,-0.31,-0.68,-0.24,-4.33,-11.72,1742249198.434817
0.47,0.14,0.9,-5.8,12.57,11.29,0.65,-0.36,-0.67,-2.5,0.06,-11.23,1742249198.5486898
0.45,0.16,0.9,-2.81,4.94,13.61,0.64,-0.33,-0.68,-3.05,4.39,4.7,1742249198.6641438
0.48,0.2,0.82,-1.16,4.46,1.71,0.64,-0.37,-0.66,-17.4,-17.94,8.97,1742249198.7766988
0.44,0.17,0.91,16.48,19.23,-10.5,0.65,-0.31,-0.68,-16.11,-2.81,4.15,1742249198.8907
0.49,0.12,0.83,-3.11,-3.23,-15.5,0.68,-0.38,-0.66,-14.83,-5.55,-4.88,1742249199.005085
0.47,0.14,0.84,-10.19,15.01,3.11,0.69,-0.37,-0.63,-4.15,-5.0,-1.04,1742249199.118689
0.54,0.17,0.86,-4.82,14.77,1.22,0.7,-0.36,-0.58,5.13,-1.59,0.85,1742249199.232594
0.56,0.15,0.81,2.5,-5.86,3.05,0.68,-0.33,-0.63,4.09,-1.65,-5.0,1742249199.346564
0.5,0.16,0.83,5.8,-0.67,7.69,0.72,-0.37,-0.64,2.75,-3.85,-5.07,1742249199.4605792
0.53,0.17,0.81,2.08,0.06,16.85,0.69,-0.4,-0.61,3.72,-5.07,-3.91,1742249199.5747242
0.52,0.19,0.83,3.72,4.88,10.56,0.7,-0.41,-0.58,-1.4,-3.42,-2.87,1742249199.688688
0.54,0.16,0.82,6.23,5.25,-0.79,0.7,-0.35,-0.6,0.18,-2.38,1.89,1742249199.8038158
0.55,0.14,0.83,-6.16,8.97,-12.15,0.71,-0.34,-0.54,-5.25,6.16,7.08,1742249199.916598
0.56,0.16,0.79,-3.42,13.18,-7.26,0.82,0.01,-0.35,-37.48,73.43,-22.71,1742249200.0305731
0.49,0.27,0.75,0.18,-2.26,7.45,0.52,-0.22,-0.93,-156.31,-21.97,-177.92,1742249200.144671
0.46,0.04,0.81,52.19,20.69,-27.1,-0.09,-0.64,-0.14,-412.11,-242.37,-148.01,1742249200.2587361
0.6,-0.0,0.76,7.26,-17.46,-13.55,-0.71,-0.77,1.29,-267.09,-115.23,-29.17,1742249200.37268
0.68,0.02,0.84,-2.93,-15.32,21.0,-0.16,-0.45,1.09,-5.68,34.79,-0.12,1742249200.486568
0.54,-0.06,0.81,-17.03,18.01,27.34,0.08,-0.43,0.89,-57.5,14.22,-34.48,1742249200.6004758
