L-AccX,L-AccY,L-AccZ,L-GyrX,L-GyrY,L-GyrZ,R-AccX,R-AccY,R-AccZ,R-GyrX,R-GyrY,R-GyrZ,timestamp
0.48,0.49,0.71,5.68,11.05,11.54,-0.09,-0.39,1.06,-21.18,-61.95,-19.53,1742249201.97271
0.51,0.5,0.71,-2.26,10.56,-2.44,-0.39,-0.56,0.97,430.66,58.78,-13.92,1742249202.08579
0.63,0.58,0.74,-14.22,4.39,-26.55,-0.31,-1.34,-0.34,413.39,21.18,99.91,1742249202.1963918
0.65,0.43,0.61,-4.46,6.65,-54.87,0.12,-0.54,-0.48,73.43,-10.56,194.52,1742249202.310364
0.55,0.48,0.5,-27.28,-55.42,-29.6,0.45,-0.18,-0.72,32.84,36.38,57.01,1742249202.426456
0.42,0.61,0.9,-49.07,-93.57,-52.0,0.48,-0.73,-0.3,-59.2,-92.1,26.61,1742249202.5374432
0.39,0.35,0.84,-89.72,-35.22,-67.87,1.02,-0.7,-0.39,21.12,23.25,26.61,1742249202.651378
0.36,0.31,0.28,-26.43,-55.6,-21.97,0.32,-0.56,-0.48,23.74,67.93,31.13,1742249202.76959
0.22,0.47,0.94,-120.73,-29.11,-10.99,0.3,-0.36,-0.81,-19.41,3.72,-0.92,1742249202.878446
0.81,0.34,1.13,3.48,7.02,10.25,0.75,-0.65,-0.71,2.32,-139.16,-42.97,1742249202.992455
0.56,0.32,0.84,22.46,41.56,-16.78,0.95,-0.76,-0.21,-26.86,50.9,39.79,1742249203.10636
0.4,0.36,0.25,0.31,42.36,-28.56,0.5,-0.45,-0.26,54.87,92.77,29.54,1742249203.220244
0.48,0.25,0.63,-143.8,-46.75,10.68,0.03,-0.28,-0.96,24.6,76.84,48.58,1742249203.334313
0.89,0.47,0.91,-45.9,0.43,-6.96,0.42,-0.7,-0.57,31.25,-143.01,-127.62,1742249203.448493
0.74,0.31,0.88,33.57,-23.5,9.58,1.29,-0.73,0.2,8.0,31.68,10.25,1742249203.5659351
0.3,0.26,0.26,23.44,22.89,-19.29,0.97,-0.56,-0.41,3.72,67.57,16.54,1742249203.675244
0.52,-0.16,0.72,-49.99,-65.55,70.5,-0.14,-0.27,-1.29,0.79,79.47,38.82,1742249203.792165
0.76,0.34,1.08,25.76,-49.01,34.06,0.48,-0.43,-0.22,-2.99,-131.77,-97.47,1742249203.9070048
0.61,0.41,0.85,-4.15,-8.54,33.63,1.18,-0.76,-0.01,5.07,19.17,-2.93,1742249204.0173812
0.49,0.36,0.35,27.77,20.45,11.6,0.81,-0.66,-0.29,41.2,60.79,2.08,1742249204.131309
0.54,0.09,0.89,41.75,-20.75,9.09,-0.14,-0.14,-1.26,-32.23,50.72,100.16,1742249204.24975
0.77,0.35,0.92,113.83,-10.44,51.7,0.24,-0.56,-0.14,-2.08,-185.49,-57.13,1742249204.359494
0.61,0.4,0.96,-50.29,37.35,-13.79,1.68,-0.85,0.45,-7.45,-3.54,33.51,1742249204.4734662
0.54,0.37,0.39,25.7,36.5,-28.08,0.7,-0.65,-0.43,24.48,70.25,39.18,1742249204.587382
0.69,0.42,0.55,126.1,-42.72,3.05,0.06,-0.24,-1.05,-32.04,90.03,71.17,1742249204.702077
0.53,0.5,0.87,28.69,-41.02,17.33,0.17,-0.39,-0.81,-17.52,-151.55,-58.96,1742249204.815488
0.57,0.49,1.02,-48.1,-0.98,12.7,1.46,-0.9,0.26,-12.51,-62.07,-6.41,1742249204.929373
0.44,0.47,0.57,-50.66,35.16,-33.81,0.61,-0.77,-0.2,16.42,75.13,44.86,1742249205.0477388
0.63,0.35,0.46,79.47,54.26,-34.73,-0.01,-0.37,-1.14,56.76,101.81,23.07,1742249205.157272
0.49,0.56,0.75,1.1,-61.28,15.87,0.08,-0.36,-1.09,3.78,-109.44,-71.59,1742249205.271351
0.55,0.25,1.21,-24.84,6.84,-6.9,1.11,-0.66,-0.03,-41.14,-78.25,-18.68,1742249205.387688
0.66,0.24,0.51,-95.52,32.65,-30.03,0.85,-0.63,-0.44,35.34,7.87,4.21,1742249205.4991722
0.61,0.35,0.52,25.15,45.65,-29.54,0.39,-0.53,-0.73,2.75,88.38,46.02,1742249205.612214
0.57,0.68,0.48,-55.24,-24.72,-16.17,0.25,-0.25,-0.88,12.76,-48.1,-33.69,1742249205.7299619
0.63,0.32,1.25,-18.49,0.67,-22.89,1.07,-0.47,-0.2,-35.28,-88.44,-8.79,1742249205.8404858
0.38,0.39,0.82,-49.8,36.8,-31.8,1.0,-0.5,-0.16,-42.3,56.88,35.83,1742249205.954329
0.51,0.49,0.45,17.46,6.35,-26.55,0.29,-0.45,-0.76,67.26,81.79,-23.86,1742249206.068303
0.29,0.74,0.73,-86.91,-50.23,19.35,0.29,-0.19,-1.09,-55.05,-12.82,-6.16,1742249206.188283
0.74,0.23,1.29,-0.49,-11.47,1.59,0.78,-0.59,-0.52,-8.54,-137.21,-39.25,1742249206.296442
0.49,0.39,0.84,-48.34,48.03,-4.94,1.12,-0.51,-0.13,20.87,44.07,40.59,1742249206.41023
0.41,0.42,0.21,-1.83,18.98,-21.73,0.56,-0.39,-0.47,83.19,64.58,-32.59,1742249206.527335
0.55,0.04,0.79,-116.7,-50.11,31.01,0.2,-0.22,-1.05,-35.58,29.48,39.86,1742249206.638338
0.77,0.22,1.08,29.79,-32.41,2.5,0.33,-0.82,-0.34,-13.67,-115.66,-67.57,1742249206.752515
0.57,0.38,0.83,7.57,37.05,16.85,1.47,-0.44,0.34,-59.27,30.7,47.24,1742249206.8689861
0.43,0.43,0.34,-52.06,-1.59,-20.08,0.78,-0.38,-0.31,38.09,94.3,11.72,1742249206.9801831
0.6,-0.01,0.67,56.21,-18.25,19.78,0.1,-0.19,-1.09,14.22,42.85,26.92,1742249207.094209
0.64,0.3,0.89,13.06,-45.47,11.11,0.3,-0.39,-0.48,1.83,-162.29,-81.48,1742249207.209419
0.56,0.46,0.92,-22.83,-11.11,28.81,1.35,-0.76,0.17,-17.33,-56.03,-33.51,1742249207.3292239
0.55,0.3,0.47,-69.95,26.25,-16.24,0.85,-0.71,-0.17,10.68,65.55,35.77,1742249207.436112
0.68,0.4,0.65,67.93,109.07,-11.23,-0.0,-0.45,-1.03,48.16,72.14,16.91,1742249207.550208
0.66,0.58,0.34,-40.22,-83.31,11.41,0.11,-0.45,-0.91,3.11,-142.4,-59.63,1742249207.66873
0.46,0.4,1.18,-13.31,1.71,0.73,1.01,-0.67,-0.03,1.71,-81.91,-31.07,1742249207.778421
0.7,0.35,0.48,-46.51,59.51,-19.96,0.96,-0.62,-0.08,13.12,69.34,39.98,1742249207.892192
0.88,0.51,0.43,32.47,23.38,-25.33,0.18,-0.45,-0.83,57.56,108.64,33.69,1742249208.009325
0.56,0.53,0.33,-35.89,-84.05,17.58,0.34,-0.3,-1.07,-36.93,-29.66,-8.73,1742249208.1291788
0.62,0.27,1.34,-12.45,-20.51,-5.92,0.78,-0.7,-0.14,-59.33,-106.08,-54.93,1742249208.23442
0.41,0.36,0.77,-73.0,55.73,0.0,0.96,-0.78,-0.3,-15.69,82.58,60.3,1742249208.3495412
0.5,0.66,0.09,41.08,-15.44,-19.04,0.43,-0.38,-0.63,45.65,71.47,10.01,1742249208.4700701
0.38,0.59,0.69,-96.8,-69.46,0.67,0.41,-0.26,-1.04,-43.09,-54.93,-35.71,1742249208.576396
0.63,0.15,1.24,-27.89,-35.03,-13.0,0.68,-0.96,-0.07,-6.29,-148.13,-63.96,1742249208.6904252
0.49,0.38,0.74,2.81,60.36,0.37,0.98,-0.62,-0.28,-15.32,48.65,39.61,1742249208.808664
0.47,0.38,0.2,-25.88,-12.45,-13.24,0.34,-0.68,-0.48,54.81,82.28,25.82,1742249208.918172
0.44,0.5,0.82,-68.48,-26.79,10.07,0.25,-0.26,-0.99,27.16,-1.71,-49.99,1742249209.032314
0.73,0.23,1.2,-26.43,-51.76,6.16,0.71,-0.6,-0.67,13.67,-143.55,-49.56,1742249209.1493812
0.52,0.35,0.81,12.51,34.48,-15.99,1.07,-0.64,-0.11,-23.07,49.01,43.46,1742249209.260205
0.59,0.41,0.36,2.01,19.29,-7.02,0.51,-0.52,-0.36,54.87,85.57,15.69,1742249209.374131
0.67,0.15,0.65,-13.98,-72.51,22.28,0.16,-0.19,-1.1,-44.19,76.9,79.53,1742249209.490203
0.68,0.23,0.89,3.23,-41.56,2.93,0.3,-0.45,-0.49,-20.94,-147.03,-57.07,1742249209.610523
0.56,0.5,0.92,-15.93,5.62,5.31,1.41,-0.86,0.22,-39.31,-21.73,10.31,1742249209.7160802
0.64,0.37,0.49,-57.56,30.64,-13.55,0.85,-0.61,-0.52,39.25,133.73,45.17,1742249209.830401
0.66,0.42,0.34,62.62,-38.39,-18.25,-0.12,-0.36,-1.29,6.71,97.11,72.27,1742249209.950906
0.44,0.33,0.71,24.96,-111.94,12.7,0.13,-0.32,-0.91,-10.19,-171.33,-100.89,1742249210.0583308
0.31,0.46,1.07,-49.44,0.37,-16.11,1.25,-0.75,-0.05,-33.08,-106.2,-39.37,1742249210.172318
0.45,0.35,0.76,-25.45,77.94,-28.56,0.96,-0.58,-0.2,-35.34,38.76,17.58,1742249210.294862
0.64,0.32,0.5,11.47,37.9,-18.43,-0.07,-0.54,-0.9,49.87,115.23,9.46,1742249210.400154
0.42,0.58,0.6,-88.93,-48.65,28.2,0.31,-0.24,-1.22,63.96,-11.41,-42.54,1742249210.5142348
0.59,0.51,1.17,-4.52,-6.9,-1.71,0.63,-0.8,-0.12,-70.31,-163.76,-39.06,1742249210.630974
0.24,0.36,1.05,15.81,49.62,6.1,1.04,-0.77,-0.26,25.51,60.18,6.96,1742249210.741951
0.45,0.53,0.21,-5.62,39.49,-3.36,0.23,-0.51,-0.54,69.52,106.26,-29.66,1742249210.856102
0.53,0.06,0.66,-112.37,-109.19,47.12,0.01,-0.25,-1.14,22.22,44.92,19.17,1742249210.971658
0.56,0.34,1.04,-0.67,-31.49,2.81,0.6,-0.62,-0.59,-32.23,-174.26,-65.06,1742249211.0915232
0.44,0.43,0.91,21.97,32.23,-3.36,1.19,-0.69,-0.11,-45.96,66.1,82.64,1742249211.198051
0.45,0.47,0.39,72.2,45.35,-5.55,0.71,-0.36,-0.58,38.21,142.03,42.24,1742249211.312074
0.63,0.22,0.59,24.9,-76.48,-1.22,-0.28,-0.17,-1.3,1.77,34.85,34.79,1742249211.431287
0.56,0.44,0.82,55.6,-38.94,-19.84,0.49,-0.58,-0.2,-38.15,-133.67,-56.88,1742249211.540985
0.3,0.44,0.93,-35.03,14.04,-11.05,1.16,-0.57,-0.31,-15.5,32.71,43.21,1742249211.65414
0.33,0.52,0.61,12.57,55.79,-21.06,0.61,-0.44,-0.42,39.86,61.83,0.55,1742249211.774475
0.6,0.16,0.74,23.93,-3.85,8.54,0.09,-0.24,-1.05,-19.96,25.33,26.12,1742249211.8913321
0.59,0.27,1.01,66.53,-18.19,11.47,0.62,-0.57,-0.45,-14.47,-99.24,-16.36,1742249211.9962869
0.36,0.46,0.92,-7.2,9.16,-2.87,1.38,-0.73,0.24,-31.62,-7.02,18.43,1742249212.111798
0.34,0.45,0.69,6.04,64.09,-15.5,0.88,-0.62,-0.35,24.29,108.34,11.66,1742249212.233145
0.57,0.27,0.71,129.64,53.04,-13.67,0.04,-0.41,-1.09,-6.35,95.34,46.57,1742249212.337989
0.48,0.5,0.84,-18.37,-75.38,15.08,0.24,-0.3,-0.51,-16.72,-140.75,-45.78,1742249212.4523442
0.41,0.4,1.09,-7.45,16.24,-11.9,1.25,-0.92,0.13,8.61,-89.42,-51.94,1742249212.571382
0.54,0.38,0.62,-43.95,34.24,-20.02,0.92,-0.73,-0.31,21.55,63.42,18.01,1742249212.67991
0.62,0.36,0.29,-16.85,29.36,-18.68,0.2,-0.54,-0.83,19.65,84.17,40.1,1742249212.795684
0.44,0.69,0.75,-108.52,-35.58,20.39,0.19,-0.25,-1.02,54.69,-48.1,-46.57,1742249212.9118211
0.64,0.22,0.99,-9.22,-14.28,-0.24,0.76,-0.64,0.03,-45.59,-143.43,-57.13,1742249213.032524
0.49,0.25,0.88,42.36,22.95,2.81,1.18,-0.63,-0.32,-13.73,81.67,53.04,1742249213.1360269
0.44,0.37,0.49,7.45,30.21,-9.52,0.29,-0.36,-0.38,89.78,90.82,-29.85,1742249213.254505
0.65,-0.08,0.69,-53.89,-89.23,45.53,0.08,-0.15,-1.04,-11.6,45.78,29.66,1742249213.3724082
0.61,0.16,1.03,75.01,-34.55,7.26,0.46,-0.47,-0.71,-6.77,-129.58,-93.81,1742249213.478205
0.54,0.41,0.87,-6.65,7.63,2.93,1.16,-0.6,-0.18,-18.86,68.42,56.46,1742249213.5923462
0.38,0.5,0.59,53.22,25.15,13.73,0.8,-0.69,-0.64,6.53,65.43,34.97,1742249213.7127051
0.62,0.29,0.76,117.68,45.41,-12.76,-0.06,-0.19,-1.18,-24.66,47.36,65.25,1742249213.820029
0.46,0.43,0.75,19.17,-51.82,-2.87,0.42,-0.46,-0.57,-12.76,-141.24,-57.07,1742249213.934195
0.41,0.44,1.15,-22.89,14.59,-12.7,1.45,-0.74,0.27,-33.2,-17.82,30.64,1742249214.052188
0.52,0.29,0.69,2.44,76.54,-30.58,0.96,-0.6,-0.41,18.01,98.69,16.66,1742249214.171691
0.6,0.29,0.64,55.85,73.12,-37.84,0.25,-0.31,-0.95,-39.31,58.78,49.13,1742249214.276435
0.65,0.3,0.69,2.75,-62.68,29.54,0.34,-0.55,-0.71,-2.93,-106.2,-53.77,1742249214.392595
0.53,0.24,1.03,-32.65,-14.04,6.47,1.25,-0.8,0.21,-54.08,-61.52,10.8,1742249214.5118039
0.34,0.56,0.9,-35.52,66.77,-18.25,0.72,-0.62,0.09,27.4,80.63,15.56,1742249214.617683
0.64,0.37,0.19,-5.07,54.57,-29.17,0.3,-0.5,-0.77,-15.14,64.03,36.74,1742249214.733952
0.55,0.58,0.42,-17.46,-61.04,16.54,0.4,-0.56,-0.57,21.55,-90.7,-46.81,1742249214.852879
0.71,0.3,1.18,-55.05,-20.14,-0.79,0.9,-0.69,0.03,-7.93,-78.55,-16.78,1742249214.958988
0.57,0.38,0.72,-12.45,50.17,-17.4,1.04,-0.66,0.03,6.23,25.63,32.35,1742249215.072714
0.58,0.31,0.32,-4.94,38.39,-13.92,0.5,-0.5,-0.64,-18.86,86.85,36.13,1742249215.191574
0.59,0.3,0.62,-61.89,-70.62,38.15,0.44,-0.35,-0.6,-3.97,-77.58,-33.63,1742249215.305173
0.73,0.19,1.0,-14.1,-53.71,13.67,0.89,-0.66,0.07,10.62,-144.47,-24.72,1742249215.41644
0.65,0.28,0.77,-3.91,53.04,-8.06,1.13,-0.58,-0.06,30.76,43.88,8.12,1742249215.532068
0.7,0.37,0.27,5.92,35.22,-21.0,0.59,-0.41,-0.47,2.44,84.66,35.22,1742249215.6517398
0.73,0.25,0.45,-26.55,-78.67,19.47,0.48,-0.34,-0.68,-15.2,-48.16,-35.46,1742249215.7561269
0.77,0.17,0.97,2.01,-55.79,-0.18,0.78,-0.53,-0.44,-23.07,-73.18,-30.21,1742249215.871966
0.64,0.28,0.81,19.29,47.85,-7.2,1.13,-0.55,-0.13,-4.94,34.85,14.53,1742249215.991945
0.54,0.32,0.51,2.62,52.43,-9.64,0.57,-0.46,-0.35,27.77,69.76,10.56,1742249216.097833
0.74,0.07,0.35,-10.07,-30.64,11.78,0.49,-0.39,-0.78,-21.79,-14.04,-17.21,1742249216.212394
0.72,0.28,1.04,16.66,-25.51,-1.83,0.65,-0.54,-0.39,-14.16,-61.28,-30.27,1742249216.331137
0.62,0.27,0.81,2.99,22.03,5.25,1.21,-0.65,0.26,-12.08,15.08,7.57,1742249216.439839
0.6,0.37,0.59,-5.68,59.57,-0.61,0.87,-0.53,-0.31,31.31,76.97,3.6,1742249216.553934
0.82,0.35,0.65,68.6,23.07,2.01,0.21,-0.38,-1.02,19.65,11.9,-20.81,1742249216.670732
0.68,0.39,0.65,-48.16,-80.38,6.84,0.66,-0.58,-0.15,10.62,-89.54,-52.31,1742249216.782037
0.59,0.34,0.95,2.75,4.09,18.13,1.25,-0.64,0.34,-27.77,-14.95,2.75,1742249216.8958132
0.8,0.23,0.5,0.85,69.27,-16.6,0.71,-0.76,-0.17,15.99,82.34,18.86,1742249217.012109
0.84,0.32,0.46,47.24,-29.05,0.85,0.29,-0.34,-0.86,-24.35,72.75,49.5,1742249217.1317341
0.67,0.55,0.62,33.26,-50.48,-3.97,0.45,-0.51,-0.35,-13.49,-47.73,-51.45,1742249217.2379909
0.57,0.45,0.94,-21.67,-28.08,-3.23,1.17,-1.06,0.17,11.78,0.79,-20.51,1742249217.352234
0.66,0.33,0.66,2.62,33.14,-18.13,0.7,-0.76,-0.23,-13.73,72.63,51.94,1742249217.4719942
0.59,0.48,0.37,-17.4,-20.26,-5.55,0.45,-0.53,-0.67,-0.24,84.53,55.91,1742249217.579835
0.52,0.56,1.0,-132.39,-59.88,18.68,0.32,-0.36,-0.72,20.81,-81.79,-51.27,1742249217.6939468
0.66,0.18,0.96,-2.87,-53.96,15.69,0.68,-0.77,-0.04,-64.21,-80.63,-37.41,1742249217.810765
0.56,0.27,0.76,13.73,40.41,0.18,1.12,-0.71,-0.26,16.48,40.95,27.65,1742249217.931743
0.53,0.27,0.45,1.16,52.61,4.03,0.55,-0.49,-0.37,28.08,40.47,29.91,1742249218.035745
0.76,0.37,0.51,94.48,-11.11,-21.79,0.28,-0.43,-1.02,-14.34,8.3,28.14,1742249218.151805
0.75,0.27,0.89,2.81,-75.62,-5.37,0.54,-0.36,-0.55,-13.24,-90.64,-29.6,1742249218.2743602
0.54,0.35,0.99,-7.45,-38.09,-49.13,1.29,-0.73,0.08,-43.52,9.7,24.11,1742249218.3777359
0.5,0.18,0.7,30.52,29.85,-47.24,0.99,-0.68,-0.26,0.31,78.25,56.21,1742249218.491609
0.57,0.32,0.63,55.97,67.99,-16.42,0.23,-0.19,-0.89,-7.69,76.35,45.59,1742249218.611574
0.61,0.29,0.59,-72.94,-65.8,15.26,0.56,-0.44,-0.3,-10.62,-82.09,-79.1,1742249218.7199302
0.58,0.26,1.06,-43.58,-28.14,11.23,1.39,-1.05,0.44,-25.39,-21.3,-14.53,1742249218.834018
0.63,0.34,0.64,-35.22,54.02,34.48,0.68,-0.63,-0.26,18.07,48.46,54.38,1742249218.950725
0.53,0.54,0.25,12.51,13.79,0.67,0.41,-0.41,-0.61,23.93,58.29,19.17,1742249219.071127
0.53,0.64,1.03,-90.33,-36.32,0.98,0.46,-0.32,-0.66,-56.34,-26.43,-45.41,1742249219.17601
0.58,0.07,0.95,-22.77,-35.95,-16.66,0.74,-0.76,-0.21,4.03,-93.57,-49.07,1742249219.295104
0.69,0.43,0.86,-23.25,-4.03,14.16,1.13,-0.71,0.15,-13.92,25.21,41.5,1742249219.410463
0.62,0.39,0.62,24.78,52.61,-13.67,0.62,-0.61,-0.29,33.57,78.31,36.13,1742249219.517785
0.62,0.34,0.68,66.35,36.74,-23.07,0.19,-0.29,-1.19,0.43,-90.45,-1.34,1742249219.6318212
0.55,0.19,0.91,23.62,-79.22,-8.61,0.87,-0.74,-0.13,-12.57,-60.97,-74.58,1742249219.753084
0.58,0.25,0.91,-16.17,43.82,9.03,1.12,-0.77,-0.07,12.39,84.17,39.73,1742249219.859757
0.56,0.39,0.38,18.07,43.09,24.11,0.86,-0.51,-0.31,17.15,32.96,19.29,1742249219.9737442
0.66,0.25,0.69,46.57,-18.98,-5.25,0.19,-0.47,-1.11,-16.05,-25.82,-13.37,1742249220.0913322
0.57,0.35,0.42,-36.5,-93.14,11.78,0.63,-0.42,-0.46,-3.66,-90.88,-63.96,1742249220.211676
0.54,0.47,1.07,-20.08,-7.45,-2.75,1.23,-0.71,0.14,-12.94,13.67,23.86,1742249220.3155909
0.47,0.33,0.68,-3.66,77.45,-8.97,0.96,-0.61,-0.4,28.93,17.27,3.48,1742249220.432023
0.64,0.36,0.64,71.35,60.67,-21.55,0.06,-0.4,-1.11,12.76,24.9,54.08,1742249220.5509539
0.62,0.34,0.12,-7.69,-47.06,10.31,0.48,-0.41,-0.64,34.55,-57.19,-51.51,1742249220.6579351
0.86,0.16,1.55,0.37,-20.75,-40.16,1.52,-0.77,0.59,-30.33,8.36,24.29,1742249220.773988
0.46,0.4,0.8,6.77,74.52,23.99,0.62,-0.61,-0.5,45.59,63.9,56.03,1742249220.89143
0.5,0.48,-0.04,89.48,-33.2,-35.83,0.22,-0.38,-0.83,15.56,63.23,34.12,1742249220.999646
0.52,0.34,1.31,-58.84,-53.34,-1.16,0.33,-0.26,-0.93,-4.27,-104.43,-78.37,1742249221.113846
0.74,0.04,1.25,-24.72,-49.13,-3.42,1.24,-0.71,0.09,-7.81,-70.62,-36.32,1742249221.232716
0.52,0.35,0.97,54.87,46.63,19.35,1.24,-0.69,-0.01,-16.66,81.97,45.84,1742249221.3512042
0.5,0.23,0.39,-24.35,55.3,-3.85,0.33,-0.41,-0.33,83.92,18.01,5.37,1742249221.4556081
0.6,0.2,0.23,32.59,-39.37,11.78,0.29,-0.04,-1.06,-48.4,29.11,36.56,1742249221.571171
0.64,0.4,0.73,34.42,-94.36,-16.72,0.44,-0.42,-0.15,-22.58,-114.2,-70.92,1742249221.691108
0.65,0.16,1.16,-21.3,-1.22,-8.42,1.67,-0.6,0.32,-41.02,40.22,27.95,1742249221.79757
0.51,0.17,0.63,-13.0,74.46,-9.03,0.86,-0.72,-0.33,41.63,36.8,15.2,1742249221.911829
0.6,0.53,0.43,9.77,23.99,-39.61,0.09,-0.31,-1.02,-45.84,85.21,75.01,1742249222.030615
0.32,0.45,0.75,-112.85,-37.96,47.67,0.4,-0.37,-0.7,-3.23,-122.68,-80.38,1742249222.1398258
0.88,0.19,1.49,3.54,-33.51,7.51,1.0,-0.48,-0.04,-9.77,-66.04,-11.23,1742249222.253802
0.38,0.31,0.9,77.21,73.67,-9.34,1.41,-0.6,0.01,-21.79,55.42,54.5,1742249222.371244
0.37,0.37,0.46,-5.68,40.04,-16.66,0.27,-0.58,-0.37,108.09,32.53,-0.61,1742249222.4806368
0.73,0.12,0.47,88.26,-68.24,16.72,0.38,-0.18,-0.92,-68.12,16.48,-4.46,1742249222.594709
0.69,0.33,1.01,47.91,-58.47,14.1,0.74,-0.65,-0.46,-32.65,-104.43,-42.54,1742249222.7117271
0.58,0.34,1.03,-28.93,11.66,-0.85,1.4,-0.41,0.3,15.93,19.71,24.48,1742249222.831595
0.47,0.35,0.73,16.05,93.99,-21.73,0.7,-0.63,-0.24,16.54,55.18,9.52,1742249222.9354692
0.64,0.17,0.42,104.61,-22.46,-16.11,0.29,-0.24,-1.11,-13.06,62.44,47.97,1742249223.051595
0.53,0.54,0.21,-16.3,-51.57,6.35,0.47,-0.44,-0.5,-10.86,-79.53,-31.25,1742249223.171259
0.92,0.1,1.35,-9.7,-25.33,-10.8,1.27,-0.96,0.41,-25.39,-56.7,16.42,1742249223.2766058
0.52,0.27,0.85,29.72,71.35,-14.77,0.78,-0.38,-0.02,-23.68,145.63,71.04,1742249223.391844
0.57,0.2,0.18,-9.16,44.49,-15.44,0.61,-0.06,-0.57,122.31,62.81,-24.78,1742249223.5118551
0.47,-0.2,0.63,-98.08,-71.29,47.55,0.54,-0.02,-0.8,-71.47,47.97,-24.11,1742249223.618739
0.62,0.14,0.97,10.25,-78.06,-7.63,0.43,-0.67,-0.67,-47.55,-93.69,-77.7,1742249223.7331882
0.62,0.29,0.85,-42.42,-11.11,27.47,1.6,-0.84,0.3,-7.45,-42.66,14.71,1742249223.8515341
0.48,0.25,0.81,2.75,70.37,-7.32,0.66,-0.7,-0.23,37.66,107.54,23.32,1742249223.960523
0.52,0.4,0.19,-99.43,44.92,14.34,-0.06,-0.52,-1.05,66.22,65.67,10.44,1742249224.0746188
0.61,-0.15,1.02,-77.82,-46.57,53.65,0.24,-0.25,-0.9,-64.58,-99.37,-31.68,1742249224.191078
0.71,0.07,1.56,20.45,-53.16,-16.05,1.06,-1.04,0.31,24.48,-95.95,-44.62,1742249224.310475
0.57,0.45,0.97,44.37,78.92,13.24,1.25,-0.66,0.08,-49.62,87.04,97.35,1742249224.416499
0.41,0.24,0.3,-63.23,25.21,-5.8,0.32,-0.24,-0.08,10.25,119.45,0.06,1742249224.5319521
0.67,0.07,0.14,118.04,-60.85,-6.04,0.43,-0.1,-0.95,-50.35,-16.05,0.06,1742249224.6516428
0.9,0.43,0.75,38.51,-49.87,37.66,0.72,-0.9,0.06,3.54,-143.68,-81.36,1742249224.757638
0.65,0.41,0.98,28.93,18.19,0.43,1.29,-0.58,0.17,0.24,94.3,42.97,1742249224.8714418
0.53,0.22,0.51,47.0,57.8,-26.55,0.88,-0.34,-0.23,45.04,21.61,-28.02,1742249224.992542
0.6,0.22,0.18,52.06,-27.59,-2.87,-0.0,0.01,-1.42,-42.6,81.18,72.14,1742249225.098635
0.47,0.5,0.69,-8.12,-100.65,4.76,0.28,-0.5,-0.42,-21.3,-145.02,-105.59,1742249225.212678
0.58,0.26,1.25,-55.11,-45.96,-10.07,1.4,-0.91,0.17,-23.62,-58.04,-7.39,1742249225.331518
0.35,0.14,0.77,54.99,88.44,-3.66,0.71,-0.61,-0.21,59.63,91.98,3.97,1742249225.451125
0.39,0.48,0.25,-57.25,63.35,11.11,-0.16,-0.36,-1.18,34.97,120.06,37.29,1742249225.5545752
0.46,0.58,1.28,-124.39,-11.29,65.06,0.13,-0.47,-0.78,-41.99,-144.04,-93.38,1742249225.671351
0.69,0.14,1.81,35.4,-36.68,2.69,1.43,-1.06,0.49,-12.39,-61.71,6.16,1742249225.782506
0.56,0.47,0.81,41.08,112.43,28.32,0.82,-0.78,-0.15,106.81,97.6,45.96,1742249225.896506
0.49,0.57,-0.1,-28.63,55.66,6.41,-0.06,-0.5,-0.95,10.38,101.44,67.2,1742249226.011167
0.53,0.24,0.96,-130.07,-79.83,26.31,0.27,-0.42,-0.93,-28.56,-88.26,-29.66,1742249226.130928
0.87,0.27,1.57,-56.09,-64.58,-16.66,1.29,-0.74,-0.05,-49.19,-86.73,-13.98,1742249226.238726
0.5,0.53,0.81,54.75,-1.77,19.84,0.88,-0.58,-0.39,58.41,41.02,21.06,1742249226.352413
0.43,0.41,0.39,50.23,35.28,-16.85,0.06,-0.46,-0.86,37.23,49.87,22.4,1742249226.472197
0.53,0.05,0.96,-26.37,-36.74,25.09,0.23,-0.3,-0.67,-32.78,-125.31,-43.15,1742249226.579788
0.64,0.12,1.2,0.67,-27.89,-7.39,1.32,-0.77,0.29,9.52,-105.41,-0.55,1742249226.693506
0.51,0.5,0.85,44.8,65.98,2.75,0.95,-0.56,-0.16,1.59,3.85,41.02,1742249226.811182
0.43,0.43,0.27,26.67,84.11,-33.57,0.48,-0.44,-0.39,8.42,18.43,47.61,1742249226.9203389
0.68,0.07,0.62,79.47,-2.01,-21.55,0.29,-0.16,-0.57,-17.03,-17.52,-27.22,1742249227.0337338
1.1,0.06,0.89,40.89,-46.39,2.81,0.88,-0.69,0.28,-48.71,-64.09,-39.79,1742249227.151733
0.71,0.24,0.72,25.15,6.84,6.9,1.0,-0.62,0.05,25.21,72.27,-3.54,1742249227.2613142
0.53,0.19,0.37,5.31,37.66,6.47,0.26,-0.54,-0.4,30.88,123.17,29.72,1742249227.375285
0.76,0.34,0.19,34.48,-67.63,38.7,0.25,-0.35,-0.9,-38.02,-111.39,-33.45,1742249227.49202
0.96,0.07,1.05,39.43,-96.86,25.7,1.54,-0.87,0.54,-11.05,-125.85,-0.12,1742249227.612148
0.64,0.36,0.9,-9.03,51.21,5.31,0.86,-0.7,-0.2,17.94,7.2,-16.36,1742249227.7163992
0.39,0.43,0.13,50.17,114.2,-11.17,0.09,-0.54,-0.76,35.83,62.5,27.28,1742249227.832018
0.79,0.19,0.35,-2.99,-56.27,24.35,0.25,-0.32,-1.05,-86.49,-69.4,8.0,1742249227.951958
0.86,0.06,0.93,-34.91,-70.43,-6.16,1.39,-0.98,0.75,-20.81,-79.47,4.58,1742249228.058435
0.75,0.33,0.86,-38.7,30.09,20.63,0.36,-0.78,-0.01,-3.78,160.83,9.64,1742249228.172504
0.45,0.31,0.02,16.6,40.89,32.29,0.18,-0.48,-0.56,89.66,54.2,-16.85,1742249228.2963378
0.45,0.25,0.44,17.64,-85.69,61.77,0.3,-0.29,-0.91,-93.08,0.98,26.18,1742249228.400434
0.96,0.14,0.81,11.78,-82.95,-18.86,0.93,-0.88,0.05,-41.14,-90.64,-11.78,1742249228.5144892
0.72,0.54,0.66,-64.76,-5.8,-0.24,1.21,-0.6,-0.07,20.02,71.23,41.87,1742249228.632242
0.51,0.58,0.29,27.53,28.87,-2.26,0.42,-0.32,-0.61,49.8,69.03,13.43,1742249228.742337
0.69,0.18,0.43,-20.2,-69.34,3.48,0.4,-0.33,-0.79,-70.56,-37.6,-19.9,1742249228.856609
0.83,0.26,0.88,14.53,-71.66,-14.28,1.06,-0.6,-0.3,20.94,-87.1,-34.97,1742249228.972746
0.54,0.5,0.92,-33.14,54.75,-3.3,1.21,-0.51,-0.08,97.05,37.48,-8.36,1742249229.092396
0.5,0.45,0.52,-2.75,54.81,5.37,0.4,-0.26,-0.75,46.87,18.37,-38.76,1742249229.198417
0.69,0.11,0.42,32.04,-16.72,32.59,0.49,-0.18,-0.44,-110.17,-19.84,-122.01,1742249229.312479
0.52,0.34,0.79,-37.23,-47.55,51.88,0.18,-0.61,0.05,-440.55,-122.19,-170.35,1742249229.4328818
0.45,0.74,0.67,-23.68,19.23,93.63,-0.58,-0.67,1.3,-256.96,-171.94,-76.9,1742249229.54052
0.38,0.72,0.44,-28.2,-68.42,-5.07,-0.0,-0.54,1.07,-17.88,58.72,30.58,1742249229.654469
