L-AccX,L-AccY,L-AccZ,L-GyrX,L-GyrY,L-GyrZ,R-AccX,R-AccY,R-AccZ,R-GyrX,R-GyrY,R-GyrZ,timestamp
-0.09,0.34,0.95,4.27,8.67,4.03,0.28,-0.29,0.9,-2.44,-0.49,-1.46,1742259193.985098
-0.02,0.42,0.91,-14.04,10.13,-1.83,0.29,-0.3,0.89,-1.28,0.37,-0.06,1742259194.0966961
-0.03,0.43,0.92,-4.15,-0.37,1.53,0.29,-0.28,0.91,-0.43,0.92,-0.98,1742259194.210696
-0.04,0.44,0.91,-3.97,0.79,3.11,0.28,-0.3,0.9,-1.83,1.04,0.79,1742259194.32459
-0.03,0.44,0.9,-2.5,3.05,2.08,0.29,-0.29,0.9,1.04,0.55,-1.4,1742259194.4386618
-0.03,0.45,0.9,0.49,4.88,4.58,0.28,-0.3,0.91,2.62,-0.06,-3.3,1742259194.5536551
-0.03,0.45,0.89,-0.79,4.64,7.45,0.29,-0.3,0.9,7.87,5.98,-2.2,1742259194.6656551
-0.01,0.43,0.89,0.79,5.37,6.35,0.3,-0.32,0.87,4.7,5.92,-2.14,1742259194.7794912
-0.02,0.44,0.9,5.43,1.71,9.28,0.3,-0.32,0.88,0.92,5.62,3.3,1742259194.894618
-0.03,0.44,0.9,1.65,-0.98,7.45,0.34,-0.32,0.86,1.59,13.55,6.1,1742259195.005617
-0.04,0.42,0.91,4.82,0.73,0.37,0.35,-0.32,0.85,4.58,7.2,4.94,1742259195.1195369
-0.02,0.41,0.91,0.31,1.65,-1.89,0.37,-0.32,0.85,0.85,0.98,8.3,1742259195.23536
-0.03,0.42,0.92,0.61,-0.37,0.73,0.37,-0.34,0.83,-11.35,-6.71,2.56,1742259195.3476312
-0.02,0.43,0.91,-1.77,0.18,-1.65,0.33,-0.31,0.86,-3.17,-1.04,-2.44,1742259195.461789
-0.02,0.43,0.91,-3.85,1.34,-3.11,0.36,-0.3,0.86,-1.59,-8.24,-9.64,1742259195.5757718
-0.02,0.44,0.91,-5.92,1.04,-2.87,0.35,-0.32,0.87,-7.2,-8.67,-8.54,1742259195.689753
-0.03,0.45,0.9,0.67,1.59,2.44,0.33,-0.3,0.88,-6.23,-0.06,-4.46,1742259195.8034382
-0.01,0.44,0.9,-5.43,3.6,-0.61,0.33,-0.3,0.87,8.24,-5.13,15.81,1742259195.9168708
-0.02,0.46,0.9,0.98,-1.22,-2.14,0.33,-0.26,0.93,-2.08,-5.0,6.77,1742259196.0306618
0.0,0.46,0.88,-1.46,-2.2,2.87,0.34,-0.25,0.89,3.3,3.17,10.19,1742259196.144505
-0.02,0.45,0.9,0.85,-1.83,0.37,0.39,-0.26,0.85,9.77,9.95,10.68,1742259196.258552
-0.02,0.46,0.9,0.85,-1.04,-0.92,0.39,-0.33,0.86,11.47,12.82,4.52,1742259196.375159
-0.01,0.45,0.9,0.24,-0.55,-0.55,0.42,-0.34,0.81,3.36,-8.67,-2.32,1742259196.48564
-0.02,0.45,0.89,0.37,-0.12,-2.26,0.37,-0.35,0.84,5.98,-20.57,-13.18,1742259196.5996249
-0.02,0.45,0.89,-0.43,0.24,-2.14,0.33,-0.32,0.88,-7.75,-6.96,-3.48,1742259196.714611
-0.01,0.45,0.9,-1.65,-0.31,-2.5,0.34,-0.31,0.88,4.27,0.67,-0.55,1742259196.8277838
-0.01,0.45,0.9,-1.71,0.67,-1.83,0.31,-0.34,0.87,-0.18,1.89,-5.43,1742259196.941828
-0.01,0.46,0.89,-2.69,2.01,-1.89,0.33,-0.29,0.89,-11.54,-15.5,5.31,1742259197.055736
-0.01,0.45,0.89,0.61,-1.04,2.5,0.29,-0.33,0.9,1.28,-2.81,-0.12,1742259197.169492
-0.01,0.45,0.89,2.01,-0.67,4.21,0.29,-0.31,0.93,12.57,27.59,4.03,1742259197.282445
-0.02,0.45,0.9,2.01,-0.49,1.83,0.39,-0.32,0.84,7.87,17.21,6.84,1742259197.3968
-0.02,0.45,0.9,0.06,-1.46,0.73,0.39,-0.31,0.84,-1.04,-7.57,-4.09,1742259197.510428
-0.02,0.44,0.9,-1.16,-0.79,-1.53,0.37,-0.33,0.86,-6.23,-7.26,-4.39,1742259197.623668
-0.02,0.45,0.89,-1.4,-0.43,-1.46,0.35,-0.34,0.88,3.72,5.25,3.42,1742259197.737731
-0.02,0.45,0.89,-0.85,-0.67,-0.24,0.39,-0.3,0.85,0.24,-3.23,-1.34,1742259197.8546271
-0.02,0.46,0.89,-0.06,-1.22,-0.31,0.37,-0.3,0.86,3.42,-5.92,1.46,1742259197.965642
-0.02,0.45,0.89,0.18,-1.22,-1.46,0.39,-0.3,0.83,-1.22,-5.07,-0.43,1742259198.079585
-0.02,0.47,0.88,-1.53,-1.59,-5.13,0.37,-0.37,0.87,60.18,-14.59,-32.78,1742259198.194546
-0.02,0.45,0.89,3.05,-1.65,-1.53,0.29,-0.37,0.84,-8.54,-51.15,-59.63,1742259198.3075762
-0.03,0.45,0.89,5.68,-4.33,-2.32,0.19,-0.39,0.8,-13.79,-3.42,-50.84,1742259198.423699
-0.03,0.43,0.92,6.29,-8.06,-4.88,0.11,-0.4,0.93,-25.76,0.49,16.54,1742259198.5375822
-0.03,0.43,0.9,0.73,1.22,-0.73,0.21,-0.24,0.94,2.38,2.62,-4.27,1742259198.6545842
-0.04,0.44,0.91,1.83,-1.1,0.85,0.17,-0.32,0.87,13.06,-7.51,0.06,1742259198.765441
-0.04,0.43,0.91,-0.61,1.04,-0.55,0.14,-0.29,0.96,8.42,-9.09,-7.81,1742259198.879549
-0.03,0.43,0.91,0.92,0.12,-1.95,0.18,-0.34,0.87,18.07,18.07,-0.92,1742259198.99563
-0.02,0.43,0.91,-3.78,0.85,-3.05,0.17,-0.34,0.93,15.93,1.22,-17.52,1742259199.1075652
-0.04,0.45,0.89,-0.37,0.73,0.67,0.12,-0.47,0.9,-2.14,7.32,-43.95,1742259199.221497
-0.02,0.45,0.9,2.38,1.22,0.0,0.14,-0.4,0.87,-17.64,-1.95,-36.07,1742259199.339253
-0.02,0.43,0.9,-0.37,1.22,1.16,0.13,-0.34,0.88,-15.69,-5.74,13.49,1742259199.4494479
-0.03,0.44,0.9,-0.98,1.71,0.18,0.12,-0.38,0.9,4.76,10.13,-8.91,1742259199.5626822
-0.02,0.44,0.9,-0.43,0.18,-3.05,0.1,-0.39,0.92,-2.56,-10.68,6.77,1742259199.676592
-0.02,0.44,0.9,-1.46,0.31,0.12,0.12,-0.32,0.92,-3.97,-2.81,2.62,1742259199.7904
-0.01,0.44,0.9,-1.4,0.24,0.49,0.11,-0.34,0.92,-3.05,-3.11,1.71,1742259199.9045491
-0.02,0.44,0.9,-0.73,-0.24,3.36,0.1,-0.35,0.91,3.17,-0.06,-2.87,1742259200.01874
-0.03,0.45,0.9,5.07,0.0,11.05,0.1,-0.32,0.94,-0.37,-2.32,3.66,1742259200.135463
-0.05,0.44,0.91,8.12,-0.49,16.54,0.11,-0.33,0.94,2.99,0.31,5.0,1742259200.246561
-0.08,0.42,0.95,9.7,-8.67,3.66,0.11,-0.33,0.92,0.73,-0.92,1.4,1742259200.360412
-0.09,0.38,0.97,16.66,-12.88,-7.69,0.11,-0.32,0.93,0.24,-0.79,0.92,1742259200.475819
-0.12,0.4,0.94,3.11,-19.29,-33.2,0.1,-0.34,0.92,4.03,0.12,1.83,1742259200.587483
-0.11,0.37,0.94,10.8,-11.72,-12.88,0.11,-0.33,0.92,1.65,-0.24,0.49,1742259200.702482
-0.13,0.27,0.94,0.73,6.41,0.06,0.11,-0.31,0.93,0.18,-0.43,0.0,1742259200.818945
-0.07,0.35,0.9,-4.09,25.94,36.25,0.11,-0.33,0.92,0.92,-0.12,0.61,1742259200.9284658
-0.07,0.38,0.91,8.18,-5.8,10.62,0.1,-0.33,0.92,-0.79,-0.49,0.37,1742259201.042366
-0.13,0.43,0.94,5.49,-29.97,-37.72,0.11,-0.34,0.92,0.06,-0.18,0.24,1742259201.156518
-0.1,0.27,0.97,28.2,-12.57,-2.99,0.09,-0.34,0.93,-0.73,-0.55,0.79,1742259201.2705321
-0.16,0.28,0.96,0.37,1.34,3.17,0.11,-0.34,0.92,1.89,0.24,-0.37,1742259201.38479
-0.11,0.32,0.94,3.72,9.16,4.33,0.1,-0.32,0.92,-0.67,-0.67,0.79,1742259201.497306
-0.15,0.29,1.05,-21.61,73.55,2.2,0.1,-0.33,0.92,1.22,0.24,-0.98,1742259201.610444
0.06,0.31,0.94,5.86,69.21,28.26,0.1,-0.35,0.92,-0.55,0.0,0.0,1742259201.724149
0.16,0.4,0.96,-17.94,16.3,11.29,0.1,-0.34,0.92,0.85,0.06,-0.06,1742259201.8399282
0.1,0.37,0.96,1.1,-5.31,-1.77,0.11,-0.33,0.92,-0.55,1.28,-0.73,1742259201.950345
0.1,0.39,0.9,-6.35,0.37,-6.23,0.11,-0.33,0.92,-0.98,0.92,-0.37,1742259202.063327
0.11,0.39,0.91,4.46,-3.23,0.67,0.11,-0.33,0.92,-0.18,0.85,0.0,1742259202.176179
0.11,0.35,0.92,16.54,8.97,-1.1,0.11,-0.33,0.92,0.92,0.24,-0.31,1742259202.2893288
0.11,0.37,0.96,-16.42,-23.99,10.93,0.11,-0.33,0.92,0.0,0.55,-0.61,1742259202.402294
0.03,0.4,0.96,2.93,-31.19,8.12,0.11,-0.33,0.92,-0.18,0.49,-0.43,1742259202.516048
-0.03,0.34,0.97,4.21,-28.02,8.24,0.11,-0.32,0.92,-0.55,0.37,-0.24,1742259202.6283112
-0.07,0.32,0.98,0.92,-5.19,0.98,0.11,-0.32,0.93,-1.59,1.28,-1.53,1742259202.741338
-0.05,0.32,0.95,-0.06,-0.61,1.77,0.11,-0.33,0.92,-0.55,2.38,-1.28,1742259202.855463
-0.05,0.33,0.94,-0.18,-7.63,-1.83,0.12,-0.32,0.91,0.79,1.28,-1.83,1742259202.969576
-0.08,0.32,0.97,0.31,-10.8,-32.17,0.11,-0.34,0.93,-0.79,2.69,-3.78,1742259203.083466
-0.08,0.32,0.95,1.04,-2.2,-3.48,0.13,-0.31,0.94,-1.46,3.3,-2.81,1742259203.197435
-0.08,0.33,0.94,-0.43,0.12,-0.49,0.13,-0.32,0.91,-1.4,0.43,-0.67,1742259203.31141
-0.08,0.33,0.94,-1.77,0.37,0.0,0.12,-0.32,0.94,-0.85,0.0,1.77,1742259203.42534
-0.08,0.36,0.92,0.55,-0.43,-2.93,0.11,-0.32,0.93,1.04,-0.24,0.55,1742259203.539417
-0.11,0.32,0.96,6.23,9.22,-5.8,0.11,-0.33,0.92,3.54,-1.16,-1.46,1742259203.65629
-0.03,0.32,0.97,-7.02,21.67,-22.52,0.11,-0.33,0.94,1.04,-1.22,4.94,1742259203.7674398
0.01,0.34,0.95,-14.89,9.03,-16.24,0.1,-0.37,0.92,1.16,15.5,36.32,1742259203.881344
0.05,0.35,0.91,-4.58,7.87,-5.43,0.19,-0.32,0.87,25.63,5.68,68.79,1742259203.99618
0.03,0.37,0.93,0.12,-2.2,0.43,0.26,-0.23,0.9,9.34,11.78,37.23,1742259204.107549
0.04,0.37,0.93,-0.98,-0.31,1.53,0.26,-0.37,0.85,14.71,3.78,5.07,1742259204.220368
0.04,0.37,0.93,-0.92,-1.22,-0.24,0.26,-0.35,0.89,0.37,5.43,-1.89,1742259204.334412
0.03,0.37,0.93,-0.61,-0.55,-0.06,0.26,-0.35,0.88,-0.12,-4.94,-2.87,1742259204.448409
0.04,0.37,0.93,-1.16,-0.49,-0.43,0.26,-0.27,0.89,-7.69,1.04,-26.98,1742259204.5624242
0.03,0.37,0.93,-2.69,-0.18,0.85,0.16,-0.4,0.94,-0.24,-21.06,-37.9,1742259204.6762612
0.04,0.36,0.92,-11.05,-2.62,3.66,0.16,-0.38,0.95,1.34,-2.87,-3.36,1742259204.790333
0.03,0.4,0.92,2.01,0.18,-0.12,0.2,-0.31,0.92,-7.14,24.41,-0.06,1742259204.904308
0.03,0.38,0.93,1.22,-0.49,-0.55,0.25,-0.32,0.86,-0.12,14.1,-0.79,1742259205.017347
0.03,0.38,0.92,-1.4,-0.98,0.12,0.26,-0.27,0.91,3.6,-4.15,0.67,1742259205.131273
0.02,0.4,0.93,-9.95,-1.95,2.08,0.24,-0.31,0.86,-4.27,-13.12,1.4,1742259205.245385
0.03,0.4,0.91,3.78,0.31,-1.22,0.2,-0.32,0.91,-2.01,-18.13,-0.31,1742259205.3591082
0.02,0.4,0.92,1.77,1.28,-0.61,0.18,-0.36,0.85,-3.11,-1.59,1.89,1742259205.476288
0.03,0.41,0.95,2.56,8.0,-0.79,0.2,-0.35,0.88,-0.37,27.47,6.29,1742259205.585124
0.04,0.38,0.9,0.24,-2.69,1.04,0.22,-0.33,0.91,1.22,6.65,-0.61,1742259205.698205
0.03,0.4,0.94,-2.2,-2.2,-0.61,0.22,-0.32,0.92,1.1,-2.5,2.99,1742259205.8123388
0.02,0.39,0.92,-5.98,1.46,1.46,0.23,-0.31,0.88,-4.94,-1.59,-6.29,1742259205.926247
0.03,0.41,0.89,-1.95,-2.5,2.5,0.18,-0.34,0.92,-1.89,-3.42,-16.24,1742259206.039396
0.0,0.43,0.9,-0.24,-1.53,4.94,0.17,-0.34,0.91,-0.18,-1.89,-12.57,1742259206.155895
-0.01,0.44,0.91,-0.61,-0.67,0.73,0.15,-0.41,0.91,6.84,-2.32,-4.39,1742259206.266329
0.01,0.42,0.92,-0.67,-1.77,1.71,0.17,-0.33,0.9,-1.04,5.8,2.44,1742259206.380235
-0.0,0.42,0.92,-2.32,0.0,0.37,0.15,-0.3,0.95,2.56,7.39,-40.95,1742259206.496692
0.0,0.44,0.9,-5.0,1.77,-3.78,0.12,-0.48,0.88,-8.0,15.93,-14.65,1742259206.608201
0.01,0.44,0.9,-3.05,-0.85,-4.7,0.16,-0.36,0.9,-3.3,-4.58,6.84,1742259206.722365
0.0,0.47,0.93,-7.26,-1.77,-18.92,0.16,-0.34,0.9,-0.79,2.75,-3.36,1742259206.8399959
0.05,0.44,0.85,1.16,-3.6,-1.77,0.18,-0.3,0.9,-6.29,-1.28,-36.62,1742259206.950273
0.01,0.46,0.88,5.98,-3.11,0.06,0.13,-0.36,0.91,4.52,-13.12,-16.6,1742259207.064129
0.01,0.46,0.9,6.59,-2.26,0.55,0.11,-0.39,0.91,-2.26,-6.77,3.85,1742259207.177114
-0.02,0.35,0.95,10.38,-24.66,-23.62,0.1,-0.37,0.9,-21.73,-19.84,26.79,1742259207.290376
-0.01,0.36,0.94,13.0,-5.0,2.2,0.1,-0.3,0.9,-18.92,-10.44,10.44,1742259207.4042099
-0.03,0.37,0.96,-0.37,1.77,-0.12,0.07,-0.35,0.91,16.72,8.48,-8.06,1742259207.518425
-0.01,0.37,0.93,0.37,0.31,0.98,0.05,-0.3,0.95,-0.67,-5.43,-2.75,1742259207.636242
-0.01,0.36,0.93,0.98,-0.49,0.55,0.08,-0.33,0.92,27.4,11.23,-8.42,1742259207.746248
-0.01,0.37,0.93,-0.06,-0.37,0.0,0.06,-0.29,0.93,3.97,-6.29,2.44,1742259207.860391
-0.02,0.36,0.95,-1.4,0.73,5.13,0.06,-0.35,0.93,6.23,-0.31,9.22,1742259207.976406
-0.02,0.37,0.92,-1.16,9.89,1.65,0.13,-0.29,0.88,7.87,42.66,54.08,1742259208.0890791
-0.04,0.43,0.97,-10.19,-2.69,8.3,0.22,-0.24,0.85,-21.3,11.72,42.72,1742259208.202376
0.0,0.4,0.93,-3.42,9.34,-1.04,0.22,-0.28,0.9,0.55,-6.77,-7.26,1742259208.32015
0.02,0.4,0.94,5.07,7.51,-4.7,0.2,-0.37,0.85,-2.56,9.46,6.84,1742259208.429018
0.02,0.39,0.89,7.93,6.71,8.85,0.28,-0.28,0.9,-19.9,55.24,57.13,1742259208.541961
0.01,0.39,0.94,0.18,-7.57,3.3,0.36,-0.27,0.83,12.63,16.91,-4.52,1742259208.656353
0.01,0.35,0.9,8.48,-13.67,38.39,0.34,-0.29,0.88,10.07,-4.33,-8.85,1742259208.7680168
-0.1,0.38,0.97,14.89,-11.05,23.8,0.28,-0.29,0.93,-0.98,-18.68,-38.02,1742259208.881124
-0.08,0.36,0.94,4.76,-0.06,-0.67,0.22,-0.32,0.92,-7.02,-16.72,-30.27,1742259208.996097
-0.08,0.35,0.93,3.17,3.66,-1.65,0.19,-0.29,0.93,-18.55,1.22,-43.09,1742259209.108141
-0.09,0.35,0.95,-9.22,0.73,4.09,0.2,-0.27,0.91,11.23,-11.54,-29.11,1742259209.2221498
-0.09,0.35,0.94,-0.31,-4.7,4.7,0.15,-0.3,0.95,-6.47,2.81,3.36,1742259209.33527
-0.1,0.36,0.94,-6.65,3.23,-3.48,0.13,-0.4,0.95,12.82,11.66,71.78,1742259209.4492931
-0.08,0.36,0.93,-1.1,0.92,0.61,0.23,-0.35,0.87,73.67,22.46,88.13,1742259209.5631611
-0.09,0.39,0.92,-4.64,0.73,-2.14,0.42,-0.14,0.85,14.59,23.01,6.47,1742259209.677264
-0.08,0.38,0.93,-1.34,1.04,-0.37,0.43,-0.35,0.79,26.73,-3.6,-4.21,1742259209.791384
-0.08,0.38,0.92,-2.62,-0.12,0.61,0.42,-0.31,0.88,26.43,-20.63,19.35,1742259209.905408
-0.09,0.37,0.92,0.92,-0.49,2.08,0.37,-0.42,0.84,22.16,-8.85,11.11,1742259210.0190961
-0.08,0.38,0.92,-3.85,0.61,-0.55,0.38,-0.39,0.83,-1.89,2.62,11.6,1742259210.135993
-0.09,0.39,0.93,-21.67,-4.76,2.08,0.41,-0.38,0.76,7.32,-5.68,15.32,1742259210.246429
-0.1,0.45,0.89,-5.25,-0.06,0.31,0.39,-0.4,0.72,17.76,-29.97,-0.06,1742259210.368076
-0.09,0.43,0.9,-0.61,0.85,0.98,0.31,-0.38,0.93,2.93,11.41,2.2,1742259210.476816
-0.08,0.43,0.91,-3.54,0.67,-1.16,0.41,-0.39,0.74,31.68,42.42,10.5,1742259210.588226
-0.1,0.44,0.9,-6.1,0.24,-1.53,0.41,-0.44,0.73,-5.0,-27.1,-3.78,1742259210.702166
-0.08,0.47,0.88,-14.1,0.98,-4.15,0.38,-0.45,0.82,-34.36,-23.13,-20.14,1742259210.820736
-0.07,0.46,0.89,-5.25,4.09,-6.47,0.39,-0.45,0.78,28.5,18.74,9.89,1742259210.930222
-0.06,0.48,0.88,-16.24,5.31,-13.67,0.39,-0.47,0.73,-4.39,-29.3,-2.32,1742259211.0550451
-0.03,0.47,0.86,-0.37,1.71,-4.82,0.36,-0.53,0.8,5.55,-0.92,-0.55,1742259211.158252
-0.04,0.49,0.87,2.99,-0.12,2.5,0.37,-0.46,0.76,4.39,4.88,3.36,1742259211.2721012
-0.04,0.5,0.87,-1.22,-0.06,0.12,0.39,-0.41,0.79,-17.88,12.94,-3.3,1742259211.386225
-0.04,0.49,0.87,-0.55,0.24,0.31,0.41,-0.42,0.8,-11.11,2.32,-8.12,1742259211.5001202
-0.03,0.5,0.87,-0.92,-0.43,-0.06,0.38,-0.48,0.78,4.27,0.18,-1.46,1742259211.616338
-0.03,0.49,0.87,-0.73,-1.53,0.73,0.39,-0.46,0.8,9.52,8.48,-6.04,1742259211.728262
-0.04,0.5,0.87,-0.12,-0.73,0.18,0.41,-0.42,0.77,2.93,8.42,-8.18,1742259211.842162
-0.05,0.49,0.87,1.83,-2.38,-0.55,0.34,-0.65,0.73,33.94,-5.37,-28.02,1742259211.9561841
-0.03,0.51,0.86,-0.06,-0.49,-0.85,0.37,-0.54,0.75,3.85,-5.68,6.1,1742259212.070303
-0.04,0.49,0.87,-2.14,0.12,-0.24,0.36,-0.58,0.74,-6.71,2.01,6.9,1742259212.184173
-0.05,0.5,0.87,2.32,-0.43,1.22,0.37,-0.55,0.73,3.42,-1.83,-2.81,1742259212.29848
-0.05,0.5,0.87,-0.24,0.61,-1.65,0.37,-0.57,0.71,16.91,-15.69,0.79,1742259212.4166138
-0.04,0.49,0.87,-0.61,0.37,-2.69,0.36,-0.54,0.75,0.79,-6.59,6.71,1742259212.525229
-0.03,0.49,0.86,-0.92,0.31,0.18,0.36,-0.54,0.73,-10.13,-0.67,1.77,1742259212.638988
-0.04,0.49,0.86,3.11,-2.5,4.7,0.35,-0.56,0.74,1.95,-1.71,-0.43,1742259212.753126
-0.07,0.48,0.88,13.98,-7.51,12.02,0.36,-0.53,0.81,13.0,6.77,-0.24,1742259212.866986
-0.08,0.5,0.85,38.33,-23.86,1.28,0.39,-0.59,0.63,9.09,8.67,0.73,1742259212.981129
-0.11,0.39,0.93,11.9,-7.57,-6.96,0.39,-0.57,0.7,-4.76,-12.02,-2.69,1742259213.0963998
-0.11,0.4,0.92,1.65,1.22,0.67,0.37,-0.56,0.79,0.12,1.71,-7.69,1742259213.2090619
-0.11,0.39,0.92,-2.14,0.0,-1.28,0.34,-0.62,0.75,-0.24,-0.61,-0.79,1742259213.323143
-0.11,0.4,0.92,0.67,-0.43,-0.31,0.36,-0.53,0.7,-1.28,-7.51,-1.77,1742259213.4370959
-0.1,0.39,0.92,-0.67,1.1,-0.18,0.32,-0.57,0.71,4.94,-7.45,9.95,1742259213.551132
-0.11,0.4,0.91,-1.34,0.37,-0.06,0.31,-0.59,0.74,0.85,-7.81,0.79,1742259213.6651719
-0.1,0.41,0.91,-2.81,-0.12,-0.18,0.31,-0.54,0.77,0.73,-6.9,1.4,1742259213.779205
-0.1,0.41,0.91,-0.61,0.37,0.31,0.3,-0.57,0.67,5.43,-14.1,-0.24,1742259213.896567
-0.1,0.42,0.9,-1.34,0.06,-0.24,0.27,-0.52,0.74,2.5,-3.23,0.73,1742259214.007126
-0.11,0.41,0.91,0.67,-1.22,-1.65,0.26,-0.57,0.76,-2.99,1.71,2.44,1742259214.121121
-0.1,0.41,0.91,0.49,-2.69,-2.75,0.27,-0.56,0.78,-2.5,15.5,1.1,1742259214.237411
0.13,0.31,0.93,0.85,0.67,-0.12,0.0,-0.39,0.92,1.04,2.14,2.14,1742250301.16137
0.14,0.31,0.92,0.49,6.04,-2.14,-0.08,-0.46,0.87,24.84,7.45,7.87,1742250301.275282
0.14,0.32,0.94,4.46,27.34,-9.58,-0.04,-0.46,0.87,24.48,29.05,47.06,1742250301.388258
0.21,0.35,0.92,4.46,15.99,1.89,0.24,-0.32,0.8,46.14,59.2,40.47,1742250301.501266
0.2,0.32,0.94,-1.83,8.67,3.66,0.49,-0.39,0.86,-23.68,47.67,13.49,1742250301.6143181
0.23,0.34,0.91,-3.78,20.57,12.02,0.37,-0.4,0.84,-4.52,-6.41,5.55,1742250301.7284439
0.25,0.32,0.91,2.69,4.76,3.05,0.27,-0.39,0.88,-9.58,-17.52,10.5,1742250301.842396
0.24,0.33,0.9,4.7,-7.87,-6.65,0.25,-0.44,0.87,-23.5,-37.17,0.67,1742250301.959998
0.24,0.3,0.91,3.42,-32.04,6.77,0.17,-0.25,0.98,-43.33,-31.07,21.24,1742250302.072392
0.14,0.35,0.94,2.08,-27.47,3.66,0.17,-0.24,1.01,34.67,25.57,-5.25,1742250302.186272
0.11,0.33,0.94,0.49,-4.64,0.67,0.22,-0.5,0.81,20.81,15.93,-17.09,1742250302.3002691
0.12,0.32,0.93,1.1,0.31,-0.79,0.24,-0.41,0.88,4.52,4.21,-1.95,1742250302.414263
0.12,0.33,0.93,2.26,0.06,-1.28,0.24,-0.41,0.88,4.15,1.89,0.37,1742250302.527199
0.12,0.32,0.93,0.73,-0.31,-0.67,0.24,-0.41,0.88,-0.55,1.77,-2.93,1742250302.640414
0.12,0.31,0.93,0.18,0.0,-0.31,0.24,-0.42,0.88,0.37,0.92,-0.92,1742250302.75469
0.12,0.33,0.93,0.49,0.12,-0.49,0.24,-0.42,0.87,-0.12,0.31,-0.92,1742250302.86841
0.12,0.32,0.93,-0.67,0.0,0.06,0.24,-0.42,0.87,-0.61,0.55,-0.73,1742250302.982408
0.12,0.32,0.93,0.24,-0.37,-0.43,0.24,-0.42,0.88,0.73,0.67,-0.61,1742250303.096309
0.12,0.32,0.93,-0.55,-0.49,-0.73,0.24,-0.42,0.87,0.85,1.34,-2.01,1742250303.2146251
0.12,0.32,0.93,-1.04,2.69,-2.81,0.24,-0.43,0.87,0.55,0.49,-1.04,1742250303.3242838
0.13,0.32,0.93,-2.62,4.52,-1.53,0.25,-0.43,0.87,4.27,1.4,0.31,1742250303.438207
0.1,0.34,0.95,-8.85,13.06,-3.91,0.24,-0.43,0.88,4.94,0.85,-1.34,1742250303.5528052
0.17,0.41,0.92,-25.51,34.12,-36.13,0.25,-0.44,0.85,3.54,-0.12,-0.92,1742250303.6663208
0.25,0.39,0.84,-19.78,22.77,-27.65,0.24,-0.44,0.86,1.65,0.18,-4.33,1742250303.7801962
0.3,0.45,0.88,-29.97,0.85,-21.12,0.25,-0.45,0.85,13.18,7.57,-1.65,1742250303.8942442
0.33,0.66,0.82,-138.24,11.11,-37.23,0.23,-0.52,0.84,13.61,2.87,-1.04,1742250304.0082371
0.42,0.83,0.57,-168.33,11.78,-67.93,0.23,-0.52,0.81,9.28,-8.85,5.8,1742250304.12231
0.53,0.77,0.36,-88.44,6.53,-65.19,0.26,-0.47,0.83,5.55,-4.21,1.46,1742250304.236216
0.61,0.7,0.22,-73.49,-8.18,-53.41,0.27,-0.49,0.81,5.86,3.48,-4.39,1742250304.354107
0.69,0.75,0.16,-99.18,-16.66,-65.25,0.26,-0.51,0.82,4.94,9.52,-3.66,1742250304.464225
0.81,0.64,0.09,-52.25,-26.61,-66.1,0.28,-0.56,0.8,7.63,10.68,1.83,1742250304.5781262
0.81,0.49,0.06,-67.93,-27.65,-74.95,0.28,-0.55,0.8,0.61,1.83,5.19,1742250304.694305
0.81,0.38,0.07,-37.05,-2.5,-46.33,0.26,-0.52,0.82,2.87,5.43,6.35,1742250304.8041291
0.87,0.39,0.05,-3.36,-8.3,-15.5,0.31,-0.52,0.73,3.36,1.89,-4.7,1742250304.917218
0.95,0.38,0.04,-4.33,-2.56,-13.49,0.29,-0.59,0.84,-5.62,-4.76,0.98,1742250305.031314
0.93,0.33,0.07,-7.08,-3.97,-8.18,0.3,-0.54,0.77,1.22,7.69,2.26,1742250305.145131
0.93,0.35,0.06,4.76,-3.11,0.79,0.29,-0.54,0.76,0.85,-1.83,2.44,1742250305.25824
0.93,0.34,0.07,-0.92,-2.75,2.75,0.3,-0.53,0.81,1.04,-1.95,2.62,1742250305.373535
0.93,0.34,0.08,-0.79,-5.19,1.95,0.3,-0.54,0.8,-1.53,0.67,0.24,1742250305.486284
0.93,0.35,0.08,-4.15,-5.19,1.77,0.3,-0.53,0.77,-2.26,-1.34,0.49,1742250305.600584
0.93,0.35,0.08,2.01,-1.28,0.79,0.3,-0.53,0.79,-1.22,-0.67,1.1,1742250305.714368
0.86,0.33,0.07,64.94,3.66,15.69,0.3,-0.52,0.79,0.49,1.59,-0.18,1742250305.8282418
0.86,0.36,0.15,125.73,30.82,53.16,0.31,-0.5,0.75,-2.69,-2.56,-3.97,1742250305.942306
0.75,0.41,0.19,121.46,3.85,74.22,0.28,-0.57,0.8,-2.62,-9.22,-5.37,1742250306.056271
0.72,0.68,0.36,132.87,-27.83,84.96,0.27,-0.53,0.83,-2.87,-7.08,3.11,1742250306.173401
0.6,0.6,0.61,191.16,-65.8,71.35,0.26,-0.51,0.83,-2.5,-3.11,-3.85,1742250306.284322
0.41,0.31,0.97,116.03,-65.98,50.72,0.26,-0.53,0.8,-0.55,-3.11,2.44,1742250306.3982248
0.39,0.3,0.9,27.1,-50.96,61.89,0.25,-0.51,0.83,-0.61,-5.86,4.52,1742250306.516932
0.28,0.29,0.92,9.52,-29.48,44.56,0.25,-0.52,0.81,2.14,-6.1,3.97,1742250306.6261299
0.18,0.3,0.98,-4.39,5.19,-0.79,0.25,-0.51,0.83,1.22,-5.92,7.93,1742250306.739105
0.23,0.28,0.91,1.71,1.28,5.25,0.24,-0.47,0.83,2.08,0.49,2.01,1742250306.854199
0.21,0.29,0.91,4.33,-5.31,0.92,0.24,-0.5,0.84,-2.62,-0.06,-5.98,1742250306.966282
0.22,0.27,0.97,4.03,7.14,1.1,0.24,-0.53,0.81,-1.71,0.55,-1.34,1742250307.080241
0.21,0.27,0.93,0.73,-2.5,1.53,0.24,-0.53,0.82,2.87,-1.22,3.3,1742250307.19405
0.2,0.27,0.95,3.05,-2.08,2.01,0.25,-0.51,0.81,3.05,-3.97,7.45,1742250307.3080661
0.16,0.25,0.93,7.69,-2.38,-1.59,0.25,-0.48,0.83,1.22,-3.05,2.62,1742250307.4220679
0.17,0.3,0.96,-0.12,-0.67,-3.6,0.23,-0.52,0.85,-4.52,0.0,0.31,1742250307.537806
0.2,0.3,0.93,-5.19,10.25,-7.26,0.24,-0.49,0.83,-7.87,5.31,-5.37,1742250307.6538591
0.22,0.26,0.92,3.72,0.49,-0.98,0.25,-0.5,0.87,-16.97,4.64,-4.76,1742250307.764226
0.23,0.25,0.94,1.22,-0.92,-0.06,0.27,-0.48,0.89,-21.48,9.83,0.73,1742250307.8780549
0.23,0.27,0.95,6.71,5.86,3.23,0.29,-0.42,0.85,-24.72,3.97,-0.24,1742250307.995924
0.26,0.22,0.91,10.56,13.79,1.1,0.3,-0.34,0.88,-33.51,-19.35,-9.7,1742250308.106333
0.26,0.19,0.92,13.0,4.88,15.08,0.22,-0.28,0.88,-37.29,-36.87,-27.16,1742250308.220329
0.28,0.21,0.91,10.13,4.03,21.73,0.09,-0.33,0.94,-19.04,-11.72,-5.43,1742250308.334223
0.34,0.24,0.95,0.24,2.14,6.35,0.07,-0.29,0.97,-27.53,-17.52,7.2,1742250308.448221
0.39,0.25,0.88,-17.64,17.03,-15.32,0.07,-0.19,0.99,-4.15,-15.5,11.17,1742250308.562228
0.35,0.24,0.84,-2.81,-1.83,17.27,0.03,-0.19,0.98,15.01,5.0,-4.46,1742250308.675972
0.15,0.29,1.04,16.54,-46.69,51.45,0.04,-0.27,0.91,36.93,0.31,-8.85,1742250308.792353
0.22,0.13,0.78,-1.89,1.65,-0.79,-0.04,-0.26,1.01,-23.68,-20.51,-25.51,1742250308.90428
0.16,0.23,0.92,0.61,-0.49,9.89,-0.03,-0.21,0.96,-0.98,9.28,-12.45,1742250309.0181918
0.1,0.24,1.0,14.22,-16.54,3.17,0.05,-0.2,0.95,-10.19,-2.44,-8.36,1742250309.1338701
0.21,0.22,0.92,-1.16,6.04,0.92,0.03,-0.24,1.0,-7.02,-3.17,-7.2,1742250309.24618
0.21,0.17,0.98,-0.92,12.27,3.48,0.05,-0.21,0.99,-7.69,0.67,0.61,1742250309.359997
0.18,0.24,0.99,1.46,-3.3,-4.09,0.01,-0.21,0.98,-6.77,-3.17,-2.62,1742250309.47486
0.16,0.2,0.93,8.54,-18.49,2.44,-0.02,-0.17,0.98,-9.16,-3.23,3.23,1742250309.5882509
0.15,0.18,0.96,-2.01,-9.09,-4.15,-0.0,-0.16,1.0,-0.73,2.38,-5.13,1742250309.7022452
0.15,0.23,0.96,-0.06,5.13,-0.18,0.02,-0.17,0.97,9.46,-1.59,-5.49,1742250309.816088
0.16,0.19,0.96,-1.89,3.91,-2.38,-0.01,-0.2,0.96,20.94,-12.21,-6.53,1742250309.9335349
0.14,0.2,0.95,-1.83,0.85,0.37,-0.07,-0.25,0.98,10.62,-15.26,-6.53,1742250310.044193
0.16,0.21,0.98,-13.0,8.73,2.2,-0.05,-0.27,0.98,4.94,2.81,-5.13,1742250310.158119
0.17,0.23,0.96,-9.09,12.63,-0.61,-0.04,-0.21,0.96,-4.27,1.77,-2.87,1742250310.274142
0.21,0.27,0.94,-8.85,11.17,0.37,-0.07,-0.23,0.98,2.14,-2.5,-17.82,1742250310.386226
0.24,0.28,0.92,-6.84,6.53,-0.73,-0.05,-0.24,0.95,-1.71,16.48,-38.33,1742250310.500223
0.24,0.28,0.92,-0.92,-2.08,-2.01,-0.07,-0.28,0.96,9.89,4.64,-15.32,1742250310.61407
0.24,0.27,0.93,-1.71,-4.94,4.39,-0.06,-0.26,0.95,13.06,-9.09,-9.77,1742250310.728163
0.2,0.28,0.94,-7.45,-18.92,22.09,-0.1,-0.27,0.98,1.95,-15.87,-11.05,1742250310.8422139
0.15,0.35,0.92,-2.81,-14.1,27.22,-0.12,-0.27,0.96,0.61,1.46,-18.37,1742250310.956061
0.09,0.38,0.94,-3.72,1.04,45.72,-0.13,-0.28,0.95,-1.16,5.25,-14.77,1742250311.073071
0.08,0.39,0.91,-4.27,7.75,34.85,-0.13,-0.27,0.96,-3.11,8.24,-27.04,1742250311.184175
0.08,0.36,0.94,2.26,0.06,8.3,-0.12,-0.28,0.95,-7.75,5.62,-30.58,1742250311.298236
0.08,0.33,0.93,3.85,-0.85,-0.92,-0.14,-0.34,0.9,-1.16,-12.51,5.92,1742250311.413474
0.08,0.35,0.92,0.85,-0.92,-1.4,-0.11,-0.24,1.01,-1.59,18.19,15.75,1742250311.526133
0.08,0.35,0.93,4.15,-0.73,-3.17,-0.11,-0.27,0.97,9.58,21.48,10.74,1742250311.639894
0.08,0.34,0.93,2.99,-0.06,-2.14,-0.04,-0.33,0.96,56.4,26.12,11.35,1742250311.7540412
0.08,0.33,0.93,0.67,0.43,-0.31,0.01,-0.43,0.89,35.83,11.05,5.37,1742250311.8667982
0.08,0.33,0.93,0.12,-0.31,-0.49,-0.03,-0.49,0.9,-17.88,22.71,-1.4,1742250311.9801002
0.08,0.33,0.93,-0.12,0.18,-0.55,0.08,-0.36,0.93,-8.48,18.55,3.54,1742250312.094004
0.08,0.33,0.93,0.67,-0.24,-1.71,0.11,-0.4,0.91,-0.61,3.42,-0.06,1742250312.208025
0.08,0.33,0.93,-0.73,-0.55,-1.34,0.1,-0.38,0.93,0.06,13.98,1.83,1742250312.3218188
0.08,0.33,0.93,-3.97,-1.71,-1.34,0.13,-0.4,0.9,9.34,26.43,1.1,1742250312.435734
0.08,0.34,0.93,-1.89,-1.16,0.73,0.21,-0.43,0.87,12.33,15.75,-3.78,1742250312.548884
0.07,0.35,0.92,0.31,-1.04,-1.16,0.16,-0.45,0.88,-1.16,-0.24,0.61,1742250312.662991
0.07,0.34,0.93,-0.43,-1.59,-1.53,0.24,-0.39,0.86,-11.78,5.31,6.77,1742250312.7768478
0.07,0.35,0.93,0.12,-0.37,-2.5,0.28,-0.37,0.92,-23.93,15.08,16.72,1742250312.8939729
0.07,0.34,0.93,0.43,-0.37,-1.53,0.27,-0.42,0.87,7.87,-1.59,-0.61,1742250313.0051022
0.06,0.36,0.92,-2.08,1.16,-3.3,0.23,-0.4,0.88,-0.18,-0.31,1.22,1742250313.118808
0.08,0.35,0.92,-3.91,4.03,-6.71,0.24,-0.41,0.88,0.18,0.18,-0.24,1742250313.23413
0.08,0.36,0.92,-1.22,3.66,-6.9,0.24,-0.41,0.88,-0.12,-0.18,0.37,1742250313.346892
0.1,0.36,0.92,-16.48,23.56,-22.03,0.25,-0.4,0.88,0.06,0.49,0.37,1742250313.460715
0.14,0.38,0.9,-14.95,4.64,-40.1,0.24,-0.41,0.88,-0.12,0.24,0.43,1742250313.573766
0.26,0.42,0.85,-17.64,11.84,-53.83,0.24,-0.41,0.88,-0.18,0.61,0.12,1742250313.687765
0.25,0.36,0.9,5.86,-2.32,-16.36,0.24,-0.41,0.88,0.06,0.24,0.12,1742250313.801676
0.23,0.36,0.9,7.26,0.61,-2.38,0.24,-0.41,0.88,-0.43,0.73,-0.49,1742250313.914878
0.26,0.35,0.89,-0.49,6.84,1.53,0.24,-0.4,0.88,-0.37,0.61,-0.67,1742250314.028856
0.27,0.35,0.89,3.6,7.75,-0.98,0.25,-0.41,0.88,0.06,0.55,0.0,1742250314.142658
0.29,0.35,0.89,1.65,4.94,-0.92,0.25,-0.41,0.88,-0.55,0.43,-0.24,1742250314.255933
0.28,0.35,0.89,-0.12,6.53,-0.92,0.25,-0.4,0.88,-0.55,-0.12,0.24,1742250314.373549
0.32,0.35,0.88,0.24,9.28,-2.01,0.25,-0.4,0.88,-0.49,0.06,-0.24,1742250314.483864
0.33,0.35,0.87,1.1,5.07,-1.65,0.25,-0.4,0.88,-0.43,0.24,-0.55,1742250314.598016
0.33,0.35,0.88,-1.16,1.22,-1.34,0.25,-0.4,0.88,-0.12,0.31,-0.49,1742250314.7143471
0.32,0.34,0.88,0.0,4.88,-1.95,0.24,-0.4,0.88,-0.37,0.06,-0.43,1742250314.825875
0.35,0.33,0.87,0.37,7.81,-2.08,0.25,-0.4,0.88,-0.18,-0.06,-0.43,1742250314.939925
0.37,0.34,0.86,-0.55,5.43,-1.59,0.25,-0.4,0.88,-0.24,0.06,-0.37,1742250315.057056
0.36,0.34,0.86,0.31,2.01,-1.95,0.25,-0.4,0.88,0.12,0.61,-0.55,1742250315.167846
0.35,0.35,0.86,2.08,-2.69,-2.81,0.25,-0.4,0.88,0.24,0.49,-0.24,1742250315.281775
0.37,0.33,0.86,0.18,5.0,-2.01,0.25,-0.4,0.88,-0.18,0.67,-0.37,1742250315.395902
0.38,0.34,0.85,0.73,0.79,0.24,0.25,-0.4,0.88,-0.12,-0.12,-0.12,1742250315.510022
0.37,0.33,0.85,2.2,-9.03,3.78,0.25,-0.4,0.88,-0.06,0.0,0.31,1742250315.6274428
0.34,0.37,0.85,15.62,-41.99,6.1,0.25,-0.4,0.88,-0.12,0.24,-0.43,1742250315.737885
0.28,0.32,0.91,3.17,-19.96,3.85,0.25,-0.4,0.88,-0.12,-0.12,-0.24,1742250315.8538811
0.23,0.29,0.91,13.98,-4.82,-3.48,0.25,-0.4,0.88,-0.43,-0.79,0.12,1742250315.9658592
0.24,0.27,0.92,12.08,0.67,-2.2,0.25,-0.4,0.89,-0.43,-0.79,-0.06,1742250316.079842
0.24,0.25,0.92,11.17,0.12,-4.88,0.25,-0.4,0.88,0.06,-1.1,-0.18,1742250316.193844
0.29,0.23,0.94,8.73,-4.33,-4.46,0.23,-0.4,0.88,0.43,-1.95,-1.71,1742250316.3078022
0.26,0.2,0.94,8.97,-7.63,-4.94,0.22,-0.41,0.88,5.07,-4.27,-0.85,1742250316.421785
0.22,0.18,0.95,4.88,-10.93,-1.28,0.23,-0.41,0.88,3.48,-0.18,-0.31,1742250316.5542002
0.21,0.19,0.93,-3.54,-12.76,1.59,0.23,-0.41,0.89,-0.92,-2.38,-0.61,1742250316.653474
0.18,0.19,0.95,-1.1,-4.88,1.22,0.2,-0.42,0.89,-0.24,-3.97,-0.61,1742250316.763836
0.16,0.21,0.93,-11.66,0.92,-6.9,0.17,-0.42,0.89,-2.44,-10.5,-0.79,1742250316.8778439
0.2,0.23,0.96,-18.13,-2.87,-3.3,0.21,-0.4,0.91,-2.14,-3.54,3.11,1742250316.995417
0.19,0.24,1.0,-24.05,2.08,-6.16,0.19,-0.4,0.88,-4.52,-8.91,2.69,1742250317.10578
0.16,0.27,0.95,-1.34,-5.31,-7.39,0.18,-0.36,0.97,-6.9,0.79,4.64,1742250317.219724
0.16,0.25,0.95,0.85,-0.55,-7.87,0.12,-0.38,0.92,-12.51,-5.8,4.03,1742250317.3338082
0.17,0.24,0.95,-4.76,-2.69,-6.41,0.13,-0.34,0.93,-6.23,-5.25,2.56,1742250317.447807
0.18,0.26,0.93,-9.83,4.27,-6.29,0.14,-0.35,0.93,0.18,-8.36,-0.43,1742250317.561791
0.18,0.27,0.93,-4.52,0.24,-5.55,0.13,-0.37,0.94,0.73,-2.38,0.37,1742250317.675711
0.17,0.24,0.97,-3.66,0.24,-8.3,0.13,-0.36,0.92,-2.99,-2.62,3.36,1742250317.793389
0.17,0.24,0.94,-12.15,-0.85,-17.82,0.13,-0.37,0.95,-3.17,-4.09,6.71,1742250317.9037051
0.19,0.27,0.93,-4.09,6.29,-13.79,0.13,-0.39,0.88,-3.17,-8.12,16.17,1742250318.017774
0.22,0.28,0.93,-2.56,2.69,-9.16,0.13,-0.36,0.92,3.6,-15.2,30.33,1742250318.1337721
0.22,0.27,0.93,-2.81,1.4,-7.08,0.11,-0.32,0.95,3.17,-13.18,34.18,1742250318.244582
0.22,0.27,0.94,-0.24,2.93,-2.87,0.11,-0.31,0.96,7.57,-6.53,28.69,1742250318.35762
0.25,0.29,0.96,-4.52,11.47,-9.28,0.12,-0.37,1.0,20.26,-1.4,26.18,1742250318.474537
0.34,0.41,0.97,-105.9,43.64,-43.82,0.18,-0.38,0.92,29.42,6.65,32.84,1742250318.585475
0.45,0.53,0.72,-97.35,59.51,-62.93,0.18,-0.39,0.86,5.68,8.67,29.97,1742250318.698504
0.53,0.51,0.55,-31.37,38.09,-41.38,0.19,-0.36,0.85,1.71,-8.73,20.08,1742250318.813473
0.6,0.55,0.54,-12.94,7.26,-16.24,0.2,-0.33,0.87,2.32,-17.27,9.7,1742250318.92557
0.64,0.55,0.55,-7.08,18.62,-19.17,0.2,-0.37,0.87,1.89,-21.36,0.31,1742250319.0385568
0.73,0.56,0.52,6.16,16.72,-23.5,0.15,-0.4,0.91,2.62,-18.98,-5.49,1742250319.153743
0.77,0.44,0.47,-1.1,1.28,-29.97,0.12,-0.43,0.92,9.34,-9.4,-1.95,1742250319.265701
0.82,0.51,0.36,-110.9,-2.99,-53.53,0.1,-0.44,0.91,2.87,-8.67,7.26,1742250319.37957
0.8,0.44,0.34,-92.77,-20.57,-70.07,0.09,-0.41,0.93,1.1,-8.85,8.85,1742250319.495102
0.79,0.34,0.36,-68.66,-18.37,-56.03,0.08,-0.39,0.92,3.23,0.49,2.62,1742250319.607501
0.84,0.31,0.36,-12.08,-4.52,-18.13,0.08,-0.42,0.91,1.46,4.7,0.61,1742250319.720474
0.86,0.35,0.34,-8.24,-4.21,-8.18,0.1,-0.43,0.89,-0.85,1.59,-1.1,1742250319.833687
0.89,0.31,0.34,9.89,1.34,-5.74,0.1,-0.43,0.91,-0.79,2.26,2.62,1742250319.9475908
0.88,0.31,0.34,3.91,4.09,-4.52,0.11,-0.42,0.89,1.4,1.53,1.77,1742250320.061483
0.89,0.3,0.34,12.08,-0.06,0.12,0.11,-0.42,0.89,-0.18,0.61,0.24,1742250320.174548
0.89,0.25,0.35,16.91,-0.24,-0.12,0.12,-0.42,0.9,1.71,-0.18,-0.79,1742250320.288654
0.9,0.25,0.33,2.08,-2.56,-0.37,0.12,-0.43,0.91,0.31,1.28,-0.49,1742250320.402563
0.89,0.28,0.36,1.34,-2.99,-0.18,0.12,-0.43,0.89,0.37,2.75,-1.46,1742250320.51658
0.9,0.33,0.39,17.76,2.01,-10.93,0.13,-0.42,0.88,0.92,1.83,-0.98,1742250320.633554
0.92,0.21,0.4,92.83,32.78,-25.27,0.13,-0.44,0.89,1.89,-0.18,-0.37,1742250320.7436428
0.95,0.13,0.27,61.89,20.63,-17.27,0.12,-0.43,0.89,-1.46,0.0,1.22,1742250320.8574631
0.92,0.05,0.25,1.77,19.23,-9.16,0.12,-0.42,0.91,-0.61,1.65,-4.15,1742250320.974566
0.96,0.09,0.2,-58.11,7.51,-8.73,0.13,-0.44,0.88,-0.24,2.32,-5.68,1742250321.084597
0.98,0.09,0.25,-50.42,-8.12,-1.71,0.13,-0.44,0.89,-2.38,-0.49,-1.71,1742250321.1986508
0.93,-0.0,0.32,-5.68,-8.12,-2.5,0.13,-0.43,0.89,-1.1,-0.12,-0.12,1742250321.313247
0.97,0.1,0.26,-5.25,6.35,-5.8,0.12,-0.44,0.89,0.24,0.49,2.56,1742250321.4263391
0.95,0.06,0.28,-1.28,8.3,-4.15,0.12,-0.42,0.9,1.65,-0.06,2.62,1742250321.539407
0.96,0.05,0.24,-1.77,4.88,-4.94,0.13,-0.42,0.89,-1.46,-1.95,-0.98,1742250321.652648
0.94,0.05,0.24,-3.11,-1.22,-7.08,0.13,-0.4,0.91,-5.98,-1.59,0.12,1742250321.766559
0.97,0.04,0.28,22.03,-19.04,12.82,0.17,-0.35,0.95,-11.54,4.64,-6.77,1742250321.8805592
0.89,-0.02,0.34,53.04,3.78,44.43,0.18,-0.38,0.96,-26.37,17.76,-5.25,1742250321.994571
0.88,-0.01,0.33,96.5,-3.48,91.86,0.23,-0.34,0.97,-26.98,33.63,13.37,1742250322.108447
0.85,0.34,0.36,76.11,-45.78,118.16,0.27,-0.3,0.94,-45.78,23.86,3.54,1742250322.222431
0.76,0.4,0.5,68.79,-46.87,85.02,0.3,-0.2,0.92,-31.37,11.84,1.46,1742250322.3354309
0.69,0.47,0.61,27.16,-31.37,32.71,0.3,-0.23,0.93,-29.85,6.35,-11.66,1742250322.4502668
0.66,0.51,0.65,127.2,-36.32,-12.45,0.32,-0.11,0.85,34.91,-16.05,-35.22,1742250322.5635588
0.57,0.0,0.59,242.92,-125.24,-44.43,0.09,-0.51,1.0,-21.97,-63.6,-41.2,1742250322.6776378
0.32,-0.13,0.96,-32.9,-59.08,-45.72,-0.01,-0.53,0.89,-38.27,-39.79,22.77,1742250322.792761
0.23,-0.1,0.99,-17.94,-36.07,-17.33,0.08,-0.22,0.97,-18.49,-15.69,23.62,1742250322.905576
0.06,-0.1,1.05,16.42,-58.59,-10.01,0.04,-0.17,1.05,-32.65,0.24,6.84,1742250323.019417
0.03,-0.09,1.01,0.43,-56.34,24.84,0.04,-0.09,1.01,-34.12,-6.47,8.61,1742250323.133559
-0.15,0.12,0.95,-135.93,-53.59,133.48,-0.0,-0.12,0.89,-14.59,-6.53,10.31,1742250323.247561
0.0,0.13,0.89,-5.37,9.09,-22.52,-0.03,-0.06,1.05,56.64,-35.89,24.17,1742250323.361464
-0.05,0.13,1.05,-12.82,-6.53,-46.45,0.01,-0.18,1.05,53.59,-6.84,15.38,1742250323.475335
-0.03,0.1,1.06,-9.89,19.84,-22.03,0.16,-0.16,0.92,-4.33,2.32,-6.9,1742250323.593409
-0.0,0.3,0.99,-59.75,16.36,17.64,0.01,-0.25,1.1,65.31,6.47,-20.75,1742250323.703451
0.04,0.37,0.94,-25.02,9.34,-6.35,0.0,-0.33,0.9,1.22,-0.79,4.88,1742250323.817311
0.08,0.49,0.93,-13.79,5.13,-6.65,0.03,-0.26,0.96,7.32,8.85,-28.2,1742250323.9330199
0.11,0.21,0.89,9.64,6.65,-19.65,0.08,-0.22,0.96,-31.74,20.32,-52.86,1742250324.044439
0.12,0.33,0.94,7.14,8.67,27.71,0.02,-0.26,0.94,-11.96,31.25,-57.68,1742250324.158407
0.12,0.31,0.97,-5.31,8.73,42.3,0.04,-0.29,0.94,10.5,1.4,-3.97,1742250324.2735841
0.14,0.33,0.92,19.1,13.0,-10.74,0.04,-0.33,0.95,62.87,-16.42,22.58,1742250324.3863099
0.17,0.3,0.91,0.67,5.8,-32.96,0.08,-0.36,0.93,34.06,-3.17,15.69,1742250324.499339
0.19,0.18,0.93,22.77,-8.61,-12.76,0.07,-0.38,0.93,16.72,8.73,24.41,1742250324.6135979
0.19,0.18,0.95,16.36,6.29,0.85,0.09,-0.43,0.94,24.23,11.29,25.21,1742250324.7254121
0.19,0.13,0.96,15.32,4.27,-3.48,0.18,-0.37,0.95,-62.44,44.19,17.21,1742250324.8393059
0.2,0.09,0.97,25.39,-0.12,1.46,0.21,-0.31,0.96,11.96,57.74,36.25,1742250324.954083
0.25,0.08,1.14,-26.06,61.4,-47.91,0.45,-0.33,0.76,72.39,73.55,13.18,1742250325.065228
0.34,-0.07,0.76,-30.76,-24.35,-141.3,0.41,-0.52,0.69,6.9,0.24,21.48,1742250325.17837
0.28,0.03,1.03,0.37,-12.76,-4.52,0.42,-0.44,0.77,-2.08,-14.28,24.17,1742250325.293917
0.27,0.18,0.94,1.16,-1.83,2.93,0.44,-0.4,0.85,15.38,-4.58,7.81,1742250325.40633
0.29,0.11,0.96,9.34,7.02,-10.74,0.43,-0.42,0.77,0.73,2.38,-2.5,1742250325.5203578
0.31,0.11,0.96,19.78,9.83,-18.13,0.41,-0.47,0.75,-9.95,-0.79,-3.66,1742250325.634542
0.33,0.06,0.92,23.38,-2.93,-5.07,0.42,-0.43,0.8,-6.23,-2.44,-1.95,1742250325.7484312
0.32,0.02,0.93,0.55,-8.73,10.25,0.41,-0.44,0.79,-3.42,7.45,-5.07,1742250325.862433
0.29,-0.01,0.93,5.07,-18.07,19.9,0.41,-0.53,0.79,15.08,22.52,10.99,1742250325.976129
0.26,0.03,0.94,1.89,-13.0,22.22,0.47,-1.04,0.74,41.44,-0.92,31.8,1742250326.093913
0.25,0.08,1.05,1.4,4.64,5.43,0.49,-0.47,0.49,-16.72,-42.54,64.76,1742250326.202353
0.24,-0.01,0.93,15.62,-28.26,25.88,0.29,-0.15,0.75,-111.45,-58.23,21.97,1742250326.316294
0.14,-0.01,0.94,6.84,-45.9,54.44,0.29,0.16,1.0,-49.01,-57.68,-27.04,1742250326.434474
0.09,-0.01,1.01,5.31,-8.24,17.94,0.12,-0.03,0.99,-3.23,-3.6,-1.04,1742250326.544408
0.08,0.04,0.98,15.08,-6.84,39.18,0.35,-0.1,0.76,48.34,24.9,-10.8,1742250326.658218
0.06,0.05,1.03,15.62,1.53,-6.84,0.35,-0.15,0.84,-77.7,-20.26,0.06,1742250326.774546
0.06,-0.07,0.96,52.86,-6.23,-8.3,0.07,-0.13,1.0,36.93,-20.39,-2.62,1742250326.886357
0.05,-0.02,0.98,17.82,-6.1,-2.44,0.39,-0.17,0.67,-25.63,77.51,14.71,1742250327.000192
0.1,-0.14,0.94,23.74,31.01,9.89,0.33,-0.13,1.01,-29.91,-15.32,-2.99,1742250327.114424
0.07,-0.18,1.04,20.32,-12.27,9.77,0.19,0.07,1.13,-5.62,3.6,-5.0,1742250327.2282429
0.17,-0.24,1.02,1.89,6.04,63.6,0.23,-0.18,0.97,-4.52,8.0,-6.41,1742250327.342329
0.15,-0.12,0.99,-38.15,-34.85,-96.98,0.26,0.13,0.99,-17.15,8.06,13.37,1742250327.456083
0.07,-0.24,0.82,48.16,8.06,4.33,0.21,0.06,0.89,7.08,20.32,23.5,1742250327.573426
0.04,-0.37,0.96,-22.16,-15.5,35.1,0.34,-0.15,1.0,-44.37,67.69,33.33,1742250327.682245
-0.05,-0.29,0.96,39.37,5.19,13.61,0.52,0.34,0.82,-78.06,11.41,22.64,1742250327.796139
0.05,-0.51,0.93,-33.33,-48.95,91.43,0.39,0.13,0.84,22.22,30.15,29.66,1742250327.915241
0.05,-0.29,0.89,-28.63,24.41,122.92,0.54,0.15,0.86,34.61,22.83,36.99,1742250328.022059
0.15,-0.1,0.92,-77.03,14.04,126.53,0.53,0.15,0.82,27.34,15.01,9.09,1742250328.134899
0.21,0.08,0.87,-84.29,17.82,-57.98,0.4,0.17,0.88,18.98,18.01,-11.6,1742250328.248034
0.16,0.07,1.0,-1.89,-11.11,-70.19,0.69,0.46,0.92,111.39,71.11,-106.26,1742250328.3610408
0.12,-0.12,1.01,51.15,9.16,-22.28,0.51,-0.37,0.45,64.94,-102.91,-129.15,1742250328.4756742
0.07,-0.15,1.02,-9.09,0.73,-20.45,0.4,-0.35,0.83,-134.95,-30.27,-63.48,1742250328.5884318
0.16,0.09,0.97,-52.8,73.24,16.97,0.18,-0.36,0.92,-140.14,1.83,-68.12,1742250328.702265
0.47,0.37,0.79,-152.4,89.29,-66.89,0.3,-0.06,0.97,-4.03,-18.19,11.23,1742250328.81856
0.63,0.31,0.58,-33.63,15.75,-155.15,0.22,-0.05,0.99,4.94,-5.31,12.94,1742250328.935145
0.49,-0.26,0.9,52.25,-9.95,-58.47,0.26,-0.01,0.95,-20.32,10.19,14.47,1742250329.0441291
0.54,-0.02,0.96,9.16,18.01,5.19,0.19,0.02,1.0,-17.82,-8.97,5.92,1742250329.1580732
0.55,0.13,0.78,-67.44,6.1,2.62,0.27,0.07,0.98,-21.73,1.4,26.67,1742250329.275337
0.61,0.15,0.78,31.31,12.7,37.6,0.24,0.13,0.97,-43.82,1.71,13.37,1742250329.385008
0.56,0.26,0.78,5.07,-5.07,-20.94,0.31,0.16,0.91,-18.01,18.86,9.83,1742250329.498049
0.58,-0.24,0.71,114.14,24.9,-15.69,0.23,0.34,0.99,34.79,-18.13,72.94,1742250329.614798
0.64,0.01,0.88,-37.11,23.19,41.08,-0.0,0.35,1.0,14.59,11.66,197.02,1742250329.724043
0.55,0.02,0.79,0.92,-13.31,13.73,0.13,0.34,0.93,-14.34,12.7,-55.48,1742250329.837128
0.58,-0.06,0.77,15.08,7.63,-6.77,0.21,0.13,0.96,50.48,-6.41,-7.63,1742250329.955155
0.67,-0.38,0.78,-123.84,37.29,63.6,0.23,0.19,0.95,1.16,1.22,-3.17,1742250330.0650399
0.69,0.31,0.52,-145.69,-109.31,98.63,0.23,0.18,0.97,-14.1,4.03,4.52,1742250330.179015
0.44,0.72,0.64,-124.27,-16.91,-26.92,0.21,0.27,0.92,-7.81,8.0,16.66,1742250330.298645
0.48,0.5,0.69,46.87,14.95,-7.45,0.19,0.25,0.95,-0.85,3.42,-4.46,1742250330.4051552
0.45,0.44,0.72,11.96,-3.23,9.89,0.18,0.22,0.88,31.98,2.5,1.4,1742250330.518935
0.4,0.58,0.81,182.86,33.02,4.27,0.14,0.25,1.18,100.16,-16.3,-106.45,1742250330.635363
0.5,-0.14,0.79,135.19,-84.41,29.24,0.3,-0.53,0.95,-19.78,168.33,-78.19,1742250330.746228
0.37,-0.03,1.0,40.16,-58.11,-5.62,0.59,-0.19,0.53,103.39,28.69,117.74,1742250330.859966
0.2,-0.13,0.97,20.39,-8.06,-29.72,0.54,0.13,0.73,3.6,-64.39,71.9,1742250330.976337
0.15,-0.19,0.99,10.44,-8.42,-14.77,0.42,0.24,0.86,-20.26,-18.68,36.99,1742250331.086179
0.22,-0.17,0.95,4.27,5.68,14.28,0.42,0.26,0.91,1.28,11.6,2.14,1742250331.199841
0.18,-0.12,0.97,7.2,-10.68,108.28,0.46,0.02,0.88,-1.16,-6.29,7.32,1742250331.315399
0.19,-0.18,0.98,-34.3,0.49,-8.85,0.42,0.28,0.9,45.96,-2.26,-4.76,1742250331.427161
0.17,0.17,0.96,8.0,0.92,-4.94,0.49,0.21,0.85,-18.07,43.46,-93.51,1742250331.540972
0.16,-0.0,0.95,1.34,-10.01,0.73,0.5,-0.27,0.55,67.2,-98.33,-61.77,1742250331.655956
0.11,0.03,0.98,61.83,-15.32,9.28,0.23,-0.39,1.01,11.05,-54.08,19.47,1742250331.7680519
0.09,-0.1,1.03,8.61,-11.29,-12.57,0.28,-0.2,0.91,11.41,-4.52,-7.02,1742250331.882101
0.06,-0.15,0.93,7.32,-14.4,-10.62,0.28,-0.28,0.9,-2.75,-10.56,-13.67,1742250331.9983869
0.02,-0.2,0.97,0.37,-6.23,34.97,0.23,-0.01,0.95,5.31,7.51,-25.76,1742250332.115691
-0.03,-0.0,0.97,-18.19,0.18,42.79,0.16,-0.15,0.81,-151.0,-37.48,-95.4,1742250332.224257
0.01,-0.01,1.03,-18.68,6.9,32.53,0.04,-0.33,1.06,15.62,-49.93,-18.8,1742250332.338101
0.1,0.03,0.96,-22.46,17.58,35.46,0.1,-0.24,1.11,52.37,-4.15,-2.87,1742250332.4558022
0.13,0.11,0.97,-22.28,11.6,29.48,0.14,-0.3,1.02,26.92,18.07,-3.54,1742250332.566047
0.11,0.11,0.97,-13.79,1.71,11.9,0.15,-0.25,0.94,33.51,35.58,15.56,1742250332.679905
0.16,0.23,0.95,-8.36,10.62,11.66,0.25,-0.26,0.89,8.67,31.8,0.61,1742250332.7954931
0.15,0.17,1.01,-3.91,-1.1,-4.46,0.3,-0.41,1.07,-3.48,15.14,0.31,1742250332.90604
0.12,0.16,0.94,-17.52,11.23,2.75,0.29,-0.33,0.95,-5.31,4.39,-2.14,1742250333.0201201
0.2,0.22,1.0,-13.73,17.58,6.96,0.32,-0.33,0.88,-2.08,0.67,-0.18,1742250333.136349
0.23,0.24,0.95,-0.98,3.3,-4.94,0.27,-0.3,0.93,-18.86,-35.83,11.35,1742250333.24815
0.21,0.24,0.94,-3.11,4.33,1.83,0.23,-0.22,0.97,4.09,-0.31,-0.61,1742250333.36213
0.22,0.26,0.93,-4.76,9.34,6.84,0.25,-0.28,0.93,16.97,28.99,-15.87,1742250333.47717
0.24,0.27,0.93,-3.72,11.9,12.51,0.33,-0.34,0.83,15.87,-2.01,16.3,1742250333.596009
0.26,0.24,0.93,-4.7,2.2,0.55,0.26,-0.29,0.95,-2.62,0.0,5.13,1742250333.703864
0.24,0.3,0.91,5.49,-2.5,-1.4,0.31,-0.31,0.89,6.77,8.91,-4.27,1742250333.817879
0.25,0.26,0.92,1.53,-1.46,-0.67,0.32,-0.38,0.86,10.13,3.6,-1.83,1742250333.935636
0.25,0.26,0.92,0.18,-16.66,6.16,0.31,-0.35,0.9,-1.04,2.08,-5.55,1742250334.045026
0.15,0.31,1.01,-6.96,-11.72,4.94,0.31,-0.36,0.9,0.12,8.48,-4.76,1742250334.1589
