L-AccX,L-AccY,L-AccZ,L-GyrX,L-GyrY,L-GyrZ,R-AccX,R-AccY,R-AccZ,R-GyrX,R-GyrY,R-GyrZ,timestamp
0.41,0.31,-0.84,-3.54,4.82,-10.07,0.14,-0.26,0.95,-4.82,-0.18,13.06,1742256893.773422
0.42,0.3,-0.86,0.92,3.6,-6.53,0.15,-0.24,0.94,0.0,-0.55,7.26,1742256893.773695
0.42,0.33,-0.83,3.11,-0.18,-0.92,0.14,-0.26,0.94,2.08,0.24,1.59,1742256893.773895
0.44,0.3,-0.82,22.71,0.31,3.97,0.12,-0.19,0.96,6.04,-1.28,-5.92,1742256893.774118
0.42,0.52,-0.76,-6.84,15.5,-3.42,-0.17,0.21,0.91,-11.41,-8.54,-54.02,1742256893.774404
0.34,0.31,-0.85,-18.25,26.86,1.65,-0.28,0.27,0.76,-15.38,-31.07,-225.28,1742256893.774631
0.31,0.29,-0.93,8.73,20.26,-14.53,-0.27,-0.35,0.96,-37.29,21.18,-202.33,1742256893.774843
0.32,0.32,-0.87,12.27,18.68,-6.47,-0.1,-1.03,1.22,46.63,27.95,-25.45,1742256893.775049
0.25,0.46,-0.93,2.69,5.13,5.07,0.05,-0.25,0.99,-20.39,20.45,66.04,1742256893.775247
0.29,0.44,-0.82,7.51,3.48,-5.55,-0.0,0.23,0.76,-28.2,-10.5,-35.83,1742256893.775449
0.26,0.38,-0.87,6.77,5.31,-7.81,-0.3,-0.08,0.93,-10.93,-15.87,-83.13,1742256893.7756531
0.24,0.39,-0.9,5.25,7.39,-4.27,-0.01,-0.22,1.15,-20.63,64.7,-15.87,1742256893.775855
0.25,0.4,-0.89,6.04,-0.18,-3.72,0.23,-0.16,1.03,13.85,88.99,-23.32,1742256893.776052
0.27,0.39,-0.88,3.36,-3.23,1.1,0.22,-0.16,0.97,-19.04,18.8,36.44,1742256893.776247
0.27,0.43,-0.85,3.11,-4.09,6.1,0.23,0.02,0.91,14.47,-10.19,3.48,1742256893.7764359
0.27,0.46,-0.85,1.71,0.0,0.92,0.2,-0.02,1.07,24.48,88.87,0.49,1742256893.7766268
0.27,0.44,-0.87,0.98,0.79,0.37,0.48,-0.28,0.67,15.26,22.77,-17.4,1742256893.77682
0.27,0.45,-0.83,1.04,3.54,-4.88,0.33,-0.15,1.01,4.94,-10.13,-7.14,1742256893.777015
0.25,0.44,-0.87,-1.16,1.28,-0.06,0.32,-0.14,0.95,2.32,0.43,-2.75,1742256893.7772129
0.27,0.45,-0.84,0.31,0.73,-2.44,0.33,-0.18,0.93,2.75,0.67,0.98,1742256893.7774
0.26,0.42,-0.86,0.67,3.66,-2.69,0.36,-0.18,0.87,1.1,9.83,4.03,1742256893.777668
0.26,0.45,-0.87,0.0,2.01,0.31,0.35,-0.11,0.91,-1.22,6.47,3.05,1742256893.777877
0.26,0.44,-0.85,-0.18,-0.12,-3.23,0.4,-0.14,0.88,-8.79,26.73,7.45,1742256893.849041
0.26,0.42,-0.85,-1.71,0.67,-0.06,0.45,-0.11,0.92,-55.18,43.64,22.34,1742256893.957678
0.26,0.44,-0.85,-0.85,0.43,2.01,0.5,0.07,0.83,-13.55,0.43,-5.86,1742256894.07699
0.25,0.46,-0.86,-0.12,0.79,0.37,0.5,-0.08,0.83,11.41,-7.32,-28.75,1742256894.185705
0.26,0.44,-0.86,-0.67,2.5,-3.23,0.45,-0.17,0.9,16.78,-20.51,-9.95,1742256894.299692
0.25,0.43,-0.86,-2.75,5.37,-4.03,0.44,-0.06,0.83,3.36,-16.3,0.92,1742256894.413792
0.25,0.4,-0.87,-8.54,5.07,-3.91,0.45,-0.16,0.93,-5.8,0.24,-2.62,1742256894.5275898
0.24,0.34,-0.94,0.61,-2.69,15.56,0.54,-0.48,1.04,38.51,-8.3,104.25,1742256894.641454
0.19,0.39,-0.92,1.59,-11.47,19.53,0.33,-0.38,0.88,112.37,-65.31,125.06,1742256894.756861
0.22,0.49,-0.88,6.41,-32.78,24.11,0.16,-0.08,0.84,70.13,-45.9,155.64,1742256894.869447
0.29,0.49,-0.82,1.04,-25.57,4.46,0.17,-0.07,0.84,68.3,-48.83,78.61,1742256894.983451
0.35,0.5,-0.77,-8.0,-17.4,-5.19,0.18,-0.21,0.89,17.09,-39.73,19.47,1742256895.0976598
0.38,0.44,-0.71,-20.39,0.43,-0.18,0.12,-0.3,0.95,-5.68,-50.84,-2.81,1742256895.2164748
0.35,0.4,-0.84,-2.38,-4.15,-0.73,0.15,-0.33,0.95,-6.77,2.08,3.66,1742256895.325635
0.34,0.41,-0.85,-4.03,-10.13,7.57,0.2,-0.29,0.9,-7.51,4.58,5.86,1742256895.4395788
0.35,0.34,-0.87,-1.46,-9.46,1.22,0.19,-0.3,0.95,2.32,-5.98,3.85,1742256895.555864
0.42,0.47,-0.76,-12.08,-8.0,3.78,0.2,-0.3,0.92,-1.65,2.26,5.0,1742256895.6675892
0.4,0.37,-0.81,1.16,0.06,-10.13,0.2,-0.28,0.9,-12.88,-5.43,9.4,1742256895.781494
0.39,0.37,-0.82,0.98,3.3,-8.91,0.2,-0.24,0.94,4.39,3.85,5.07,1742256895.899034
0.41,0.36,-0.85,5.43,4.27,-6.35,0.22,-0.25,0.91,4.03,10.56,3.85,1742256896.016186
0.39,0.38,-0.83,0.73,2.5,-4.15,0.24,-0.28,0.92,2.87,-2.93,0.98,1742256896.1235049
0.39,0.39,-0.83,-0.49,2.01,-6.04,0.24,-0.29,0.91,7.51,6.9,2.5,1742256896.237592
0.41,0.36,-0.83,1.71,0.37,-6.35,0.26,-0.29,0.91,1.16,-0.06,5.31,1742256896.357207
0.41,0.36,-0.83,1.04,0.79,-3.48,0.26,-0.28,0.92,1.65,-2.75,3.97,1742256896.465518
0.4,0.36,-0.84,0.18,0.12,-2.99,0.26,-0.3,0.91,-0.18,-0.85,1.34,1742256896.579511
0.4,0.36,-0.83,-2.56,1.16,-1.71,0.25,-0.28,0.91,0.18,-5.55,2.44,1742256896.696036
0.41,0.35,-0.84,-2.14,3.66,-4.33,0.24,-0.29,0.91,-1.46,-12.82,3.78,1742256896.807601
0.41,0.36,-0.84,-1.1,2.75,-2.56,0.22,-0.29,0.92,1.1,-7.81,2.14,1742256896.9215171
0.39,0.34,-0.84,1.46,1.65,-2.01,0.21,-0.28,0.92,1.16,-1.4,2.5,1742256897.0356748
0.39,0.35,-0.84,-0.98,1.28,-1.4,0.21,-0.3,0.93,3.17,0.31,0.0,1742256897.155383
0.39,0.35,-0.85,-2.87,2.26,-1.34,0.22,-0.31,0.91,6.77,-4.58,-2.56,1742256897.263517
0.39,0.34,-0.85,-0.67,1.71,-3.23,0.2,-0.3,0.91,0.18,-2.38,0.37,1742256897.3774562
0.39,0.33,-0.86,0.0,-0.61,-1.46,0.19,-0.31,0.92,3.54,-0.12,0.24,1742256897.494785
0.4,0.33,-0.86,2.38,-1.22,3.23,0.19,-0.3,0.93,0.67,1.59,-0.37,1742256897.605427
0.37,0.39,-0.83,2.5,2.5,-0.85,0.22,-0.33,0.88,3.36,2.75,-1.53,1742256897.7193978
0.4,0.34,-0.82,-5.37,8.73,1.16,0.24,-0.31,0.9,0.85,-5.55,5.86,1742256897.835994
0.34,0.35,-0.89,-3.54,9.03,-2.26,0.18,-0.35,0.92,5.37,-13.85,-2.14,1742256897.947499
0.35,0.34,-0.88,-4.46,1.4,-4.94,0.15,-0.37,0.93,0.85,-11.41,3.3,1742256898.0615082
0.37,0.32,-0.87,0.18,-5.37,-0.79,0.13,-0.3,0.92,-1.53,1.83,2.14,1742256898.175488
0.38,0.34,-0.85,1.77,-2.87,0.98,0.17,-0.3,0.92,-0.37,4.09,0.43,1742256898.294785
0.38,0.35,-0.84,-0.79,0.06,-0.49,0.19,-0.31,0.91,-0.61,0.18,-1.53,1742256898.403455
0.38,0.34,-0.86,-0.24,0.37,-1.77,0.18,-0.32,0.92,1.16,-0.79,0.43,1742256898.5175
0.38,0.33,-0.87,-0.73,1.65,-1.16,0.18,-0.3,0.92,2.01,1.04,1.4,1742256898.6346729
0.37,0.32,-0.86,0.67,-1.77,0.49,0.15,-0.33,0.92,1.34,0.12,0.31,1742256898.745307
0.38,0.33,-0.85,-1.53,1.22,2.93,0.18,-0.32,0.91,2.01,1.89,-1.71,1742256898.859448
0.38,0.35,-0.88,0.0,-1.53,0.61,0.17,-0.34,0.93,1.04,0.0,-3.3,1742256898.974708
0.38,0.34,-0.85,-0.55,-1.65,-1.34,0.19,-0.33,0.91,-1.1,1.16,0.06,1742256899.087507
0.38,0.34,-0.85,0.0,-0.85,-0.92,0.18,-0.32,0.91,-0.61,1.04,0.24,1742256899.201393
0.39,0.34,-0.85,-1.65,0.18,-1.89,0.2,-0.32,0.92,0.24,1.34,1.22,1742256899.315414
0.38,0.32,-0.87,-1.77,0.37,-0.85,0.18,-0.32,0.92,-0.06,-1.65,0.06,1742256899.43423
0.38,0.32,-0.86,-1.4,-0.61,1.34,0.17,-0.31,0.92,1.1,2.62,-0.31,1742256899.543426
0.37,0.34,-0.86,-1.28,0.92,0.31,0.19,-0.33,0.91,-0.85,-1.77,-1.83,1742256899.6573608
0.38,0.33,-0.86,0.0,-0.98,0.24,0.18,-0.32,0.91,-0.49,1.16,-0.67,1742256899.774438
0.38,0.33,-0.86,-1.28,0.06,-1.28,0.19,-0.33,0.91,0.31,0.92,0.0,1742256899.885398
0.38,0.32,-0.86,-0.61,0.18,-1.77,0.18,-0.32,0.92,-1.04,-1.34,1.34,1742256899.9994829
0.38,0.32,-0.87,-0.61,-0.06,-0.92,0.18,-0.32,0.92,0.12,2.01,-0.73,1742256900.114469
0.39,0.32,-0.86,-1.04,2.14,-0.49,0.19,-0.31,0.91,-0.31,-1.53,0.06,1742256900.227455
0.37,0.32,-0.87,-0.79,1.22,-1.71,0.18,-0.33,0.92,0.24,-1.28,-0.06,1742256900.3414452
0.37,0.32,-0.86,0.31,1.4,-0.73,0.18,-0.31,0.92,0.61,-0.31,0.0,1742256900.45535
0.38,0.31,-0.85,0.49,1.59,-0.92,0.17,-0.32,0.9,1.65,0.98,2.08,1742256900.574195
0.39,0.31,-0.89,0.18,2.81,0.43,0.18,-0.32,0.94,4.39,-0.49,0.06,1742256900.683179
0.36,0.32,-0.87,-0.24,-0.31,0.92,0.17,-0.34,0.92,1.46,0.79,-1.53,1742256900.7963488
0.37,0.32,-0.87,-2.62,6.23,2.62,0.19,-0.31,0.92,2.38,-0.55,-1.34,1742256900.910443
0.34,0.34,-0.88,-1.22,1.71,-0.61,0.17,-0.35,0.91,-0.92,-6.35,-1.34,1742256901.024373
0.35,0.32,-0.87,-0.92,0.06,-1.77,0.16,-0.35,0.91,1.46,2.81,1.65,1742256901.138401
0.35,0.31,-0.88,-2.01,-1.34,-0.73,0.16,-0.34,0.92,0.24,0.67,0.55,1742256901.254347
0.36,0.3,-0.88,-1.22,-0.79,-0.37,0.17,-0.33,0.91,-2.56,-0.06,0.0,1742256901.366427
0.36,0.31,-0.88,-1.65,-1.83,0.12,0.16,-0.34,0.92,-1.89,0.06,-1.4,1742256901.480333
0.37,0.3,-0.88,-2.01,-1.89,-0.37,0.17,-0.33,0.91,-2.01,-0.43,-1.04,1742256901.594539
0.36,0.31,-0.88,0.43,-2.87,2.2,0.16,-0.32,0.93,-1.89,2.38,-1.1,1742256901.70834
0.37,0.32,-0.85,0.49,-0.85,-5.68,0.2,-0.33,0.9,-1.59,1.46,3.72,1742256901.822371
0.38,0.3,-0.88,-0.98,1.46,-7.63,0.19,-0.3,0.92,-0.12,-2.26,6.35,1742256901.936388
0.38,0.27,-0.88,-0.85,-2.08,-3.36,0.16,-0.3,0.93,-1.22,-1.16,4.15,1742256902.0544488
0.37,0.3,-0.88,0.12,-0.61,-0.18,0.16,-0.31,0.92,-0.61,1.89,-0.37,1742256902.164333
0.37,0.33,-0.9,4.82,-7.93,-6.23,0.16,-0.34,0.94,0.18,2.99,2.08,1742256902.27834
0.4,0.31,-0.87,2.14,-18.07,-14.34,0.19,-0.35,0.93,-0.98,13.98,11.72,1742256902.396926
0.45,0.27,-0.82,-6.35,-14.59,-16.66,0.24,-0.28,0.91,-10.62,7.08,14.47,1742256902.5064561
0.48,0.25,-0.84,-11.96,-10.99,-18.55,0.24,-0.27,0.93,-7.75,-1.89,12.63,1742256902.620502
0.49,0.2,-0.84,-13.43,-9.52,-24.66,0.22,-0.22,0.93,-7.63,-3.66,13.79,1742256902.7343569
0.55,0.13,-0.81,-16.66,1.1,-32.9,0.25,-0.21,0.95,0.31,-12.57,16.17,1742256902.848331
0.54,0.06,-0.82,-24.96,2.08,-10.07,0.21,-0.17,0.94,-12.02,-14.04,-0.92,1742256902.963404
0.56,0.05,-0.79,-13.06,-6.23,4.03,0.2,-0.16,0.97,-11.96,1.4,-8.18,1742256903.076261
0.53,0.09,-0.77,2.99,-2.14,17.4,0.2,-0.16,0.91,6.16,9.64,-12.15,1742256903.19422
0.55,0.13,-0.84,11.11,-3.97,14.34,0.24,-0.21,0.94,10.19,10.68,-9.03,1742256903.304141
0.56,0.12,-0.81,8.73,-6.04,4.88,0.26,-0.23,0.92,7.39,11.29,2.01,1742256903.417451
0.55,0.15,-0.82,10.56,-2.75,5.07,0.26,-0.19,0.92,6.96,9.09,-0.24,1742256903.534168
0.57,0.14,-0.82,4.15,-3.48,2.62,0.26,-0.24,0.94,1.4,2.99,0.0,1742256903.644154
0.58,0.16,-0.81,3.91,-12.51,13.61,0.27,-0.22,0.94,3.78,12.39,-4.27,1742256903.758142
0.57,0.18,-0.78,1.28,-0.31,4.88,0.33,-0.23,0.9,3.11,11.35,-4.03,1742256903.8756711
0.57,0.19,-0.79,-2.08,2.44,2.26,0.31,-0.24,0.91,1.71,-0.85,-2.69,1742256903.986142
0.56,0.2,-0.8,1.59,1.95,0.73,0.31,-0.24,0.91,1.04,-0.49,-1.4,1742256904.1000562
0.56,0.19,-0.8,-0.79,2.08,-0.24,0.31,-0.25,0.9,3.48,0.49,-0.67,1742256904.21366
0.56,0.18,-0.79,-0.24,1.65,1.65,0.3,-0.25,0.91,1.71,0.24,-1.46,1742256904.327212
0.56,0.21,-0.79,3.42,2.2,3.3,0.31,-0.24,0.91,4.7,2.5,-3.23,1742256904.441055
0.55,0.18,-0.82,-0.85,3.11,1.77,0.31,-0.28,0.91,3.66,-1.59,-1.83,1742256904.5540328
0.56,0.19,-0.8,1.1,-2.01,7.51,0.29,-0.26,0.91,1.59,1.28,-3.11,1742256904.6671832
0.54,0.23,-0.81,2.75,-0.85,2.81,0.31,-0.29,0.9,3.85,5.37,-3.48,1742256904.780162
0.55,0.22,-0.79,-2.38,-1.4,-0.55,0.32,-0.29,0.89,-1.4,-0.79,1.22,1742256904.896283
0.54,0.26,-0.8,1.77,-1.16,-7.2,0.32,-0.29,0.9,0.85,0.37,2.01,1742256905.008257
0.57,0.18,-0.8,-2.44,-4.52,-16.36,0.31,-0.32,0.91,-0.85,-4.09,12.08,1742256905.1225111
0.55,0.14,-0.79,3.23,2.62,-1.83,0.31,-0.2,0.9,-0.73,1.53,5.49,1742256905.236167
0.57,0.2,-0.8,0.85,0.79,-3.85,0.32,-0.29,0.9,2.01,-1.34,0.55,1742256905.3504891
0.56,0.2,-0.77,-0.55,1.71,3.05,0.32,-0.21,0.91,-3.42,-0.73,-2.99,1742256905.464454
0.56,0.2,-0.8,-3.85,0.49,5.13,0.3,-0.27,0.91,-1.77,-0.73,-3.17,1742256905.578162
0.56,0.19,-0.79,-5.31,1.83,1.83,0.31,-0.26,0.91,-0.79,-1.77,-1.4,1742256905.6948538
0.56,0.17,-0.79,-4.46,2.01,2.32,0.31,-0.24,0.91,-3.11,-3.17,0.73,1742256905.806237
0.55,0.19,-0.82,-7.2,6.41,4.39,0.31,-0.26,0.91,-2.44,-3.66,-3.42,1742256905.920139
0.53,0.17,-0.81,-0.37,3.72,-3.6,0.27,-0.25,0.92,-8.54,-9.4,-4.58,1742256906.034164
0.52,0.17,-0.85,1.83,2.93,0.37,0.27,-0.23,0.93,2.38,-0.92,0.24,1742256906.147959
0.53,0.16,-0.83,2.44,-3.54,0.24,0.26,-0.25,0.94,0.43,2.75,2.93,1742256906.261157
0.52,0.19,-0.8,2.5,-1.04,3.11,0.28,-0.24,0.91,1.46,4.52,-0.06,1742256906.37633
0.53,0.2,-0.83,2.69,-3.66,3.66,0.27,-0.25,0.93,0.92,5.19,-0.85,1742256906.4890208
0.53,0.2,-0.79,-0.67,-0.18,-1.65,0.3,-0.26,0.9,-3.05,1.16,-0.73,1742256906.6032588
0.53,0.22,-0.81,0.85,2.38,0.37,0.3,-0.24,0.9,0.0,-0.73,-3.11,1742256906.716981
0.55,0.2,-0.82,7.45,-9.83,-2.81,0.29,-0.28,0.93,0.85,6.59,0.24,1742256906.835655
0.55,0.2,-0.78,8.42,-14.95,9.16,0.29,-0.21,0.92,1.95,19.59,-2.81,1742256906.944146
0.58,0.23,-0.8,4.64,-9.58,2.93,0.35,-0.28,0.9,1.4,10.86,-5.0,1742256907.057269
0.59,0.24,-0.74,3.97,-9.58,1.89,0.36,-0.26,0.88,-5.25,7.57,0.55,1742256907.174256
0.6,0.26,-0.77,-2.01,-3.36,7.45,0.38,-0.22,0.89,-5.13,5.74,-2.2,1742256907.2852101
0.61,0.27,-0.77,-3.48,-1.53,7.45,0.39,-0.25,0.88,-9.89,1.22,-5.62,1742256907.39919
0.59,0.26,-0.74,0.92,-1.4,5.8,0.38,-0.24,0.88,0.43,4.39,-3.97,1742256907.513849
0.59,0.28,-0.75,1.77,-0.67,5.43,0.4,-0.24,0.89,-1.1,3.6,-3.17,1742256907.6270258
0.59,0.27,-0.76,-0.37,-0.12,3.85,0.38,-0.25,0.88,0.85,2.01,-1.34,1742256907.741266
0.59,0.27,-0.74,-1.1,1.46,0.67,0.39,-0.24,0.88,-0.73,-0.98,-0.12,1742256907.85503
0.58,0.27,-0.76,-3.42,2.44,0.55,0.39,-0.24,0.88,0.73,-5.0,-0.85,1742256907.969007
0.57,0.26,-0.76,-0.43,1.34,-0.85,0.38,-0.25,0.88,1.59,-2.87,-0.55,1742256908.083214
0.57,0.26,-0.76,-0.43,1.34,0.43,0.37,-0.25,0.88,2.01,-0.37,-1.1,1742256908.197061
0.57,0.26,-0.76,-4.27,4.27,3.85,0.37,-0.24,0.88,0.79,-3.11,-2.93,1742256908.313161
0.56,0.27,-0.79,-6.59,6.16,5.68,0.35,-0.25,0.9,1.53,-5.19,-6.84,1742256908.425101
0.55,0.27,-0.79,0.49,2.44,1.4,0.35,-0.25,0.89,1.71,-1.59,-2.99,1742256908.538955
0.54,0.27,-0.79,-0.31,2.26,-0.49,0.35,-0.27,0.89,1.89,-2.01,-1.46,1742256908.653328
0.54,0.26,-0.79,-4.15,7.75,-0.79,0.35,-0.26,0.89,1.34,-5.19,0.12,1742256908.766201
0.53,0.27,-0.82,8.36,-2.38,-0.79,0.32,-0.26,0.91,2.14,-6.59,-0.92,1742256908.880168
0.54,0.26,-0.79,0.12,-3.91,-1.4,0.33,-0.27,0.89,-3.85,0.73,2.81,1742256908.994069
0.54,0.26,-0.77,-2.69,6.16,-1.4,0.33,-0.23,0.9,-0.12,-10.38,-0.92,1742256909.108207
0.53,0.26,-0.8,-0.98,5.8,-3.05,0.28,-0.26,0.92,1.59,-10.56,-0.49,1742256909.222059
0.53,0.26,-0.81,-0.61,4.27,-3.78,0.28,-0.25,0.91,2.62,-3.78,2.75,1742256909.336035
0.51,0.26,-0.81,2.01,0.85,-2.75,0.3,-0.29,0.93,3.97,-4.46,-0.24,1742256909.4531279
0.51,0.22,-0.81,-3.72,-3.23,1.22,0.24,-0.25,0.94,-12.39,4.33,1.16,1742256909.563051
0.52,0.26,-0.81,3.66,-4.03,9.4,0.27,-0.21,0.92,-9.22,5.43,-7.57,1742256909.676959
0.52,0.29,-0.79,0.85,-1.89,2.93,0.29,-0.26,0.92,-0.73,3.36,-4.09,1742256909.7931452
0.53,0.28,-0.79,2.69,-2.08,2.38,0.3,-0.23,0.92,-1.83,6.41,-0.55,1742256909.9039402
0.54,0.29,-0.79,1.16,-0.24,0.37,0.31,-0.24,0.91,1.34,3.91,0.12,1742256910.017952
0.54,0.28,-0.79,1.95,-1.71,-1.16,0.3,-0.23,0.89,4.27,7.57,1.83,1742256910.133887
0.54,0.3,-0.79,1.28,-0.61,-2.01,0.33,-0.25,0.9,-0.37,0.85,0.37,1742256910.2460968
0.54,0.29,-0.79,1.53,0.24,-2.26,0.33,-0.23,0.88,-0.67,3.36,1.4,1742256910.360013
0.53,0.26,-0.79,-3.66,2.87,0.43,0.32,-0.24,0.93,-0.85,1.1,-0.43,1742256910.473952
0.54,0.29,-0.79,-4.09,4.82,-0.67,0.33,-0.23,0.88,-1.89,1.83,0.55,1742256910.588083
0.54,0.29,-0.8,-2.93,5.49,-2.32,0.33,-0.24,0.88,2.01,-7.63,-1.89,1742256910.7020621
0.54,0.27,-0.78,3.72,0.73,-5.0,0.32,-0.24,0.89,3.17,1.1,2.69,1742256910.8160489
0.51,0.3,-0.81,-5.49,3.72,-8.54,0.33,-0.29,0.88,-8.91,-2.56,2.26,1742256910.933263
0.55,0.25,-0.79,0.31,-1.04,-11.17,0.3,-0.22,0.9,-3.17,1.22,7.57,1742256911.0441449
0.54,0.24,-0.8,-1.04,4.7,-2.38,0.33,-0.19,0.9,1.59,-1.34,1.46,1742256911.157999
0.52,0.23,-0.8,-0.67,5.43,-3.48,0.29,-0.22,0.92,-0.18,-3.11,-2.2,1742256911.273045
0.52,0.26,-0.83,8.42,17.27,-5.37,0.31,-0.19,0.91,4.03,-7.32,-2.01,1742256911.386047
0.49,0.26,-0.85,3.91,1.34,-6.1,0.26,-0.29,0.96,8.12,1.46,5.62,1742256911.4998422
0.51,0.21,-0.83,1.16,-1.95,-2.01,0.27,-0.23,0.91,4.33,1.65,4.94,1742256911.613506
0.5,0.27,-0.82,1.53,-1.65,3.42,0.28,-0.25,0.92,0.31,3.66,-3.42,1742256911.7268631
0.5,0.27,-0.81,-0.06,1.16,-2.5,0.3,-0.27,0.9,-1.77,0.73,0.12,1742256911.8409832
0.51,0.27,-0.81,-3.48,2.75,1.59,0.32,-0.23,0.91,-1.77,-0.37,-1.04,1742256911.954886
0.51,0.26,-0.83,0.43,-1.83,-0.55,0.28,-0.26,0.93,0.85,-1.34,-0.73,1742256912.06897
0.51,0.25,-0.81,1.16,-2.14,4.27,0.29,-0.22,0.91,-1.1,-0.79,-1.77,1742256912.182902
0.49,0.24,-0.83,7.26,-1.04,7.57,0.28,-0.23,0.92,3.17,2.14,-4.15,1742256912.296889
0.48,0.29,-0.83,3.78,-3.97,6.35,0.28,-0.27,0.91,0.85,5.07,-6.84,1742256912.4109051
0.49,0.28,-0.8,0.49,1.22,5.98,0.31,-0.25,0.9,-0.55,2.69,-6.1,1742256912.5248482
0.48,0.31,-0.83,1.1,5.37,5.31,0.31,-0.27,0.9,3.66,-1.34,-6.29,1742256912.637751
0.47,0.29,-0.83,4.21,1.53,2.32,0.29,-0.29,0.89,6.04,5.43,-0.43,1742256912.753539
0.47,0.32,-0.81,0.98,5.13,8.42,0.32,-0.29,0.88,7.57,0.31,-5.37,1742256912.863778
0.46,0.34,-0.83,1.22,2.08,2.87,0.29,-0.34,0.88,4.03,-2.99,-4.09,1742256912.9767869
0.45,0.32,-0.82,1.53,1.59,1.46,0.3,-0.32,0.89,3.72,1.83,-1.34,1742256913.093984
0.45,0.33,-0.83,-0.37,2.01,2.08,0.3,-0.32,0.89,3.17,1.95,-1.1,1742256913.202909
0.45,0.33,-0.82,-1.89,2.14,1.16,0.3,-0.33,0.88,0.67,-2.01,-0.61,1742256913.316837
0.45,0.34,-0.83,0.43,-0.49,1.53,0.28,-0.33,0.89,1.16,-0.12,-1.1,1742256913.433438
0.44,0.34,-0.82,0.12,-0.79,1.22,0.29,-0.33,0.88,0.06,0.85,-1.46,1742256913.544836
0.45,0.33,-0.82,0.12,0.24,0.06,0.29,-0.33,0.88,0.37,0.37,-0.24,1742256913.658901
0.44,0.33,-0.83,-0.85,1.22,-0.06,0.29,-0.34,0.88,1.71,-1.16,-0.49,1742256913.7734349
0.44,0.32,-0.83,-0.92,0.24,2.62,0.28,-0.32,0.89,0.43,0.12,-2.14,1742256913.886935
0.43,0.33,-0.84,-0.43,1.59,0.55,0.29,-0.34,0.88,0.49,0.73,-1.71,1742256914.0008
0.45,0.33,-0.83,0.06,0.79,-1.1,0.3,-0.34,0.88,2.01,-0.31,1.28,1742256914.114815
0.43,0.33,-0.84,-0.73,0.31,0.24,0.28,-0.34,0.88,-0.37,-1.34,-0.67,1742256914.2288089
0.43,0.34,-0.84,0.73,0.49,0.61,0.28,-0.34,0.88,0.18,-0.37,-0.79,1742256914.342905
0.43,0.35,-0.83,4.52,0.92,-5.68,0.29,-0.35,0.88,1.83,1.77,2.2,1742256914.455887
0.44,0.33,-0.83,0.24,1.4,-0.55,0.29,-0.33,0.88,0.85,0.31,0.24,1742256914.573919
0.43,0.34,-0.84,-0.06,0.12,-0.24,0.28,-0.36,0.88,-0.18,-0.06,0.06,1742256914.683887
0.44,0.33,-0.83,-0.24,0.37,1.16,0.29,-0.34,0.88,-0.79,0.18,-1.04,1742256914.7978408
0.43,0.34,-0.83,0.61,-0.31,1.71,0.28,-0.34,0.88,0.12,1.95,-1.53,1742256914.9118552
0.43,0.34,-0.82,-0.43,1.77,-0.43,0.3,-0.35,0.88,0.98,0.0,-0.12,1742256915.025918
0.42,0.32,-0.83,-1.1,2.81,1.77,0.28,-0.34,0.88,1.59,-1.22,-1.16,1742256915.13986
0.42,0.34,-0.84,-1.22,4.64,5.0,0.28,-0.36,0.89,3.3,-0.79,-4.27,1742256915.2538629
0.4,0.35,-0.85,-0.43,2.44,-3.11,0.28,-0.38,0.88,0.37,-0.18,0.79,1742256915.3679621
0.42,0.33,-0.84,-1.83,1.34,-0.49,0.28,-0.35,0.88,2.69,3.91,-0.18,1742256915.481916
0.4,0.34,-0.85,-4.15,-1.46,-8.54,0.27,-0.38,0.88,-8.12,-1.34,3.91,1742256915.59603
0.43,0.29,-0.85,-4.39,1.89,-5.74,0.28,-0.3,0.89,-3.66,-4.46,5.07,1742256915.713273
0.41,0.3,-0.84,-1.89,0.55,0.61,0.28,-0.32,0.89,0.06,0.67,0.49,1742256915.823861
0.42,0.34,-0.84,-7.81,3.36,2.99,0.31,-0.35,0.86,-0.18,-2.93,-4.09,1742256915.937736
0.39,0.33,-0.86,-6.53,2.75,-7.51,0.28,-0.36,0.88,-2.99,-5.68,3.11,1742256916.052968
0.42,0.27,-0.87,-6.47,6.04,-10.62,0.26,-0.33,0.89,-1.46,-9.64,6.71,1742256916.165798
0.39,0.22,-0.87,-14.89,-1.4,-2.99,0.23,-0.29,0.9,-15.01,5.55,5.68,1742256916.2799091
0.38,0.2,-0.91,-5.68,3.6,-1.89,0.25,-0.31,0.95,-7.45,-1.34,3.91,1742256916.3962429
0.41,0.21,-0.91,-6.35,10.07,2.87,0.23,-0.29,0.91,1.65,-5.62,-2.5,1742256916.507734
0.38,0.22,-0.88,-8.54,4.15,-3.42,0.21,-0.33,0.94,-5.13,-7.63,-0.73,1742256916.621851
0.37,0.2,-0.88,-0.98,6.77,-11.11,0.21,-0.31,0.9,6.9,-9.58,5.8,1742256916.735858
0.35,0.2,-0.92,2.14,7.57,-11.23,0.18,-0.3,0.93,6.65,-7.32,6.77,1742256916.8537111
0.35,0.19,-0.93,0.79,0.67,-8.73,0.17,-0.32,0.92,6.29,-0.98,11.05,1742256916.963694
0.37,0.16,-0.93,2.01,-11.72,-1.28,0.15,-0.3,0.95,1.04,9.58,9.03,1742256917.077861
0.41,0.19,-0.86,-2.2,-5.98,6.65,0.21,-0.26,0.9,-2.26,6.41,-0.43,1742256917.192814
0.39,0.22,-0.92,2.81,0.98,12.57,0.19,-0.29,0.92,-0.79,-1.16,-10.07,1742256917.305643
0.39,0.25,-0.87,-1.59,-5.55,3.3,0.23,-0.32,0.9,-1.65,5.8,-6.29,1742256917.418848
0.4,0.21,-0.89,-7.14,-4.94,3.42,0.23,-0.3,0.92,-3.85,3.11,-5.62,1742256917.533602
0.42,0.19,-0.9,-9.28,-3.05,2.01,0.22,-0.27,0.94,-8.12,-0.49,-5.68,1742256917.646825
0.4,0.18,-0.89,-7.69,-1.59,1.16,0.2,-0.26,0.93,-6.29,-1.65,-6.29,1742256917.760843
0.4,0.19,-0.86,-3.97,1.83,2.5,0.21,-0.26,0.89,-0.12,-1.28,-5.62,1742256917.875511
0.42,0.17,-0.92,-2.2,-2.87,-2.26,0.22,-0.31,0.96,-0.31,1.83,1.4,1742256917.988919
0.38,0.17,-0.87,-4.33,3.23,0.61,0.2,-0.27,0.89,-1.65,-1.16,-2.08,1742256918.102784
0.41,0.16,-0.93,-3.11,2.32,-0.79,0.19,-0.27,0.95,-1.22,-3.36,-1.95,1742256918.216896
0.4,0.15,-0.89,-0.31,-2.38,2.32,0.19,-0.28,0.93,-0.24,3.11,-0.85,1742256918.33375
0.39,0.16,-0.91,-3.17,0.31,1.59,0.19,-0.29,0.92,0.24,1.04,-2.87,1742256918.444779
0.38,0.16,-0.91,-0.92,-4.09,-3.91,0.2,-0.31,0.92,1.28,3.05,2.44,1742256918.55902
0.41,0.15,-0.89,-1.59,-10.99,-7.02,0.21,-0.29,0.93,-4.21,3.97,8.91,1742256918.673289
0.44,0.13,-0.87,7.26,-8.18,-1.22,0.2,-0.24,0.93,3.11,9.89,7.87,1742256918.786774
0.47,0.13,-0.88,8.97,-0.37,8.18,0.23,-0.23,0.93,4.88,12.82,-1.46,1742256918.9006379
0.44,0.17,-0.88,2.2,-2.14,19.53,0.24,-0.26,0.9,4.58,11.84,-13.92,1742256919.013909
0.45,0.26,-0.86,-11.47,-14.59,18.8,0.3,-0.34,0.87,-0.18,8.67,-12.15,1742256919.127763
0.46,0.22,-0.84,1.04,0.67,-2.01,0.31,-0.3,0.88,3.54,0.31,0.24,1742256919.2416298
0.45,0.24,-0.87,1.77,3.6,-2.99,0.29,-0.32,0.91,2.26,-3.17,0.67,1742256919.355636
0.44,0.19,-0.89,-1.53,7.2,-3.54,0.27,-0.27,0.92,-1.34,-9.52,2.93,1742256919.4738119
0.43,0.2,-0.9,0.79,0.49,-0.43,0.25,-0.3,0.92,0.73,-0.98,-0.37,1742256919.583663
0.44,0.21,-0.87,0.49,-0.79,0.79,0.26,-0.29,0.9,0.24,0.06,-0.98,1742256919.6976168
0.43,0.21,-0.87,-0.31,-0.79,0.67,0.27,-0.3,0.9,1.16,1.28,-0.92,1742256919.813204
0.44,0.2,-0.88,-0.49,-0.73,1.46,0.27,-0.3,0.9,-0.67,0.24,-1.28,1742256919.9247308
0.43,0.21,-0.87,-0.18,0.37,-0.31,0.27,-0.31,0.9,0.06,-0.49,-1.28,1742256920.038763
0.43,0.2,-0.87,0.98,-0.43,-0.73,0.26,-0.3,0.9,1.59,0.18,0.61,1742256920.1537879
0.43,0.2,-0.87,1.59,1.16,0.85,0.27,-0.3,0.9,2.44,0.61,-0.49,1742256920.266571
0.43,0.21,-0.88,0.73,0.18,1.71,0.26,-0.31,0.9,2.56,1.77,-1.4,1742256920.3795269
0.42,0.22,-0.87,-0.06,0.92,0.06,0.28,-0.32,0.89,1.16,-0.06,-1.22,1742256920.4936268
0.43,0.21,-0.88,-2.56,-0.92,-1.83,0.27,-0.32,0.89,0.73,-0.67,0.67,1742256920.606823
0.42,0.22,-0.88,-2.32,-0.92,-1.16,0.26,-0.29,0.91,-5.98,-0.79,0.43,1742256920.720893
0.44,0.2,-0.87,1.34,0.49,0.85,0.26,-0.29,0.91,2.56,1.4,0.0,1742256920.834561
0.43,0.21,-0.87,1.71,-0.31,1.89,0.26,-0.31,0.91,1.53,1.59,-0.92,1742256920.947649
0.44,0.21,-0.88,1.4,-0.31,1.53,0.27,-0.31,0.9,2.14,1.89,-0.98,1742256921.0616472
0.43,0.21,-0.86,1.34,-0.98,2.87,0.28,-0.31,0.89,2.87,2.56,-1.1,1742256921.175649
0.43,0.22,-0.87,0.92,-0.24,0.73,0.28,-0.32,0.89,0.92,2.08,-0.98,1742256921.293749
0.43,0.22,-0.87,1.22,-0.18,0.98,0.29,-0.32,0.89,1.34,1.53,0.12,1742256921.4037938
0.43,0.24,-0.87,0.98,0.31,0.49,0.28,-0.33,0.89,0.61,0.61,-0.85,1742256921.51755
0.44,0.23,-0.87,-0.31,0.85,-0.18,0.29,-0.33,0.89,0.98,0.31,-0.24,1742256921.634232
0.43,0.23,-0.87,3.72,-0.73,2.32,0.28,-0.32,0.89,1.65,1.83,-1.04,1742256921.74557
0.43,0.25,-0.87,-0.43,1.53,0.61,0.3,-0.34,0.88,0.43,0.73,-1.71,1742256921.859554
0.43,0.24,-0.87,0.85,0.67,-0.31,0.29,-0.33,0.89,0.73,0.06,0.18,1742256921.9739552
0.43,0.24,-0.87,-0.24,0.67,0.55,0.29,-0.33,0.88,1.04,0.73,-0.98,1742256922.087726
0.43,0.24,-0.86,-0.12,-0.49,-0.73,0.29,-0.34,0.88,0.61,-0.06,0.49,1742256922.201788
0.43,0.24,-0.87,-0.31,1.53,-1.89,0.3,-0.34,0.88,-0.92,-1.46,0.06,1742256922.3156621
0.43,0.23,-0.87,-1.28,1.71,-1.4,0.29,-0.33,0.88,0.24,-2.08,-0.12,1742256922.4334872
0.42,0.23,-0.87,-3.17,1.53,-3.11,0.29,-0.35,0.88,-2.01,-3.72,1.04,1742256922.543676
0.42,0.21,-0.87,-2.75,1.28,-3.78,0.28,-0.32,0.89,-2.01,-2.99,1.95,1742256922.657683
0.42,0.22,-0.88,-2.81,2.69,-3.3,0.28,-0.33,0.89,-0.79,-3.11,0.79,1742256922.773428
0.42,0.2,-0.88,1.65,-1.4,-1.53,0.25,-0.33,0.91,0.12,-0.12,1.89,1742256922.885587
0.43,0.21,-0.88,-0.43,0.0,1.4,0.27,-0.32,0.89,0.06,0.49,-0.24,1742256922.999574
0.43,0.21,-0.88,0.31,-0.18,0.61,0.27,-0.32,0.9,-0.18,1.04,-0.85,1742256923.113825
0.42,0.21,-0.88,0.12,-1.16,0.49,0.27,-0.33,0.9,0.31,1.34,-0.18,1742256923.227697
0.42,0.21,-0.88,0.18,-0.85,1.1,0.27,-0.32,0.9,-0.18,1.16,-0.67,1742256923.341822
0.43,0.22,-0.87,-0.73,-0.61,1.1,0.27,-0.32,0.89,0.0,1.16,-1.46,1742256923.455613
0.43,0.22,-0.87,3.17,-1.65,-0.24,0.27,-0.32,0.89,0.79,1.53,-0.12,1742256923.573459
0.43,0.23,-0.88,-0.37,1.04,-2.44,0.29,-0.35,0.88,1.71,-0.92,0.24,1742256923.683595
0.43,0.2,-0.87,0.18,-0.61,-1.16,0.27,-0.32,0.9,0.67,0.85,1.95,1742256923.797597
0.43,0.22,-0.87,-0.31,1.16,1.16,0.28,-0.32,0.89,0.12,-0.24,-1.1,1742256923.911477
0.43,0.23,-0.88,0.43,-0.24,1.22,0.27,-0.33,0.89,1.04,1.04,-1.4,1742256924.024478
0.43,0.23,-0.87,0.73,-0.37,0.61,0.28,-0.33,0.89,1.04,1.34,-0.61,1742256924.1385112
0.43,0.22,-0.87,1.1,0.12,2.08,0.28,-0.32,0.89,1.4,1.89,-0.79,1742256924.253526
0.43,0.24,-0.87,-0.06,-0.18,2.87,0.29,-0.34,0.88,1.4,2.14,-2.56,1742256924.3656042
0.43,0.24,-0.87,0.0,-0.18,0.06,0.3,-0.34,0.88,0.31,0.37,-0.98,1742256924.479498
0.43,0.23,-0.87,-0.12,0.12,0.12,0.29,-0.33,0.88,0.85,0.67,-0.12,1742256924.5935519
0.43,0.22,-0.87,0.55,-0.06,0.67,0.28,-0.33,0.89,0.67,0.55,-0.43,1742256924.707547
0.43,0.24,-0.87,-0.06,0.61,1.16,0.29,-0.34,0.88,1.71,1.4,-1.04,1742256924.821561
0.43,0.24,-0.87,-0.24,0.31,-0.73,0.29,-0.35,0.88,0.55,0.37,0.18,1742256924.935617
0.43,0.23,-0.87,0.18,0.73,0.92,0.29,-0.33,0.88,-0.31,0.37,-1.1,1742256925.05373
0.42,0.24,-0.87,-0.37,0.67,-1.28,0.29,-0.36,0.88,-0.06,-1.83,-0.12,1742256925.163569
0.43,0.23,-0.87,0.67,0.49,-1.16,0.28,-0.33,0.88,1.04,-0.43,0.98,1742256925.2791119
0.42,0.23,-0.88,0.06,-0.06,-0.55,0.28,-0.35,0.89,0.55,-0.49,0.24,1742256925.3923252
0.42,0.23,-0.87,-0.24,0.98,0.43,0.29,-0.34,0.88,0.79,0.31,-0.67,1742256925.505549
0.42,0.23,-0.88,-0.55,0.92,-1.95,0.28,-0.35,0.88,0.12,-0.67,0.85,1742256925.619566
0.42,0.23,-0.87,-0.24,0.24,0.18,0.28,-0.34,0.88,1.16,0.49,0.06,1742256925.733728
0.42,0.23,-0.87,-0.31,0.18,0.43,0.28,-0.34,0.89,0.06,0.06,-0.06,1742256925.847615
0.42,0.23,-0.88,0.12,0.12,-0.67,0.28,-0.35,0.88,-0.24,-0.43,-0.06,1742256925.961552
0.42,0.22,-0.88,0.06,-0.12,0.37,0.28,-0.34,0.88,0.0,0.43,-0.43,1742256926.075385
0.41,0.23,-0.87,-0.31,0.43,0.61,0.29,-0.34,0.88,0.49,1.46,-0.67,1742256926.193675
0.42,0.24,-0.87,0.37,0.18,-0.92,0.29,-0.34,0.88,-0.61,-0.31,0.12,1742256926.303383
0.42,0.23,-0.87,0.37,-0.49,0.37,0.28,-0.34,0.88,0.31,0.55,0.06,1742256926.417388
0.42,0.23,-0.87,0.61,-0.92,0.24,0.28,-0.34,0.88,0.43,0.85,-0.37,1742256926.5342898
0.42,0.24,-0.87,-0.24,-0.31,0.0,0.29,-0.35,0.88,0.67,0.92,-0.55,1742256926.6539478
0.42,0.24,-0.87,-0.43,0.06,-0.79,0.29,-0.34,0.88,0.31,0.24,0.06,1742256926.76351
0.42,0.23,-0.87,0.12,-0.31,-1.16,0.28,-0.34,0.89,-0.55,-0.55,0.49,1742256926.877515
0.42,0.23,-0.88,-0.79,0.55,-1.04,0.29,-0.35,0.88,-0.37,-0.98,0.06,1742256926.9937332
0.42,0.22,-0.88,-0.98,0.24,-1.1,0.28,-0.34,0.88,-0.49,-0.12,0.61,1742256927.105469
0.42,0.23,-0.88,-1.4,-0.18,0.12,0.28,-0.34,0.88,-0.61,-0.18,-0.73,1742256927.219598
0.42,0.23,-0.87,-0.85,0.0,0.12,0.28,-0.33,0.88,-1.28,-0.06,-0.79,1742256927.3334348
0.42,0.22,-0.88,-0.79,-0.12,-1.53,0.28,-0.34,0.88,-0.55,-0.24,0.24,1742256927.447644
0.42,0.22,-0.88,-1.04,-0.06,-0.67,0.28,-0.34,0.88,-0.73,-0.18,-0.12,1742256927.5615182
0.42,0.23,-0.88,-0.12,0.79,1.34,0.28,-0.33,0.88,-0.31,0.18,-0.92,1742256927.6754189
0.42,0.22,-0.87,-0.12,0.73,-1.28,0.28,-0.35,0.88,0.85,-1.46,-0.24,1742256927.793014
0.42,0.22,-0.88,-0.92,0.18,-1.59,0.28,-0.34,0.89,0.18,-1.34,1.34,1742256927.9034612
0.42,0.21,-0.87,0.06,-0.06,-0.24,0.27,-0.33,0.89,0.67,0.18,0.31,1742256928.0175092
0.42,0.22,-0.88,0.49,-0.06,0.31,0.27,-0.34,0.89,0.92,0.43,-0.67,1742256928.133847
0.42,0.22,-0.87,0.67,-0.31,-0.18,0.28,-0.34,0.89,1.4,1.04,0.49,1742256928.245467
0.41,0.22,-0.88,0.37,0.37,0.37,0.28,-0.34,0.88,0.61,0.98,-0.61,1742256928.359242
0.42,0.23,-0.88,-0.31,0.92,-0.43,0.28,-0.34,0.88,-0.31,-0.49,-0.24,1742256928.473475
0.42,0.22,-0.88,0.31,0.37,-0.85,0.28,-0.35,0.88,0.55,0.06,0.37,1742256928.586314
0.42,0.22,-0.88,0.12,0.24,-0.43,0.28,-0.34,0.89,0.0,-0.31,-0.37,1742256928.700541
0.42,0.22,-0.88,0.06,0.06,-0.49,0.28,-0.34,0.88,0.31,-0.55,0.18,1742256928.8143492
0.42,0.22,-0.88,0.24,0.37,-0.61,0.28,-0.34,0.88,-0.12,-0.24,0.06,1742256928.927326
0.42,0.22,-0.88,0.06,-0.24,-0.06,0.28,-0.34,0.89,0.43,-0.18,-0.24,1742256929.0414279
0.42,0.23,-0.88,-0.18,0.43,0.61,0.29,-0.34,0.88,0.49,-0.18,-0.98,1742256929.1553578
0.42,0.22,-0.88,0.92,0.24,-0.61,0.28,-0.34,0.88,0.06,0.61,0.31,1742256929.2731788
0.42,0.22,-0.88,-0.12,0.55,-0.06,0.28,-0.34,0.88,0.31,0.37,0.0,1742256929.382417
0.42,0.23,-0.88,0.24,-0.06,0.18,0.28,-0.34,0.88,0.0,0.18,-0.37,1742256929.49635
0.42,0.22,-0.88,0.37,-0.12,-0.92,0.28,-0.34,0.88,0.37,-0.55,0.49,1742256929.612791
0.42,0.22,-0.88,0.37,-0.49,-0.31,0.27,-0.34,0.89,0.49,-0.06,0.61,1742256929.724473
0.42,0.23,-0.88,-0.12,-0.67,1.46,0.28,-0.33,0.88,1.65,1.59,-0.61,1742256929.838401
0.42,0.23,-0.88,0.06,-0.06,-0.92,0.29,-0.35,0.88,0.0,-0.55,0.12,1742256929.952683
0.42,0.22,-0.88,0.31,-0.31,0.18,0.28,-0.34,0.88,0.49,-0.18,0.55,1742256930.066346
0.42,0.23,-0.87,-0.37,-0.49,1.4,0.28,-0.34,0.88,0.24,0.49,-0.92,1742256930.180419
0.42,0.23,-0.88,-0.43,0.12,-0.24,0.28,-0.35,0.88,0.37,-0.37,-0.18,1742256930.294413
0.42,0.23,-0.88,-0.12,-0.06,-1.1,0.28,-0.34,0.89,0.31,-0.06,0.85,1742256930.408499
0.42,0.23,-0.87,-0.73,-0.73,0.55,0.28,-0.34,0.88,-0.18,0.61,-0.79,1742256930.522393
0.42,0.23,-0.88,-0.43,-0.06,-0.61,0.29,-0.35,0.88,-0.79,-0.67,-1.04,1742256930.636517
0.42,0.22,-0.87,-0.24,-0.49,-1.1,0.28,-0.34,0.88,0.24,0.61,0.79,1742256930.7528472
0.42,0.22,-0.88,-1.34,-0.49,-1.1,0.29,-0.35,0.88,-1.1,-0.37,0.12,1742256930.864481
0.42,0.23,-0.86,-0.49,-0.92,-1.04,0.28,-0.34,0.88,-1.28,0.18,0.12,1742256930.978948
0.44,0.23,-0.88,-2.75,2.69,-1.4,0.3,-0.33,0.88,-0.67,-2.81,-0.37,1742256931.0931299
0.39,0.24,-0.91,-3.85,-2.81,-5.98,0.27,-0.38,0.9,-1.71,-0.98,2.44,1742256931.2064462
0.42,0.22,-0.88,-12.33,-5.0,-28.44,0.31,-0.44,0.86,-15.38,-12.57,16.78,1742256931.320439
0.46,0.11,-0.83,-10.56,-3.3,-24.6,0.24,-0.23,0.89,-15.44,-12.27,18.19,1742256931.4344552
0.49,0.08,-0.88,-9.28,1.46,-18.31,0.25,-0.22,0.95,-7.39,-10.62,11.66,1742256931.548398
0.48,0.03,-0.89,-7.81,-0.61,-10.86,0.22,-0.2,0.94,-8.06,-10.74,8.24,1742256931.662428
0.47,0.03,-0.89,-3.23,-4.76,-0.18,0.2,-0.2,0.97,-3.3,1.28,1.16,1742256931.776438
0.47,0.09,-0.9,-1.83,-7.2,5.8,0.22,-0.22,0.95,-4.76,6.29,-4.76,1742256931.890351
0.49,0.07,-0.88,-5.62,-19.84,-0.61,0.24,-0.27,0.93,-13.92,13.79,1.89,1742256932.004412
0.56,0.01,-0.78,9.46,-4.76,4.52,0.31,-0.03,0.9,-7.08,16.3,6.53,1742256932.118232
0.52,0.03,-0.81,13.49,5.8,6.77,0.3,-0.12,0.92,18.07,8.79,-0.67,1742256932.2332768
0.48,0.11,-0.85,-0.79,14.16,7.02,0.3,-0.2,0.9,7.57,-5.37,-9.52,1742256932.345191
0.49,0.14,-0.92,2.14,4.03,1.16,0.3,-0.29,0.94,1.28,-4.52,-2.69,1742256932.459162
0.48,0.1,-0.9,-7.81,-6.47,9.7,0.28,-0.24,0.92,-5.0,3.97,-3.48,1742256932.573271
0.49,0.12,-0.85,-7.08,-19.41,8.12,0.27,-0.25,0.95,-15.26,15.44,-4.58,1742256932.6864
0.52,0.13,-0.81,2.62,3.48,6.35,0.36,-0.15,0.88,-0.85,4.88,-8.18,1742256932.8001049
0.5,0.11,-0.86,5.86,5.43,1.1,0.33,-0.22,0.92,9.09,-1.4,-1.83,1742256932.916555
0.48,0.14,-0.87,6.04,2.5,2.56,0.32,-0.24,0.92,8.85,2.69,-1.71,1742256933.026111
0.49,0.14,-0.86,5.62,3.42,1.4,0.33,-0.23,0.9,5.07,0.24,0.85,1742256933.139138
0.48,0.15,-0.85,5.31,4.15,3.85,0.33,-0.25,0.89,9.52,0.0,-1.95,1742256933.2536268
0.47,0.19,-0.87,4.46,0.92,1.59,0.34,-0.31,0.89,7.87,1.65,-3.36,1742256933.365129
0.47,0.17,-0.87,1.89,0.67,-0.24,0.33,-0.29,0.89,0.12,-0.73,-1.04,1742256933.4782238
0.46,0.19,-0.87,2.08,-2.08,-4.88,0.33,-0.32,0.87,1.89,0.79,1.28,1742256933.59325
0.49,0.15,-0.85,-0.92,-2.14,-1.95,0.33,-0.27,0.89,-0.92,-0.79,3.17,1742256933.7064672
0.47,0.19,-0.85,-1.1,-0.61,-0.92,0.34,-0.28,0.88,-1.71,-1.04,-0.98,1742256933.8204072
0.48,0.18,-0.85,7.2,-0.67,-10.5,0.35,-0.3,0.87,5.98,-0.92,7.2,1742256933.934226
0.49,0.13,-0.85,2.2,-0.43,-3.6,0.32,-0.25,0.9,2.44,-1.46,4.64,1742256934.048237
0.49,0.15,-0.86,-1.16,0.55,2.26,0.33,-0.27,0.89,0.85,-0.92,-1.71,1742256934.162118
0.48,0.17,-0.85,1.1,3.78,0.49,0.35,-0.27,0.87,2.2,-0.55,-3.48,1742256934.276088
0.47,0.18,-0.88,1.16,3.66,-3.05,0.32,-0.32,0.9,3.78,-3.91,0.61,1742256934.3891158
0.47,0.15,-0.86,-0.24,1.71,-1.65,0.31,-0.28,0.89,1.1,-1.16,1.46,1742256934.503248
0.46,0.16,-0.86,-0.67,1.65,0.67,0.31,-0.29,0.89,1.28,-1.16,-2.01,1742256934.617114
0.46,0.17,-0.87,-1.59,1.83,0.79,0.31,-0.29,0.89,0.79,-0.85,-1.83,1742256934.7335548
0.46,0.16,-0.87,-1.77,-0.12,-2.99,0.31,-0.31,0.89,-0.79,-1.95,1.28,1742256934.845376
0.46,0.15,-0.88,-1.59,0.92,-0.18,0.31,-0.29,0.9,-0.12,-1.53,0.0,1742256934.9593039
0.46,0.15,-0.87,-0.43,-1.34,0.73,0.3,-0.3,0.89,-0.43,1.1,-0.79,1742256935.073451
0.48,0.13,-0.86,-0.06,-0.24,4.27,0.32,-0.27,0.89,-0.31,2.32,-2.32,1742256935.187267
0.44,0.18,-0.88,0.24,3.85,8.97,0.31,-0.3,0.89,2.62,1.89,-8.3,1742256935.3009632
0.45,0.17,-0.87,0.43,-0.12,2.44,0.32,-0.3,0.89,-0.43,1.65,-2.5,1742256935.416571
0.45,0.18,-0.88,1.1,1.16,1.34,0.32,-0.32,0.89,1.34,1.59,-1.4,1742256935.528074
0.45,0.17,-0.88,-0.43,-0.37,-0.31,0.31,-0.31,0.89,-0.06,0.73,-0.49,1742256935.6414
0.45,0.17,-0.87,0.37,-0.24,1.95,0.31,-0.3,0.88,-0.37,1.16,-1.16,1742256935.75508
0.45,0.18,-0.87,1.34,1.46,3.11,0.32,-0.31,0.88,1.53,2.01,-3.36,1742256935.86795
0.46,0.17,-0.86,-1.04,-1.1,0.37,0.32,-0.31,0.89,-0.79,1.95,0.18,1742256935.981226
0.44,0.19,-0.88,0.61,0.55,-0.18,0.32,-0.31,0.88,0.31,0.06,-0.24,1742256936.095058
0.46,0.17,-0.87,-0.67,0.18,-1.16,0.32,-0.3,0.88,0.24,-0.55,1.04,1742256936.2129369
0.44,0.18,-0.88,-0.73,0.0,0.43,0.32,-0.31,0.88,0.06,0.31,-1.22,1742256936.323065
0.45,0.18,-0.87,-1.04,0.12,-0.49,0.32,-0.31,0.88,-0.49,-0.55,-0.49,1742256936.436207
0.45,0.17,-0.87,-1.46,0.06,-1.34,0.32,-0.3,0.88,-0.98,-1.04,0.61,1742256936.553407
0.44,0.16,-0.87,0.92,0.85,0.37,0.31,-0.29,0.89,-0.85,-0.67,0.79,1742256936.66416
0.44,0.19,-0.87,-1.77,1.95,-2.56,0.33,-0.32,0.87,-2.32,-3.48,1.83,1742256936.778168
0.45,0.14,-0.88,-3.6,-1.16,-2.93,0.29,-0.28,0.91,0.0,0.06,2.75,1742256936.895725
0.48,0.14,-0.85,5.37,2.75,3.6,0.34,-0.25,0.89,6.16,4.76,-1.71,1742256937.0059881
0.44,0.16,-0.87,3.17,8.73,8.36,0.31,-0.3,0.88,3.6,-2.14,-9.16,1742256937.118966
0.38,0.26,-0.93,-3.3,5.13,7.93,0.28,-0.39,0.89,0.06,-4.09,-10.07,1742256937.2334661
0.43,0.21,-0.88,-3.6,-0.49,-6.9,0.32,-0.33,0.88,-3.97,-4.82,4.52,1742256937.346266
0.41,0.18,-0.9,-0.79,-0.18,-3.54,0.29,-0.32,0.89,-1.77,-1.95,2.38,1742256937.460416
0.42,0.14,-0.89,-0.12,-2.14,1.1,0.28,-0.29,0.9,-1.89,1.83,0.43,1742256937.574153
0.42,0.18,-0.88,-1.16,-1.46,5.0,0.29,-0.29,0.9,-2.26,2.01,-3.72,1742256937.68814
0.43,0.16,-0.87,2.56,0.92,8.36,0.28,-0.27,0.89,0.85,2.87,-5.62,1742256937.801963
0.41,0.21,-0.9,2.5,-0.55,4.09,0.29,-0.34,0.89,1.89,2.26,-3.23,1742256937.917207
0.42,0.21,-0.88,-3.48,-2.14,-2.69,0.3,-0.32,0.88,-8.18,-9.09,5.19,1742256938.02819
0.44,0.16,-0.89,1.71,-2.26,-2.38,0.26,-0.26,0.92,-2.75,-6.9,3.72,1742256938.142159
0.43,0.18,-0.87,11.23,-1.1,6.41,0.27,-0.27,0.9,8.73,9.7,-2.2,1742256938.2561228
0.42,0.22,-0.88,7.81,2.38,9.34,0.29,-0.31,0.89,8.48,7.63,-6.84,1742256938.370016
0.42,0.26,-0.87,5.07,2.08,2.93,0.32,-0.36,0.87,4.64,2.32,-4.09,1742256938.4839082
0.45,0.22,-0.88,37.29,-1.59,13.43,0.3,-0.27,0.92,21.18,16.24,-13.55,1742256938.597194
0.4,0.47,-0.65,102.23,28.14,-57.25,0.24,-0.32,0.83,-21.24,-7.32,-39.61,1742256938.713492
0.38,0.37,-0.74,-50.35,7.14,47.73,0.27,0.21,0.77,-94.6,-1.28,-154.17,1742256938.8250408
0.3,0.44,-0.92,7.2,8.12,-3.66,0.07,-0.16,1.01,-81.85,-67.08,-171.87,1742256938.9389749
0.36,0.45,-0.78,21.48,1.95,4.7,-0.27,-0.38,1.12,-14.89,-75.44,-121.77,1742256939.05325
0.33,0.49,-0.8,15.56,8.3,-0.06,-0.22,-0.33,1.03,24.78,15.99,-54.02,1742256939.166993
0.29,0.5,-0.84,8.06,6.35,5.92,-0.16,-0.25,0.92,18.86,-4.39,-27.53,1742256939.2809129
0.3,0.53,-0.75,7.51,2.14,0.37,-0.16,-0.08,1.08,3.3,31.01,8.67,1742256939.396487
0.29,0.57,-0.81,2.99,2.08,3.23,0.03,-0.06,0.9,-19.04,16.54,47.49,1742256939.9295459
0.28,0.53,-0.8,8.67,-1.46,3.11,-0.13,-0.03,0.89,13.55,4.7,-24.84,1742256940.430411
0.29,0.51,-0.82,22.09,-9.58,7.14,-0.1,-0.2,0.95,6.59,-15.75,-68.91,1742256940.650367
0.3,0.59,-0.76,27.89,-18.25,23.32,-0.1,-0.27,0.94,8.73,-13.67,-31.31,1742256940.825183
0.31,0.63,-0.65,50.6,-25.02,25.7,-0.08,-0.21,0.94,4.33,0.98,-11.05,1742256941.10961
