L-AccX,L-AccY,L-AccZ,L-GyrX,L-GyrY,L-GyrZ,R-AccX,R-AccY,R-AccZ,R-GyrX,R-GyrY,R-GyrZ,timestamp
0.07875,0.0775,0.0575,0.00087,0.0004425,-0.0009925,-0.0375,-0.07,0.11,-0.004745,-0.002335,0.00029,1742108200.83107
0.0775,0.0775,0.0625,0.002335,0.0016475001,0.00171,-0.03375,-0.0825,0.12875,0.00296,0.0310675,0.012984999,1742108200.94498
0.0775,0.075,0.05375,0.0033875,-0.001755,0.0054325,0.0125,-0.06625,0.06625,0.0020599999,0.018004999,0.00792,1742108201.058327
0.07,0.07,0.06125,0.0059825,-0.030075,0.0114125,0.015,-0.07375,0.08625,0.01184,-0.0279225,0.0050500003,1742108201.1720839
0.0375,0.09375,0.12,0.00151,0.01291,-0.002625,0.00625,-0.09375,0.125,-0.010345,0.038925,0.0042275,1742108201.285931
0.06125,0.07125,0.0725,-0.0045925,0.02147,-0.00473,0.0475,-0.075,0.05375,-0.002625,0.032105,0.008545,1742108201.406904
0.07125,0.08375,0.03875,-0.0018925001,-0.0127875,0.0045324997,0.0625,-0.06125,0.055,0.0048674997,-0.0234075,0.0033275,1742108201.512994
0.01125,0.085,0.12375,0.01384,-0.03502,0.00122,0.01125,-0.09,0.1375,0.01274,0.000275,0.0062399996,1742108201.626893
0.03375,0.07375,0.08875,-0.0146175,0.04219,-0.0066075,0.0575,-0.07125,0.0625,-0.0083625,0.04042,0.000655,1742108201.739986
0.0775,0.075,0.04125,-0.00045750002,0.0080725,0.0016475001,0.07875,-0.065,0.04375,-0.001755,-0.0104975,0.0004425,1742108201.853942
0.04375,0.075,0.07125,0.014907501,-0.0617975,0.0047925,0.03125,-0.06375,0.1125,0.001235,-0.056732498,0.006805,1742108201.9668832
0.0075,0.0675,0.14375,-0.0061950004,0.048217498,-0.006775,0.0425,-0.06375,0.09375,-0.0084675,0.049544998,-0.0030375,1742108202.080021
0.075,0.0725,0.04375,-0.003175,0.0099174995,-0.0022574998,0.0825,-0.06625,0.04625,-0.0081475,0.0098575,-0.0006875,1742108202.1939971
0.05875,0.07625,0.0575,0.006805,-0.0469525,0.001115,0.065,-0.05875,0.0725,0.0119624995,-0.059447497,0.0022725,1742108202.3079
0.00625,0.0625,0.16375,0.0009,0.0216075,-0.0040425,0.02875,-0.0525,0.14625,0.002075,0.0401925,0.0016775,1742108202.42271
0.0675,0.07,0.05125,-0.005005,0.030335,-0.00389,0.07375,-0.06375,0.035,-0.01175,0.0393825,-0.0018,1742108202.5387661
0.08375,0.07,0.03125,0.0001975,-0.016602501,0.0007025,0.08,-0.05125,0.0425,0.0063625,-0.0273125,0.0047150003,1742108202.647914
0.03875,0.07875,0.11875,0.0101325,-0.0278775,0.000365,0.01625,-0.07,0.12875,0.0015875,-0.0410625,0.01085,1742108202.76091
0.045,0.06875,0.095,-0.0090175,0.043595,-0.0032950002,0.0475,-0.06125,0.0925,-0.0107125,0.059555,-0.0069724997,1742108202.874163
0.08875,0.0725,0.04,-0.0039525,0.01477,-0.00059500005,0.1025,-0.06875,0.025,-0.0028225,0.0069575,-0.00084,1742108202.988043
0.06875,0.0675,0.0575,0.0019375,-0.03662,0.0028675,0.07,-0.06,0.0625,0.019469999,-0.075652495,0.0056,1742108203.101941
0.03875,0.05875,0.145,-0.00125,0.0121625,-0.0021825,0.0325,-0.0575,0.14125,0.008865,0.0361325,0.0046225,1742108203.21916
0.07375,0.06625,0.065,-0.0027774998,0.025969999,-0.0009775,0.075,-0.0675,0.03875,-0.022094999,0.04222,-0.0114125,1742108203.330059
0.09375,0.06875,0.03125,-0.0042575,0.0024875,0.0005025,0.085,-0.0675,0.03125,0.005905,-0.0230725,0.0013725,1742108203.444714
0.06375,0.06875,0.07,0.0129700005,-0.074295,0.0096125,0.02625,-0.085,0.11875,-0.009475,-0.0835125,0.010255001,1742108203.56064
0.025,0.06,0.12875,-0.0081625,0.018555,-0.003205,0.035,-0.05875,0.1225,0.002105,0.05008,0.000565,1742108203.671166
0.07,0.06625,0.06125,-0.003175,0.02797,0.0027625,0.07,-0.065,0.04125,-0.02156,0.035035,-0.016145,1742108203.784982
0.07875,0.075,0.03875,0.00093,-0.0117025,0.0045025,0.07625,-0.075,0.0525,0.01764,-0.0316775,0.0072175004,1742108203.903527
0.02875,0.08,0.11875,0.022049999,-0.054442503,-0.0020299999,0.01625,-0.06875,0.145,-0.0013575,-0.04306,0.0124975005,1742108204.0130508
0.025,0.06125,0.10875,-0.01474,0.0620425,-0.009185,0.04625,-0.0625,0.0825,-0.0077525,0.064682506,-0.0077825,1742108204.126977
0.08875,0.06875,0.0325,-0.0045625,0.0119925,0.000655,0.09875,-0.07,0.04,-0.0101025,0.00702,0.0001975,1742108204.2412102
0.06,0.06875,0.07,0.009765,-0.063735,0.0021199998,0.05875,-0.06625,0.065,0.02028,-0.071365,0.007355,1742108204.355058
0.0175,0.06125,0.14,-0.00093,-0.0054475004,-0.001465,0.015,-0.055,0.16,0.0042425,0.0042875,0.0033875,1742108204.469086
0.05875,0.0625,0.07,-0.010452501,0.045822497,0.0003975,0.05875,-0.0625,0.0625,-0.006805,0.051117502,-0.0122225,1742108204.5829859
0.07375,0.085,0.0425,0.0016625,-0.0128175,0.003815,0.07875,-0.085,0.03875,0.0057375003,-0.0149375,-0.0039375,1742108204.701965
0.0325,0.07875,0.1175,0.014297499,-0.028442498,-0.0021199998,0.03125,-0.0775,0.1075,-0.014557499,-0.070557505,0.014205,1742108204.811061
0.04125,0.05875,0.0975,-0.0056775,0.030777501,-0.0021525,0.0275,-0.05125,0.11625,0.0057675,0.04506,0.00052,1742108204.9254742
0.06875,0.075,0.05875,-0.0006875,0.003005,0.0032950002,0.06625,-0.07625,0.05125,-0.00821,0.02797,-0.0123149995,1742108205.0414872
0.05,0.06875,0.07375,0.0107125,-0.043837503,0.00171,0.05875,-0.0825,0.06625,0.0086199995,-0.039825,0.0075225,1742108205.151937
0.00375,0.0575,0.1375,-0.002,0.00087,-0.0031125,0.0,-0.0575,0.1575,-0.0013725,-0.0455175,0.0055075004,1742108205.265918
0.04375,0.05875,0.085,-0.00647,0.036790002,0.000245,0.03375,-0.0525,0.09125,-0.0063625,0.0584725,-0.0106975,1742108205.383992
0.065,0.075,0.0625,0.001465,-0.0068825004,0.0028525,0.0575,-0.08125,0.0525,0.00229,-0.0077675,-0.0040425,1742108205.492913
0.0375,0.06875,0.09625,0.012680001,-0.046875,0.0027925,0.015,-0.065,0.12,-0.00467,-0.061265,0.0137325,1742108205.60587
0.00875,0.06,0.13375,-0.009475,0.0337225,-0.004945,0.015,-0.05125,0.11625,0.0001525,0.054245,-0.0012825,1742108205.7220612
0.06,0.07,0.07375,-0.0058449996,0.030945,0.0025625,0.06625,-0.07625,0.06375,-0.007095,0.0343775,-0.014375,1742108205.832879
0.05625,0.0775,0.06375,0.00293,-0.0258325,0.00029,0.05625,-0.0775,0.0625,0.0101175,-0.0310525,0.0083925,1742108205.947289
0.02375,0.06375,0.1425,0.0020899998,0.0024575,-0.0027925,0.025,-0.05,0.15875,0.0039675,0.01413,0.0065300004,1742108206.063412
0.05375,0.06375,0.07875,-0.0059499997,0.035384998,-0.00023,0.0575,-0.06125,0.06125,-0.0137475,0.04155,-0.01625,1742108206.174125
0.0775,0.0725,0.04875,-0.0034025,0.00566,0.003205,0.09,-0.07875,0.03625,0.0048225,-0.007645,0.0020299999,1742108206.2879639
0.06125,0.08375,0.065,0.0065925,-0.04242,-0.00122,0.0425,-0.0725,0.1025,0.0142825,-0.051225,0.014007499,1742108206.4058828
0.02875,0.0575,0.1325,-0.004485,0.015502499,-0.002655,0.04125,-0.05875,0.11875,-0.0024249998,0.0323175,-0.00525,1742108206.523633
0.07125,0.06625,0.06125,-0.0018150001,0.026290001,0.0061950004,0.08125,-0.085,0.03375,-0.0096125,0.0294025,-0.0109250005,1742108206.630028
0.07125,0.08375,0.04,0.002045,-0.012665,0.002595,0.08125,-0.06875,0.0375,0.0069274995,-0.036849998,0.005645,1742108206.744192
0.02375,0.06875,0.1175,0.009415,-0.032745,-0.0052024997,0.01625,-0.05875,0.165,0.0048375,-0.012665,0.0124200005,1742108206.8643358
0.035,0.055,0.105,-0.008529999,0.039275,-0.00059500005,0.05,-0.05875,0.07625,-0.0083325,0.05368,-0.0131075,1742108206.972165
0.08,0.07375,0.04,-0.0064250003,0.019975001,0.00528,0.09875,-0.08125,0.01375,-0.014007499,0.017930001,-0.0056925,1742108207.086012
0.065,0.08875,0.04625,-0.00264,-0.0341175,-7.75e-05,0.0575,-0.08,0.07375,0.023345,-0.077622496,0.014495,1742108207.204503
0.025,0.055,0.14625,0.0062100003,-0.017975,-0.00554,0.03125,-0.055,0.14125,-0.00142,0.03839,-0.0024875,1742108207.323804
0.0525,0.0575,0.0875,-0.008575,0.04602,0.003175,0.075,-0.09375,0.0175,-0.035445,0.041305,-0.01677,1742108207.427901
0.0775,0.09,0.03,-0.0033275,0.0060275,0.0095675,0.0875,-0.0575,0.03125,-0.0169825,-0.0135200005,0.0063925,1742108207.544998
0.04625,0.10125,0.06375,-0.000107500004,-0.0676425,-0.00917,0.02625,-0.0675,0.11125,0.0470575,-0.0814975,0.0058449996,1742108207.664892
0.02875,0.06125,0.12,-0.0019675,0.021850001,-0.0022574998,0.03875,-0.0725,0.1,0.0019525,0.0351725,0.0001825,1742108207.769464
0.07125,0.07125,0.0425,0.009155,0.030594999,0.01358,0.0675,-0.0925,0.03,-0.0387125,0.039169997,-0.009140001,1742108207.886625
0.065,0.10875,0.0225,-0.004975,-0.0121925,0.0036324998,0.07625,-0.06875,0.03375,0.0337075,-0.0360575,0.00647,1742108208.005693
0.0325,0.1025,0.1075,-0.0056925,-0.0214375,-0.008042499,0.03125,-0.1025,0.15875,0.0096275,0.0013575,0.01181,1742108208.110604
0.0525,0.075,0.07875,0.00702,0.03209,0.0025775002,0.06375,-0.075,0.055,-0.055755,0.053055,-0.0193775,1742108208.224873
0.07625,0.09875,0.02375,0.003905,0.0104075,0.0057375003,0.08625,-0.05625,0.03875,0.00299,-0.00534,0.0048225,1742108208.345205
0.05,0.10125,0.05,-0.0064075,-0.0475925,-0.0038,0.04375,-0.0875,0.0725,0.0378575,-0.0780325,0.014205,1742108208.4524858
0.00375,0.07625,0.1475,0.0013125,0.0175775,-0.0056,0.03625,-0.07,0.11625,-0.00528,0.035095003,-0.00035,1742108208.566684
0.0625,0.08,0.05625,0.0030675002,0.034455,0.0048375,0.08125,-0.09,0.03,-0.053925,0.03743,-0.01526,1742108208.686472
0.06875,0.0925,0.01875,0.004485,-0.0040599997,0.00525,0.08125,-0.07125,0.03625,0.033035,-0.0422975,0.0119775,1742108208.7935512
0.02875,0.10125,0.09875,0.0132,-0.050765,-0.0059825,-0.01375,-0.07,0.1675,0.00319,-0.0552975,0.031205,1742108208.908637
0.02375,0.0675,0.11875,-0.00496,0.042099997,0.0007175,0.03375,-0.0575,0.09375,-0.0175025,0.0617975,-0.0158225,1742108209.026389
0.07,0.09375,0.03625,-0.0004275,0.016692499,0.0065300004,0.0825,-0.08,0.04125,0.0001375,0.0099475,-0.0089425,1742108209.145932
0.055,0.09625,0.04875,0.00586,-0.0499575,-0.00467,0.05,-0.08875,0.0725,0.021712499,-0.0634,0.018035,1742108209.249769
0.0175,0.07375,0.1275,-0.0022574998,0.016145,-0.001755,0.0275,-0.0625,0.13125,0.00882,0.0313425,0.00061,1742108209.366771
0.06625,0.0825,0.05,0.001145,0.02861,0.0059499997,0.06875,-0.08625,0.0425,-0.0494525,0.049072497,-0.021225,1742108209.4863381
0.06875,0.09125,0.03,-0.0026099999,-0.01175,-0.001405,0.075,-0.0525,0.045,0.0308375,-0.0290375,0.0064850003,1742108209.591425
0.03,0.0925,0.10625,0.01271,-0.0562125,-0.0027325,0.01875,-0.09375,0.1425,0.020035,-0.03215,0.01831,1742108209.707069
0.03125,0.0725,0.09625,-0.0069724997,0.0425425,0.0008075,0.04875,-0.0725,0.07125,-0.0411525,0.052474998,-0.01529,1742108209.826417
0.075,0.0875,0.03625,-0.000825,0.022094999,0.003875,0.08875,-0.08125,0.04,0.00045750002,0.003585,-0.0002125,1742108209.933656
0.06375,0.0925,0.0425,-0.0034949998,-0.025604999,-0.0042875,0.05125,-0.09125,0.07875,0.0352325,-0.072235,0.0163425,1742108210.047425
0.03125,0.08875,0.1225,0.0041199997,-0.003555,-0.0081625,0.03125,-0.06875,0.125,-0.0045475,0.037155,-0.0023800002,1742108210.1671512
0.065,0.0725,0.06625,0.0018150001,0.03427,0.0010975,0.0675,-0.08875,0.03625,-0.025635,0.04164,-0.014725001,1742108210.286918
0.08375,0.09125,0.01125,-0.004685,-0.0016025,0.00113,0.0875,-0.0675,0.03375,0.022247499,-0.0331125,0.008605,1742108210.389436
0.06,0.09,0.0725,0.01146,-0.059785,-0.0134575,0.0375,-0.1075,0.10125,0.026014999,-0.02336,0.013122501,1742108210.507435
0.0475,0.06,0.10875,-0.006455,0.025222499,-0.0024575,0.05875,-0.075,0.06875,-0.026702499,0.050385,-0.011275,1742108210.627054
0.0825,0.0725,0.04125,-0.00229,0.0188,0.005645,0.09625,-0.085,0.01375,-0.01593,0.0107125,0.002305,1742108210.7314482
0.07125,0.08625,0.04625,-0.0004275,-0.0184175,0.0,0.08,-0.07125,0.04625,0.033630002,-0.0647425,0.007995,1742108210.847003
0.04,0.08125,0.1175,0.0080575,-0.013,-0.0060125,0.03875,-0.05375,0.1425,0.00705,0.0057075,0.01033,1742108210.965989
0.05625,0.06125,0.08125,-0.0005025,0.0413675,0.0020899998,0.06,-0.08125,0.05375,-0.03682,0.0514825,-0.016235001,1742108211.072553
0.08375,0.07625,0.0225,-0.0010375,0.0221875,0.0049125,0.08875,-0.07625,0.02875,0.007095,-0.0077525,0.0044549997,1742108211.187824
0.0775,0.085,0.03375,0.009675,-0.03267,-0.0029000002,0.0525,-0.0925,0.1,0.0311425,-0.06375,0.0145725,1742108211.307143
0.0525,0.06625,0.135,0.0046550003,0.0044549997,-0.0048375,0.04625,-0.0625,0.11,-0.01973,0.0443875,-0.00435,1742108211.4145331
0.0775,0.05875,0.05,-0.001755,0.0295575,0.0075675,0.07625,-0.08625,0.02625,-0.021805,0.039155,-0.004745,1742108211.528522
0.085,0.08875,0.015,0.00537,-0.0190425,0.0027325,0.09875,-0.0475,0.015,0.0077199996,-0.0177775,0.0051875,1742108211.6474419
0.025,0.07875,0.1125,0.017012501,-0.050537497,-0.01114,0.05,-0.0925,0.075,0.0190275,-0.0827025,0.000655,1742108211.7672892
0.035,0.0475,0.11125,-0.006255,0.051650003,-0.0009,0.0525,-0.05625,0.12625,0.0116725,0.0319375,0.0037075,1742108211.870374
0.08625,0.0775,0.0275,-0.0015575,0.0113225,0.00737,0.08,-0.07625,0.03375,-0.0405425,0.022645,-0.0219425,1742108211.987488
0.0625,0.0775,0.05875,0.00856,-0.0481425,-0.002395,0.04625,-0.09375,0.065,0.017959999,-0.056564998,0.010757499,1742108212.107407
0.00875,0.04875,0.15125,0.00093,-0.003845,-0.003235,0.015,-0.05,0.17125,0.0098875,0.023055,0.0077975,1742108212.211391
0.05125,0.05625,0.08375,-0.00917,0.042907503,0.0027,0.06,-0.0625,0.05125,-0.021514999,0.0452125,-0.021835,1742108212.327668
0.0775,0.0775,0.05125,-0.00177,0.0087575,0.0045324997,0.0675,-0.07375,0.0525,0.009705,-0.016205,0.0048375,1742108212.451516
0.0475,0.07125,0.0775,0.008025,-0.048049998,-0.002625,0.0325,-0.08,0.10875,-0.0043025,-0.0482325,0.0173025,1742108212.553552
0.0225,0.045,0.1325,-0.008957501,0.030989999,-0.0025025,0.0425,-0.06125,0.1025,-0.0110325,0.049912497,-0.0095375,1742108212.667538
0.0775,0.0675,0.055,0.0012675,0.0051125004,0.0060275,0.08375,-0.08125,0.04375,-0.0090625,0.00612,-0.010085,1742108212.787429
0.05875,0.075,0.0675,0.010865,-0.034515,1.5e-05,0.0525,-0.0775,0.0625,0.0155325,-0.052490003,0.01381,1742108212.895488
-0.015,0.05125,0.1525,0.0065774997,-0.0352775,-0.0003975,-0.00125,-0.0525,0.17,0.0045175,-0.013245,0.00827,1742108213.009453
0.02,0.045,0.1075,-0.0069425,0.054672502,-0.0038,0.04875,-0.05625,0.075,-0.0107725,0.05368,-0.0162975,1742108213.1280022
0.07125,0.065,0.0575,0.00055,0.0081025,0.0042725,0.075,-0.08625,0.0425,0.0045475,-0.0113825,-0.00148,1742108213.248271
0.045,0.07,0.1075,0.013274999,-0.039474998,-0.0019375,0.02625,-0.07375,0.11375,-0.0076149995,-0.05931,0.018325001,1742108213.351477
0.0275,0.05625,0.1175,-0.008895,0.041045,-0.0037375,0.02625,-0.05375,0.13,-6e-05,0.045930002,0.00296,1742108213.4670742
0.07625,0.07125,0.055,-0.00052,-0.0029449998,0.0036324998,0.07375,-0.0675,0.04125,-0.017975,0.03238,-0.0178825,1742108213.587811
0.04125,0.06375,0.09125,0.017135,-0.057189997,0.0024425,0.0575,-0.08125,0.0675,0.00972,-0.0466625,0.0057975003,1742108213.693501
-0.01,0.05625,0.14375,-0.004685,0.012069999,-0.004945,0.0125,-0.045,0.1625,0.0069274995,-0.0055225003,0.013245,1742108213.807903
0.0475,0.055,0.0775,-0.0057675,0.0296175,0.00093,0.055,-0.05125,0.0625,-0.0009925,0.0278775,-0.01291,1742108213.930741
0.055,0.06625,0.0775,0.005965,-0.025024999,0.0024575,0.04625,-0.08,0.0725,-0.001115,-0.045625,-0.000625,1742108214.048034
-0.00625,0.055,0.145,0.0019375,-0.014175001,-0.0016475001,-0.0125,-0.06,0.1675,0.00586,-0.0067600003,0.010757499,1742108214.1494882
0.03125,0.0475,0.10125,-0.0069575,0.0491025,-0.0025325,0.03625,-0.04875,0.08875,-0.00702,0.057724997,-0.01001,1742108214.268211
0.0725,0.06625,0.065,-0.0013425,0.01654,0.00235,0.07875,-0.0725,0.0475,-0.0111075,0.0189525,-0.01381,1742108214.389293
0.05125,0.0675,0.07375,0.0065625,-0.038680002,-0.00113,0.04875,-0.07625,0.07625,0.008117501,-0.04068,0.0101025,1742108214.491283
0.01,0.05875,0.15875,-0.00293,0.00351,-0.0047600004,0.025,-0.05375,0.15625,0.0119624995,0.0304725,0.0081025,1742108214.6078541
0.05875,0.0525,0.0775,-0.00708,0.0440225,0.0025625,0.06875,-0.0625,0.0525,-0.0292825,0.042237498,-0.024292499,1742108214.7273421
0.08,0.0725,0.05,-0.002305,0.0001975,0.005005,0.0825,-0.08,0.03125,0.014007499,-0.01442,0.0054325,1742108214.833302
0.04875,0.06875,0.0925,0.015335,-0.057724997,-0.002335,0.04125,-0.08125,0.11375,0.011185001,-0.0508125,0.02208,1742108214.9518678
0.02,0.05125,0.1275,-0.01587,0.05104,-0.00705,0.0475,-0.055,0.08875,-0.0154125,0.0534825,-0.0119775,1742108215.067909
0.085,0.06375,0.035,-0.0060275,0.023605,0.00644,0.1025,-0.075,0.03,-0.014297499,0.031692497,-0.008895,1742108215.188009
0.08375,0.08125,0.0275,0.0001375,-0.01323,0.0018300001,0.08875,-0.0575,0.03,0.031997498,-0.04811,0.0054775,1742108215.289365
0.0475,0.08375,0.10875,0.0230875,-0.0605,-0.0065625,0.035,-0.0825,0.1625,0.01802,0.0098575,0.0101175,1742108215.409983
0.04875,0.0525,0.0925,-0.0109875,0.04393,-0.001785,0.06375,-0.0825,0.035,-0.0069274995,0.05153,-0.014145001,1742108215.5283258
0.08875,0.075,0.0375,0.0010825,0.016815001,0.0107875,0.1025,-0.0625,-0.005,-0.010545,-0.0048074997,0.004165,1742108215.6305962
0.06375,0.085,0.0625,0.0054625003,-0.0466625,-0.0022274998,0.03875,-0.09375,0.07625,0.005585,-0.0957175,0.0074925,1742108215.7483141
0.01375,0.045,0.16,0.0034625002,-0.0158375,-0.00679,0.03375,-0.0625,0.1225,0.0043025,0.0396275,-0.003845,1742108215.868093
0.0575,0.0525,0.08375,-0.0080875,0.047819998,0.0041799997,0.08125,-0.0875,0.02375,-0.0537575,0.042175,-0.02124,1742108215.971364
0.085,0.0775,0.035,-0.002685,0.008529999,0.0065774997,0.0625,-0.09875,0.04,0.029435,-0.060975,0.013015,1742108216.0880718
0.0525,0.07,0.0725,0.0136875,-0.0652325,-0.0048074997,-0.00875,-0.04375,0.19125,0.0028225,-0.028717501,0.018477501,1742108216.207503
0.00125,0.03875,0.16125,-0.0072475,0.030257499,-0.00267,0.0375,-0.055,0.08625,-0.016555,0.069015,-0.01918,1742108216.3134139
0.07375,0.06375,0.05375,-0.0033425,0.019165002,0.0084525,0.0925,-0.0875,0.01875,-0.0054925,0.004365,-0.003905,1742108216.430578
0.05625,0.0825,0.065,0.0075675,-0.04036,0.00045750002,0.0475,-0.09,0.07125,0.0087575,-0.07695,0.0139775,1742108216.547752
-0.005,0.0575,0.15875,0.002715,-0.008545,-0.0052175,0.02375,-0.06875,0.12875,0.0020150002,0.040099997,-0.0010225,1742108216.667525
0.05125,0.06,0.07375,-0.01349,0.041215,0.0056149997,0.07125,-0.08,0.04375,-0.03688,0.039490003,-0.019317498,1742108216.769418
0.06375,0.0825,0.055,-0.000825,-0.0081325,0.0043175,0.075,-0.08875,0.04375,0.0328975,-0.043,0.0116425,1742108216.888772
0.0225,0.0675,0.09,0.0113225,-0.056822497,0.0045475,0.005,-0.07,0.16,-0.002685,-0.031495,0.011765,1742108217.0078158
0.00625,0.05625,0.11375,-0.0172575,0.052307498,-0.001405,0.04625,-0.06875,0.07,-0.023559999,0.056137502,-0.020645,1742108217.11144
0.06875,0.085,0.05,-0.0029000002,0.0056925,0.0028074998,0.07625,-0.07875,0.04125,0.009002499,-0.0043800003,0.00087,1742108217.2271612
0.04,0.08,0.07375,0.00789,-0.04924,-0.004685,0.02375,-0.08125,0.06625,0.0068975003,-0.0876925,0.021745,1742108217.347588
-0.0175,0.0525,0.15625,-0.00409,0.036927503,-0.0042125,0.015,-0.0675,0.12125,0.008957501,0.0561225,-0.0012675,1742108217.452336
0.06375,0.07375,0.0525,-0.003175,0.033447497,0.003235,0.07125,-0.0975,0.035,-0.014175001,0.037169997,-0.0157325,1742108217.5679948
0.065,0.085,0.0475,-0.0033725,-0.0155325,-0.00113,0.06125,-0.0925,0.045,0.020645,-0.0464175,0.010575,1742108217.687904
0.0075,0.0875,0.1325,0.0045175,-0.050582502,0.0012050001,-0.01125,-0.06375,0.195,-0.0018,-0.023559999,0.0096125,1742108217.79338
0.02875,0.06875,0.08375,-0.0143425,0.0496375,-0.0014500001,0.03,-0.0625,0.07625,-0.022582501,0.071427494,-0.023772499,1742108217.909865
0.07,0.0925,0.045,0.0051725,0.0047925,0.0062100003,0.08,-0.0925,0.03625,-0.00644,0.0115825,-0.0072775004,1742108218.0278962
0.03625,0.0875,0.065,0.008225,-0.0431225,-0.0036475,0.04125,-0.095,0.0625,0.0110325,-0.0820625,0.0169825,1742108218.147848
-0.005,0.07375,0.15125,0.0010375,0.0176075,-0.0042575,-0.00125,-0.04125,0.175,0.011735,0.026215,0.008957501,1742108218.2491882
0.0575,0.0825,0.05375,-0.008025,0.03714,0.0001525,0.04875,-0.0775,0.04875,-0.033585,0.0564875,-0.0281975,1742108218.368514
0.06875,0.0825,0.04125,-0.002625,-0.012115,-0.00084,0.0675,-0.10125,0.03875,0.02803,-0.029524999,0.009795,1742108218.4875379
0.03,0.07875,0.08625,0.019257499,-0.0656275,0.0028074998,-0.01125,-0.07,0.13,-0.0012825,-0.079849996,0.022582501,1742108218.5914571
0.00125,0.0625,0.12,-0.0047150003,0.02678,-0.0039825,0.01875,-0.05625,0.1,-0.0066374997,0.06865,-0.012085,1742108218.708022
0.055,0.07875,0.07,-0.00322,0.031845,0.0062100003,0.06875,-0.0825,0.04375,-0.02008,0.02539,-0.017930001,1742108218.827126
0.05125,0.08875,0.06125,-7.75e-05,-0.0237275,-0.00084,0.04,-0.09,0.06,0.010635001,-0.0655675,0.01857,1742108218.9332108
-0.00375,0.06,0.11375,0.01654,-0.054015,0.0051574996,-0.02,-0.05125,0.15375,0.00116,-0.02266,0.0003975,1742108219.048077
-0.01875,0.0575,0.135,-0.0058125,0.036009997,-0.00267,0.02375,-0.06625,0.09125,-0.007095,0.063430004,-0.0178375,1742108219.16803
0.04375,0.07125,0.065,-0.00557,0.0172425,0.0037375,0.04875,-0.09,0.06125,0.005295,-0.030015,0.00351,1742108219.2879791
0.02125,0.0675,0.095,0.0099325,-0.040695,-0.000305,-0.00875,-0.0575,0.12125,0.005585,-0.0567175,0.0145425,1742108219.3893518
-0.02,0.05125,0.1375,-0.0140225,0.036025003,-0.008880001,0.00625,-0.05875,0.10625,0.0001525,0.06952,-0.0051875,1742108219.508322
0.05625,0.07625,0.06,-0.0058899997,0.0175025,0.0059975,0.05875,-0.09,0.06125,0.000365,0.03032,-0.009140001,1742108219.62739
0.0525,0.0875,0.06125,0.00064,-0.0214075,-0.0028525,0.0575,-0.08875,0.0575,0.019165002,-0.03041,0.0090475,1742108219.731329
-0.015,0.06875,0.12,0.0160075,-0.0544125,0.0015725,0.015,-0.065,0.1525,0.008255,0.01413,0.002915,1742108219.8477519
0.00125,0.06,0.1125,-0.012635,0.056092497,-0.0027474998,0.0375,-0.08625,0.04625,-0.040925,0.0484,-0.02472,1742108219.966933
0.06,0.0825,0.05125,0.0013575,0.021485,0.0075525,0.065,-0.08125,0.04875,0.00975,-0.010284999,0.0045925,1742108220.0722718
0.045,0.0875,0.06375,0.0047750003,-0.0302425,-0.005875,0.03125,-0.0925,0.105,0.027465,-0.04573,0.0152125,1742108220.187973
-0.00625,0.06375,0.15,0.0059975,0.0007025,-0.000885,0.035,-0.07,0.095,-0.0320125,0.0484325,-0.0204625,1742108220.307947
0.04,0.07375,0.08125,-0.000855,0.035035,0.0062399996,0.08125,-0.08875,0.04375,-0.0148925,0.0130625,-0.0026099999,1742108220.414355
0.055,0.085,0.0625,-0.0044549997,-0.0036925,-0.001525,0.055,-0.08875,0.04875,0.0343475,-0.073699996,0.01892,1742108220.52826
0.025,0.07375,0.09,0.0072625,-0.045745,-0.0083925,0.0125,-0.0625,0.135,0.0031125,0.0107425,0.009902501,1742108220.647736
0.015,0.05625,0.1125,-0.00348,0.03807,0.0016175,0.0575,-0.08875,0.04875,-0.0284725,0.0393825,-0.019395001,1742108220.767821
0.06125,0.09,0.05625,0.0027925,0.022217501,0.0084224995,0.06875,-0.08625,0.03375,0.0173175,-0.014115,0.0058125,1742108220.869123
0.05,0.085,0.0675,-0.00415,-0.026305001,-0.00644,0.02375,-0.095,0.0925,0.009262499,-0.070785,0.018477501,1742108220.9879959
0.0175,0.075,0.13125,-0.0059825,0.02211,0.0004125,0.04375,-0.0725,0.0825,-0.0030975002,0.039869998,-0.0057225,1742108221.107878
0.065,0.0825,0.06,-0.00093,0.026977502,0.0038599998,0.07375,-0.0875,0.04375,-0.0302425,0.0253,-0.017715,1742108221.209235
0.07125,0.08625,0.03375,-0.002595,-0.0080575,-0.0038599998,0.06,-0.0925,0.06125,0.025237499,-0.0369875,0.0137175,1742108221.3279932
0.0375,0.08125,0.1,0.0080575,-0.049652502,-0.0054025003,0.0075,-0.07375,0.13375,0.0080875,-0.0178675,0.018889999,1742108221.437153
0.035,0.06375,0.1,-0.0036925,0.03215,0.002335,0.0525,-0.07125,0.07625,-0.0246125,0.048875,-0.018615,1742108221.5512471
0.07125,0.08875,0.05125,0.0010225,0.01683,0.002045,0.06625,-0.1025,0.04125,0.0104225,-0.00734,0.001175,1742108221.667649
0.0675,0.07875,0.0525,-0.0025175,-0.025817499,-0.00557,0.04125,-0.08375,0.0875,0.008042499,-0.0555425,0.0183875,1742108221.787727
0.0275,0.08125,0.13375,0.0015875,-0.0018,-0.003005,0.02875,-0.05375,0.11875,-0.0010225,0.034392502,-0.0027925,1742108221.892245
0.06,0.075,0.0725,0.000275,0.030135,0.0045475,0.0725,-0.08375,0.04875,-0.019485,0.031615,-0.0163425,1742108222.008045
0.07625,0.08625,0.0375,-0.0045175,-0.0033575,-0.001465,0.07,-0.08625,0.03375,0.013595,-0.0281075,0.009185,1742108222.127861
0.0475,0.07875,0.0875,0.0047,-0.050552502,-0.0112924995,0.005,-0.07625,0.16,0.001435,-0.0463875,0.0219275,1742108222.2349288
0.03625,0.06,0.12125,-0.0048074997,0.027940001,-0.0024875,0.04125,-0.06125,0.09125,-0.0142375,0.0491025,-0.01155,1742108222.3481941
0.08625,0.0675,0.03625,-0.00142,0.0242625,0.0040275003,0.075,-0.09375,0.03625,-0.011367501,0.0216825,-0.01416,1742108222.4671009
0.06875,0.08375,0.05,0.00154,-0.0378125,-0.0004125,0.05,-0.0875,0.065,0.0193325,-0.0711975,0.016967501,1742108222.588413
0.00875,0.06375,0.13625,0.015045,-0.026215,-0.00267,0.00875,-0.04625,0.175,0.011445,0.015197501,0.0094,1742108222.689985
0.04875,0.055,0.085,-0.00917,0.038925,0.0047150003,0.065,-0.06875,0.06,-0.0248575,0.0444025,-0.02208,1742108222.808157
0.07625,0.08,0.04625,0.00016750001,0.00441,0.0042125,0.0725,-0.085,0.04,0.0143425,-0.0196375,0.0029449998,1742108222.918066
0.045,0.0725,0.0875,0.0066975,-0.0485075,-0.0048074997,0.02125,-0.07875,0.11,-0.0096424995,-0.054672502,0.018905,1742108223.0312068
0.0175,0.05125,0.135,-0.0083325,0.0285025,-0.0012050001,0.03875,-0.06625,0.0925,-0.0001375,0.0523225,-0.00856,1742108223.1480162
0.0675,0.06875,0.06375,-0.0028074998,0.036284998,0.008117501,0.0775,-0.085,0.0475,-0.0202325,0.02832,-0.01744,1742108223.267848
0.075,0.0875,0.04,-0.0040275003,-0.008575,0.0004425,0.065,-0.09,0.0675,0.0298925,-0.0378125,0.012695,1742108223.373107
0.05625,0.07875,0.10125,-0.0054925,-0.0406025,-0.0028225,0.0375,-0.0575,0.14625,0.00389,0.028137501,0.00235,1742108223.4879968
0.05875,0.06875,0.07,-0.0061025,0.0279075,0.0057075,0.065,-0.08375,0.04375,-0.0375825,0.0410775,-0.0202625,1742108223.607799
0.075,0.1,0.0275,-0.0013125,-0.004745,-0.00055,0.08375,-0.065,0.0225,0.0206,-0.016479999,0.0045175,1742108223.7270908
0.05875,0.09125,0.0725,-0.0022574998,-0.027602501,-0.006835,0.02625,-0.1075,0.125,-0.0013725,-0.0591425,0.0177775,1742108223.828183
0.03875,0.0625,0.115,0.0012825,0.031997498,0.00035,0.0425,-0.0625,0.10375,-0.002045,0.0399925,-0.0027325,1742108223.951176
0.0775,0.08125,0.035,0.00531,0.027955,0.0058449996,0.0825,-0.08125,0.035,-0.018815,0.022950001,-0.01442,1742108224.0678048
0.0775,0.08625,0.0225,-0.0007775,-0.02588,-0.0036324998,0.05125,-0.0975,0.06875,0.0155175,-0.058119997,0.0136875,1742108224.1700401
0.025,0.085,0.1375,-0.00389,-0.0036324998,-0.0048525,0.02625,-0.0575,0.13,0.0057075,0.030915001,0.001145,1742108224.287203
0.0625,0.0725,0.07375,0.00059500005,0.032302503,0.00798,0.07375,-0.07625,0.04375,-0.037017502,0.041442502,-0.02028,1742108224.409662
0.0725,0.09125,0.04375,-0.0046375,-0.0018475,0.00059500005,0.07625,-0.07375,0.0375,0.015945,-0.017012501,0.0048825,1742108224.5110788
0.05125,0.08,0.06375,0.0010675,-0.05371,-0.0050500003,0.03125,-0.09375,0.07,0.01068,-0.086075,0.013505,1742108224.62799
-0.00125,0.0675,0.13375,0.0009,0.0005025,-0.0018475,-0.00125,-0.065,0.15375,0.010832501,0.00377,0.0123149995,1742108224.748024
0.0425,0.06375,0.07875,0.001465,0.04248,0.0051275003,0.05,-0.07625,0.05375,-0.025727501,0.0566875,-0.0262,1742108224.8532119
0.06625,0.0925,0.04375,-0.00496,-0.0051875,0.001405,0.065,-0.11625,0.04625,0.0210725,-0.0349725,0.0090175,1742108224.967089
0.03875,0.07875,0.08875,0.006715,-0.0523975,-0.00496,-0.00625,-0.08125,0.13125,0.005645,-0.05043,0.017335,1742108225.087528
0.005,0.06375,0.125,-0.008117501,0.0354775,-0.000885,0.0225,-0.08125,0.085,0.0001225,0.06285,-0.0102375,1742108225.207455
0.05875,0.0825,0.055,-0.0010675,0.0243375,0.0072775004,0.07125,-0.0925,0.03625,-0.023025,0.0221875,-0.0195625,1742108225.309216
0.0575,0.085,0.055,-0.00354,-0.018235,-0.00409,0.03875,-0.10375,0.0625,0.0122975,-0.05449,0.019592501,1742108225.4303691
0.00625,0.08,0.1125,0.0146475,-0.047715,0.0007025,0.0025,-0.0625,0.165,-0.002885,-0.0041199997,0.0107275,1742108225.547838
0.02125,0.0625,0.095,-0.011657501,0.044740003,0.00023,0.045,-0.07375,0.05,-0.021102501,0.0517575,-0.02565,1742108225.650104
0.065,0.085,0.0525,0.0069125,0.020675,0.0098125,0.0725,-0.08875,0.0375,0.0101475,-0.0056925,0.0013275,1742108225.767752
0.04875,0.09125,0.05875,-0.0020150002,-0.0314475,-0.0061950004,0.01625,-0.08625,0.095,-0.00058,-0.065675005,0.017409999,1742108225.888609
0.0075,0.08,0.14125,0.0023800002,0.0024249998,-0.0019375,0.02125,-0.0775,0.11,-0.0019824998,0.063675,-0.00908,1742108225.9921129
0.0525,0.08,0.06875,0.0018775001,0.04213,0.0079499995,0.07875,-0.09625,0.03,0.003815,0.0337975,-0.00734,1742108226.107934
0.06875,0.09625,0.0375,-0.0106975,-0.00171,-0.00502,0.08,-0.07375,0.02125,0.0284575,-0.0479425,0.009002499,1742108226.2267652
0.05375,0.085,0.07,0.00059500005,-0.053009998,-0.01001,0.035,-0.08,0.13125,-0.00061,-0.0036624998,0.007935,1742108226.3347409
0.0325,0.065,0.10625,-0.0027774998,0.0251475,-0.00052,0.0575,-0.0925,0.045,-0.0394275,0.0494225,-0.019667499,1742108226.451297
0.07125,0.09,0.04,-0.0018925001,0.0213925,0.0055549997,0.08,-0.0825,0.02125,-0.0016475001,-0.0048225,0.0036,1742108226.567692
0.07,0.0925,0.0325,-0.0062725,-0.0172575,-0.0034025,0.03875,-0.1075,0.08375,0.0151225,-0.07054251,0.0157625,1742108226.687905
0.03625,0.0875,0.1075,0.007005,-0.0346675,-0.0006725,0.04,-0.0725,0.1,-0.004945,0.041015,-0.0057075,1742108226.790153
0.04375,0.0675,0.08375,0.00792,0.045197498,0.01538,0.07875,-0.09125,0.0325,-0.0372625,0.0338275,-0.018265,1742108226.909674
0.0675,0.09875,0.03875,0.00045750002,0.0014500001,0.00267,0.07875,-0.0725,0.03375,0.0290975,-0.0364375,0.008575,1742108227.027447
0.0475,0.07875,0.06625,0.00087,-0.049392503,-0.008850001,0.00625,-0.09375,0.1075,-0.007035,-0.07405,0.0216225,1742108227.1321301
-0.0125,0.06625,0.16,0.002885,0.029692499,0.00142,0.02375,-0.06375,0.09875,-0.0030375,0.063172504,-0.0127575,1742108227.248053
0.06,0.08125,0.0475,-0.000365,0.03395,0.0077049998,0.07875,-0.0925,0.03625,-0.0164175,0.01387,-0.0166775,1742108227.367925
0.06375,0.0925,0.04375,0.001725,-0.0296775,-0.0062875,0.04,-0.09625,0.06375,0.01645,-0.067839995,0.0264125,1742108227.474833
0.00125,0.08,0.13125,0.00821,-0.035735,-0.0022574998,0.005,-0.05875,0.14625,0.007095,0.031555,0.004745,1742108227.587991
0.04125,0.07,0.07125,-0.0098425,0.04988,0.003845,0.06375,-0.08,0.035,-0.0266125,0.0360575,-0.025222499,1742108227.707413
0.06375,0.10125,0.04125,-0.0009775,-0.0028225,0.000305,0.06,-0.0975,0.05125,0.0210275,-0.037765,0.0140525,1742108227.8269398
0.0325,0.08125,0.0775,0.00708,-0.050735,-0.0069875,-0.00875,-0.07,0.1575,-0.0025025,-0.030227501,0.015275,1742108227.9301782
-0.01125,0.05875,0.1375,-0.0090175,0.044205002,-0.002135,0.0325,-0.0675,0.08625,-0.0160375,0.066802494,-0.02234,1742108228.048162
0.06625,0.0775,0.045,0.00508,0.02423,0.00975,0.07875,-0.08375,0.0425,-0.01416,0.0081325,-0.01007,1742108228.167302
0.0575,0.095,0.05,-0.0053875,-0.019225,-0.00502,0.03375,-0.1,0.07,0.00714,-0.076585,0.0228125,1742108228.270918
0.01375,0.08,0.12375,0.012085,-0.0356,-0.0009,0.00625,-0.0575,0.15,0.0074775,0.037765,0.0015875,1742108228.388551
0.04,0.07,0.0775,-0.0057675,0.049895,0.00502,0.05625,-0.09125,0.0525,-0.0279075,0.0423275,-0.0208125,1742108228.507658
0.06625,0.09375,0.04375,0.0165875,0.0078275,0.008545,0.0725,-0.065,0.0575,-0.00708,-0.006455,0.0057075,1742108228.6120288
0.03875,0.07625,0.07875,0.0060425,-0.04898,-0.00937,0.025,-0.09875,0.09875,0.0111075,-0.06926,0.021117501,1742108228.726872
-0.015,0.0575,0.1625,0.0036,0.0047925,-0.0016925,0.0225,-0.04875,0.1325,0.005065,0.0431525,0.003875,1742108228.8470469
0.05125,0.06875,0.07,-0.009415,0.0414125,0.0047750003,0.07125,-0.065,0.06375,-0.038375,0.028397499,-0.0278925,1742108228.953032
0.06625,0.085,0.05125,-0.004105,-0.0071575,-0.00264,0.06,-0.09875,0.06625,0.0437625,-0.035035,0.01982,1742108229.0678048
0.0325,0.07125,0.085,0.0120075,-0.060975,-0.01065,0.025,-0.04375,0.165,0.00711,0.0113075,0.0098275,1742108229.187449
-0.00875,0.035,0.1425,-0.003525,0.03743,-0.000275,0.06,-0.0725,0.0625,-0.034424998,0.039077498,-0.025405,1742108229.2940218
0.05875,0.07375,0.06375,0.004135,0.030975001,0.01361,0.07125,-0.07,0.05125,0.018127501,-0.019135,0.01599,1742108229.410084
0.0475,0.09125,0.0675,-0.0027925,-0.0310975,-0.0107425,0.0275,-0.07375,0.12625,-0.0013875001,-0.04837,0.01497,1742108229.528228
-0.01375,0.0525,0.11875,0.003875,-0.061997503,-0.0060725003,0.04375,-0.0625,0.10375,-0.0018,0.043197498,-0.0083775,1742108229.6480482
-0.0,0.0575,0.11125,0.00023,0.039612498,0.00232,0.08,-0.08125,0.02625,-0.00856,-0.00084,-0.0061950004,1742108229.750145
0.04,0.08125,0.07,-0.0018625,-0.000655,-0.0009775,0.05125,-0.08125,0.08,0.0045775,-0.062775,0.01291,1742108229.868193
0.00375,0.06375,0.13375,-0.0036775,0.0025175,-0.0068200002,0.01625,-0.055,0.14125,0.009002499,0.0328075,0.0054775,1742108229.987653
0.04625,0.0675,0.07,-0.0075375,0.042907503,0.0121625,0.06625,-0.0725,0.06,-0.01291,0.03624,-0.0157475,1742108230.092065
0.05875,0.09125,0.055,-0.0019824998,-0.01262,-0.0019824998,0.07,-0.07625,0.0475,0.006455,-0.0187225,0.000565,1742108230.2078772
0.02375,0.07375,0.11,0.016280001,-0.041625,0.0007025,0.02,-0.06375,0.12625,-0.0055549997,-0.0434725,0.0152125,1742108230.327669
0.01,0.06,0.1175,-0.0077975,0.03955,0.0009775,0.035,-0.05125,0.10375,-0.005585,0.0434875,-0.00737,1742108230.434079
0.06375,0.0775,0.055,0.0020599999,0.015717499,0.00769,0.0725,-0.06375,0.05625,-0.025115,0.011855,-0.0199275,1742108230.548239
0.05,0.08625,0.065,0.0025475,-0.0263825,-0.0051875,0.04125,-0.075,0.07875,0.0028225,-0.0606375,0.017272498,1742108230.667876
-0.00125,0.0675,0.14,0.0128175,-0.0230875,6e-05,0.005,-0.05125,0.1625,0.008835,0.0204175,0.0086825,1742108230.788109
0.02625,0.0625,0.095,-0.012802499,0.051512502,0.002885,0.05125,-0.05375,0.0725,-0.02472,0.041977502,-0.022827499,1742108230.888983
0.0675,0.08625,0.05,0.003555,0.006165,0.00557,0.0675,-0.0825,0.06125,0.0174875,-0.01715,0.00679,1742108231.008141
0.03625,0.07375,0.08,0.0090625,-0.0488275,-0.00647,0.01375,-0.05375,0.0975,-0.0025625,-0.0712575,0.015197501,1742108231.127957
-0.01125,0.055,0.15,-0.0010075001,0.011275,-0.0022125002,-0.02125,-0.0575,0.15625,-3e-05,0.03331,-0.0031424998,1742108231.231062
0.0475,0.0675,0.07375,-0.0092325,0.0440825,0.0069425,0.035,-0.05875,0.075,-0.013595,0.0485225,-0.0174725,1742108231.3476999
0.06125,0.08375,0.05875,0.0027474998,-0.0137625,0.000107500004,0.0575,-0.0825,0.07375,0.022385,-0.0275725,0.0099325,1742108231.466945
0.0225,0.0625,0.09875,0.015,-0.0572975,0.000245,-0.0025,-0.05625,0.16625,0.014145001,-0.0154875005,0.0189825,1742108231.573018
0.0025,0.0475,0.12125,0.00033500002,0.0447225,0.0093525,0.035,-0.0475,0.085,-0.026092501,0.0547175,-0.022965001,1742108231.688256
0.05375,0.08125,0.0675,-0.0019675,0.0201425,0.0057375003,0.0775,-0.07,0.05125,0.00685,-0.0058899997,-0.0059499997,1742108231.807575
0.05125,0.07625,0.07375,-0.0034175,-0.025162501,-0.01233,0.015,-0.0775,0.0825,0.0040125,-0.085175,0.0308525,1742108231.914898
0.0025,0.0575,0.12,0.0134725,-0.0541525,0.0047,-0.04,-0.0675,0.1825,0.00763,0.0148175005,0.0066825,1742108232.028908
0.0,0.045,0.11875,-0.0137475,0.0570075,-0.0021199998,0.03625,-0.06375,0.05875,-0.019805001,0.055907503,-0.0254825,1742108232.1480389
0.06,0.08,0.06125,-0.0012825,0.0030375,0.003525,0.0625,-0.09,0.05875,0.0128175,-0.028365,0.0086199995,1742108232.267618
0.0325,0.0625,0.09,0.0121625,-0.046492502,0.00171,-0.00875,-0.05375,0.15375,0.00435,-0.043595,0.0143275,1742108232.3710022
-0.01625,0.0525,0.14375,-0.0095525,0.020355,-0.0076149995,0.01875,-0.04875,0.105,-0.01715,0.06758,-0.0192425,1742108232.487743
0.05375,0.0675,0.07125,-0.014725001,0.040817503,0.006225,0.07375,-0.0825,0.055,-0.0121625,0.028075,-0.023055,1742108232.607878
0.06875,0.0825,0.055,-0.0045175,-0.00229,-0.0012825,0.03625,-0.09,0.07875,0.0272975,-0.054732498,0.0233775,1742108232.712877
0.02625,0.0725,0.09,0.0075525,-0.055419996,-0.00583,-0.005,-0.05375,0.17125,0.0102375,0.0034475,0.01155,1742108232.827617
0.00875,0.055,0.12625,-0.0080875,0.021835,-0.0024249998,0.05125,-0.06375,0.0625,-0.0264125,0.05745,-0.027405001,1742108232.95139
0.0525,0.07375,0.065,-0.0056,0.01587,0.0047750003,0.06625,-0.10125,0.04375,0.013854999,-0.0346675,0.0054175,1742108233.067738
0.03125,0.0725,0.08625,0.00972,-0.033905,-0.0007325,-0.0125,-0.04625,0.12125,-0.0022274998,-0.0756225,0.0098125,1742108233.169007
-0.01,0.0575,0.15,0.00154,0.0009925,0.002305,-0.0275,-0.0625,0.13875,-0.007675,0.0278475,-0.0160675,1742108233.288219
0.0275,0.06625,0.07625,-0.010314999,0.040145002,0.0103,0.01625,-0.0675,0.07875,-0.0128775,0.04976,-0.022385,1742108233.409833
0.0375,0.095,0.0725,0.0004725,-0.019790001,-0.0044699996,0.0175,-0.0725,0.08,0.014527501,-0.050307497,0.0313275,1742108233.510806
-0.005,0.05875,0.115,0.011185001,-0.0358575,-0.002305,-0.035,-0.0575,0.1675,0.001175,-0.0052175,0.0062875,1742108233.627692
-0.00875,0.06375,0.1325,-0.010895001,0.042724997,-0.0001525,0.02375,-0.06125,0.08,-0.0207675,0.07222,-0.03067,1742108233.748126
0.05,0.08375,0.05375,-0.0050975,0.015945,0.00441,0.05,-0.105,0.055,0.0207525,-0.0287625,0.0107275,1742108233.852768
0.0425,0.08625,0.06625,-0.00032,-0.03711,-0.0139325,-0.02375,-0.055,0.115,0.0113075,-0.071595,0.025285,1742108233.967082
-0.0225,0.0575,0.13625,0.0149375,-0.0379025,-0.00055,-0.02,-0.0525,0.13375,-0.006225,0.0723425,-0.0073249997,1742108234.087709
0.01125,0.055,0.08875,-0.01619,0.0637825,0.006715,0.0525,-0.07875,0.05125,-0.02214,0.031905,-0.028885,1742108234.2078989
0.0475,0.10625,0.05125,0.004745,-0.0146625005,-0.0006725,0.0225,-0.08375,0.075,0.0118875,-0.0635825,0.030015,1742108234.308799
-0.0025,0.0675,0.11,0.0115975,-0.049544998,-0.00702,-0.04375,-0.06625,0.18375,0.0011900001,-0.0104225,0.00586,1742108234.430515
-0.01375,0.0575,0.13625,-0.009734999,0.047819998,0.0015575,0.01375,-0.065,0.07875,-0.0248875,0.075515,-0.0325,1742108234.548245
0.05,0.0925,0.0575,-0.0024249998,0.019225,0.008225,0.0525,-0.08875,0.06,0.014115,-0.0116425,-0.00023,1742108234.65103
0.0375,0.0825,0.06875,0.0012975,-0.038315,-0.01291,0.00125,-0.06125,0.1125,0.009415,-0.0700075,0.02716,1742108234.768116
-0.0175,0.06375,0.14875,0.0063775,-0.0041199997,-0.0012050001,0.00125,-0.05625,0.11625,-0.00859,0.070725,-0.01358,1742108234.888939
0.03875,0.07,0.07375,-0.0122225,0.050217498,0.008529999,0.06,-0.08125,0.06625,-0.014527501,0.0221875,-0.0193775,1742108234.992853
0.05625,0.09625,0.05125,-0.00122,-0.0037375,0.00064,0.04,-0.09,0.06375,0.0143425,-0.072555,0.027817499,1742108235.108363
0.02875,0.08,0.0825,0.00975,-0.05989,-0.008285,-0.0375,-0.07125,0.1925,0.002305,-0.0249175,0.0104075,1742108235.2274802
-0.01625,0.0525,0.1475,-0.0077675,0.0366525,0.0018150001,0.02375,-0.065,0.0675,-0.029450001,0.07283,-0.033265,1742108235.347561
0.04875,0.07875,0.06125,0.003205,0.0269925,0.0143575,0.05125,-0.08375,0.04875,0.0154875005,-0.014907501,-0.0009925,1742108235.451448
0.03875,0.0875,0.07,0.0021675,-0.032975,-0.0087275,-0.00375,-0.05375,0.095,0.006165,-0.082015,0.0252075,1742108235.568359
-0.02375,0.0525,0.13625,0.0130625,-0.031875,0.00331,-0.0375,-0.05625,0.1725,-0.0071875,0.0544275,-0.01085,1742108235.688023
0.00125,0.05375,0.11375,-0.013305,0.0599225,0.002685,0.0375,-0.075,0.05625,-0.0213775,0.05313,-0.029495,1742108235.790857
0.0525,0.09125,0.05625,0.002655,-0.0055225003,0.0027,0.035,-0.08875,0.06875,0.012069999,-0.0570075,0.025572501,1742108235.9100318
0.02125,0.07125,0.09625,0.010024999,-0.048722498,-0.0048074997,-0.02875,-0.06125,0.185,0.0051275003,0.0028074998,0.0107725,1742108236.028002
-0.005,0.0575,0.13,-0.0102075,0.0387875,-0.002045,0.03375,-0.06875,0.07125,-0.016755,0.05214,-0.0233,1742108236.132832
0.0575,0.0825,0.0575,-0.002305,0.017272498,0.00525,0.0575,-0.08625,0.055,0.0151675,-0.0169225,0.0066975,1742108236.24831
0.04625,0.0825,0.0675,0.000107500004,-0.030015,-0.0078724995,0.00625,-0.07375,0.13125,0.004685,-0.0576625,0.022935,1742108236.368074
-0.0025,0.06125,0.1475,0.006455,-0.0024100002,-0.0020899998,0.02625,-0.06,0.08375,-0.01332,0.0664225,-0.0193025,1742108236.487726
0.0475,0.0725,0.0725,-0.00348,0.032759998,0.0072625,0.085,-0.09625,0.02875,0.00911,0.00496,0.0004725,1742108236.588643
0.05875,0.08375,0.05875,0.00116,-0.0019525,-0.0006725,0.0425,-0.0875,0.07625,0.015685,-0.064347506,0.015975,1742108236.70849
0.0325,0.07375,0.10125,0.01007,-0.0429375,-0.0046075,0.0075,-0.05875,0.145,0.005325,0.034927502,0.002595,1742108236.82822
0.02625,0.06125,0.10625,-0.009675,0.036790002,0.003235,0.0575,-0.07625,0.04375,-0.025695,0.0473325,-0.024977501,1742108236.9310138
0.06625,0.09,0.0575,0.0016775,0.0108025,0.00592,0.07375,-0.0775,0.0225,0.0060275,-0.0128775,0.0020299999,1742108237.048573
0.0575,0.08125,0.0625,-0.0046375,-0.023515,-0.00879,0.03125,-0.1,0.135,0.0178675,-0.02417,0.0057975003,1742108237.168254
0.0125,0.075,0.1375,0.0041799997,-0.0042875,-0.001465,0.055,-0.09125,0.06375,-0.026899999,0.043305002,-0.017272498,1742108237.270868
0.05625,0.07125,0.07625,0.012435,0.0328975,0.00531,0.0775,-0.085,0.03125,0.0039975,-0.00093,0.00441,1742108237.3893929
0.06875,0.08375,0.0475,-0.0039825,-0.0034175,0.0016775,0.04875,-0.0925,0.06375,0.02678,-0.0585775,0.0146325,1742108237.508501
0.03875,0.08125,0.11,-0.0001975,-0.042175,-0.010085,0.03375,-0.07125,0.11,-0.0125725,0.0355075,-0.001175,1742108237.612888
0.04625,0.05125,0.09375,-0.0010825,0.034302503,0.0047750003,0.0775,-0.09125,0.03875,-0.0348675,0.035767503,-0.0110174995,1742108237.727711
0.07625,0.08625,0.045,0.0043025,0.017625,0.007095,0.08125,-0.06875,0.03625,0.0025175,-0.019105,0.007355,1742108237.847889
0.06625,0.08125,0.05,-0.0018150001,-0.026137501,-0.00554,0.01875,-0.10875,0.1475,0.031495,-0.03627,0.023697501,1742108237.967304
0.02125,0.0725,0.145,-0.001785,0.0137325,-0.0029000002,0.05375,-0.04875,0.07875,-0.0151825,0.0319225,-0.0092175,1742108238.0687711
0.06875,0.075,0.065,0.00142,0.024705,0.00563,0.08,-0.08375,0.03875,-0.019667499,0.02269,-0.0087275,1742108238.188562
0.08125,0.0825,0.0325,0.0019075,0.00319,0.0019675,0.07375,-0.0725,0.03875,0.028137501,-0.0396575,0.0102075,1742108238.3082812
0.065,0.07875,0.055,-0.0019075,-0.0361025,-0.0034025,0.03125,-0.07125,0.1675,0.010635001,0.014375,0.00737,1742108238.410723
0.035,0.0675,0.11875,0.0016025,0.0158075,-0.0019824998,0.0825,-0.0775,0.0325,-0.0434875,0.0399175,-0.017395,1742108238.528641
0.0775,0.08,0.04625,0.0025775002,0.0125275,0.004975,0.08625,-0.06625,0.0275,0.0090325,-0.017685,0.00557,1742108238.6481228
0.06875,0.08375,0.05125,-0.0022125002,-0.014725001,0.00177,0.02375,-0.0675,0.14875,0.021745,-0.071015,0.0006875,1742108238.752692
0.0225,0.08625,0.135,-0.0031275,-0.018584998,-0.0033575,0.03625,-0.0675,0.09,-0.0273275,0.046142504,-0.0166325,1742108238.8685179
0.0525,0.0675,0.08125,0.0010075001,0.02745,0.0024575,0.09125,-0.07875,0.03125,-0.003175,0.0121625,-0.0007475,1742108238.987723
0.0775,0.0825,0.0375,0.0022725,0.00502,0.0030375,0.0525,-0.0725,0.0875,0.0230725,-0.060607497,0.0187525,1742108239.1080089
0.045,0.08125,0.075,0.0062725,-0.0443125,-0.0049274997,0.03875,-0.065,0.11125,-0.016755,0.0348975,-0.0066975,1742108239.2087932
0.02875,0.065,0.1125,0.0011900001,0.0249025,0.00061,0.085,-0.08375,0.0375,-0.04039,0.030335,-0.01265,1742108239.328097
0.07,0.08375,0.05,0.00592,0.016327498,0.00557,0.075,-0.0825,0.04,0.04251,-0.050675,0.014205,1742108239.4367208
0.0625,0.08875,0.05375,-0.0054925,-0.0246725,-0.00534,0.01625,-0.065,0.17125,0.015915,0.0034625002,0.0110625,1742108239.5504751
0.0175,0.0725,0.14875,-0.003905,0.002685,-0.0043800003,0.0625,-0.0725,0.05375,-0.036849998,0.050415,-0.018524999,1742108239.668405
0.06125,0.075,0.0725,-0.00116,0.0239875,0.00331,0.08375,-0.07375,0.03625,0.00917,-0.007095,0.0039224997,1742108239.788059
0.07375,0.08375,0.045,0.000535,0.0012975,0.000825,0.04625,-0.08375,0.08125,0.02002,-0.0730275,0.0158075,1742108239.891571
0.05,0.07625,0.0725,0.0047150003,-0.0395975,-0.0057225,0.03125,-0.065,0.11875,-0.0061025,0.0434875,-0.0074475002,1742108240.007732
0.02375,0.06625,0.11875,-0.00293,0.02617,-0.0004275,0.07625,-0.08375,0.04375,-0.0387125,0.0365,-0.015975,1742108240.128093
0.07375,0.0775,0.055,0.002655,0.016647499,0.0042275,0.0825,-0.0675,0.035,0.035720002,-0.03621,0.011275,1742108240.2337248
0.06625,0.08625,0.05,-0.00409,-0.01773,-0.0015725,-0.005,-0.08,0.1275,-0.0099325,-0.0632475,0.0234675,1742108240.347883
0.005,0.075,0.13875,0.0140675,-0.0328975,-0.0046075,0.01625,-0.0525,0.12,0.0,0.0611125,-0.0072925,1742108240.467179
0.04125,0.0625,0.09125,-0.004165,0.03839,0.0048525,0.0825,-0.07125,0.03625,-0.028137501,0.017930001,-0.0181725,1742108240.588067
0.07375,0.08375,0.04375,0.0034475,0.0037225,0.004195,0.05125,-0.0875,0.08125,0.0264125,-0.052995,0.0245525,1742108240.689646
0.0375,0.075,0.08125,0.0036775,-0.0495,-0.00531,0.0275,-0.04375,0.1375,0.006165,0.03148,0.0016775,1742108240.808505
0.01875,0.05875,0.12375,-0.0060125,0.0260475,0.0012050001,0.07375,-0.0775,0.04875,-0.050169997,0.041564997,-0.023712499,1742108240.916686
0.0675,0.08,0.06,0.004745,0.026305001,0.0069875,0.0775,-0.04875,0.03875,0.0186775,-0.02234,0.0049274997,1742108241.030607
0.06625,0.0825,0.0525,-0.005295,-0.01445,-0.0027925,0.005,-0.10125,0.1025,-0.0013275,-0.101807505,0.026702499,1742108241.148288
0.02625,0.06125,0.1325,0.0031575,-0.0158075,-0.0134575,0.01125,-0.06875,0.10875,-0.0007025,0.065887496,-0.00737,1742108241.26788
0.0575,0.0525,0.08375,0.0013275,0.03215,0.007065,0.07375,-0.07875,0.0475,-0.0355075,0.03708,-0.0245525,1742108241.372711
0.07625,0.08375,0.045,0.0036324998,-0.00058,0.00528,0.05375,-0.09625,0.06,0.029082501,-0.049912497,0.0196225,1742108241.4878159
0.045,0.06625,0.08875,0.0060125,-0.058119997,-0.0061500003,0.0425,-0.04875,0.1325,0.0016475001,0.0012975,-0.002915,1742108241.608004
0.01125,0.04625,0.14,-0.009734999,0.040665,0.00377,0.055,-0.05375,0.05875,-0.03975,-0.0016775,-0.02983,1742108241.7273579
0.065,0.07875,0.065,0.0075825,0.0255275,0.0121625,-0.00375,-0.07,0.10875,0.003525,-0.0376425,-0.003845,1742108241.828782
0.0675,0.07125,0.07,0.0048674997,0.00583,0.005235,-0.04625,-0.05375,0.13625,-0.011779999,-0.0192425,-0.0034325,1742108241.951553
0.05625,0.07375,0.0875,0.0075375,-0.00293,0.0051275003,-0.03625,-0.035,0.11625,-0.0024875,-0.0068825004,-0.0043175,1742108242.068171
