L-AccX,L-AccY,L-AccZ,L-GyrX,L-GyrY,L-GyrZ,R-AccX,R-AccY,R-AccZ,R-GyrX,R-GyrY,R-GyrZ,timestamp
-0.7,0.51,-0.61,11.23,7.26,18.31,-0.85,0.06,1.39,94.12,24.72,-38.39,1742248545.324757
-0.64,0.5,-0.5,27.4,-7.51,-1.1,-0.3,-0.34,0.26,445.01,-242.31,47.67,1742248545.439907
-0.62,0.5,-0.44,-5.37,9.7,7.32,-0.2,-0.22,0.15,232.73,-343.26,-242.55,1742248545.553063
-0.73,0.51,-0.58,19.65,21.0,2.5,-0.95,-0.9,-0.34,210.33,-33.87,-199.52,1742248545.667099
-0.72,0.51,-0.46,13.18,-3.97,9.7,-1.17,-0.03,-0.8,163.51,-9.16,-69.34,1742248545.7810419
-0.72,0.38,-0.28,32.47,19.71,12.51,-1.05,0.22,-0.32,-14.1,31.8,-16.24,1742248545.901377
-0.72,0.43,-0.5,-12.57,-10.44,31.49,-0.95,0.12,-0.4,27.28,0.31,-40.65,1742248546.0088892
-0.83,0.52,-0.5,1.46,-0.37,18.07,-0.96,0.17,-0.36,19.41,6.23,4.09,1742248546.1227672
-0.82,0.48,-0.51,5.62,-7.2,-2.56,-0.94,0.16,-0.36,-4.94,2.81,11.23,1742248546.240875
-0.79,0.43,-0.5,-1.46,4.52,-7.87,-0.9,0.17,-0.34,-12.82,-1.46,0.73,1742248546.350969
-0.74,0.46,-0.42,-2.14,11.05,-4.39,-1.02,0.12,-0.36,-10.31,-1.28,1.28,1742248546.46495
-0.74,0.49,-0.41,2.5,-1.59,-14.34,-0.91,0.15,-0.34,-7.57,3.23,6.1,1742248546.583712
-0.75,0.49,-0.46,8.3,-1.46,-9.58,-0.94,0.14,-0.31,-1.71,4.7,2.5,1742248546.69292
-0.69,0.52,-0.46,12.27,-4.27,-14.04,-0.92,0.1,-0.29,0.61,5.49,12.39,1742248546.8067951
-0.73,0.52,-0.46,7.14,-3.91,-11.35,-0.94,0.13,-0.32,-0.06,1.46,13.24,1742248546.920873
-0.7,0.52,-0.45,5.13,-0.55,-6.9,-0.95,0.1,-0.31,5.92,1.28,1.83,1742248547.0348248
-0.74,0.57,-0.44,0.31,-3.66,5.13,-0.96,0.08,-0.31,7.02,-0.61,-5.86,1742248547.1490319
-0.67,0.57,-0.41,6.59,-2.38,-3.48,-0.94,0.08,-0.28,8.0,4.58,7.93,1742248547.2628
-0.77,0.54,-0.47,-0.85,-4.46,5.19,-0.98,0.12,-0.3,8.48,2.38,1.65,1742248547.37972
-0.68,0.57,-0.45,7.14,-5.98,-11.66,-0.93,0.04,-0.27,4.09,1.59,9.03,1742248547.490768
-0.69,0.58,-0.45,-6.53,-3.48,6.77,-0.98,0.09,-0.3,3.91,1.28,-10.8,1742248547.604784
-0.7,0.61,-0.45,-15.32,0.37,13.18,-0.93,0.03,-0.28,-5.55,-9.09,4.21,1742248547.720225
-0.68,0.56,-0.44,3.17,5.13,-10.93,-0.92,0.06,-0.29,-3.36,-4.58,14.59,1742248547.832897
-0.68,0.54,-0.45,5.07,4.76,-9.58,-0.92,0.05,-0.29,-0.49,-4.15,7.87,1742248547.946902
-0.7,0.56,-0.45,0.61,3.23,-2.32,-0.95,0.04,-0.3,5.07,-1.83,-2.75,1742248548.063929
-0.69,0.58,-0.45,-1.22,0.85,4.33,-0.96,0.03,-0.3,3.42,0.92,-7.32,1742248548.1793869
-0.69,0.58,-0.43,-3.97,0.0,3.66,-0.94,0.03,-0.32,-2.87,1.4,-3.78,1742248548.28894
-0.69,0.57,-0.43,-0.37,0.61,-1.46,-0.94,0.06,-0.31,-0.37,-0.06,-1.89,1742248548.4031029
-0.7,0.56,-0.43,0.73,0.98,0.37,-0.93,0.07,-0.31,2.69,-2.14,-2.69,1742248548.521143
-0.69,0.58,-0.44,3.54,-0.31,0.43,-0.96,0.05,-0.31,3.85,-0.18,0.12,1742248548.630864
-0.7,0.57,-0.44,2.69,-2.32,-4.09,-0.94,0.07,-0.31,0.06,0.55,3.3,1742248548.745049
-0.69,0.56,-0.43,0.24,-1.95,-0.37,-0.93,0.06,-0.31,1.65,1.1,-0.92,1742248548.860231
-0.69,0.59,-0.43,0.98,0.0,0.31,-0.95,0.05,-0.31,2.56,-0.31,0.0,1742248548.972762
-0.69,0.59,-0.44,0.12,-1.53,0.31,-0.95,0.04,-0.32,0.73,-0.24,-2.44,1742248549.086847
-0.68,0.57,-0.44,0.67,-1.16,-5.13,-0.94,0.07,-0.3,-1.46,-0.06,1.83,1742248549.2008471
-0.69,0.56,-0.45,-0.79,0.61,1.34,-0.93,0.06,-0.3,2.14,0.24,-2.32,1742248549.320904
-0.68,0.59,-0.43,0.12,0.79,4.09,-0.96,0.06,-0.32,3.36,-1.95,-4.7,1742248549.429834
-0.69,0.58,-0.44,1.95,-0.73,-3.17,-0.94,0.07,-0.31,-0.31,-2.2,3.42,1742248549.5438561
-0.69,0.56,-0.44,-0.98,0.18,-2.2,-0.94,0.08,-0.31,2.32,-0.85,1.04,1742248549.660295
-0.68,0.57,-0.44,-2.2,-0.18,0.73,-0.94,0.06,-0.31,-1.34,2.99,-3.17,1742248549.771832
-0.66,0.6,-0.44,-2.38,-2.5,-1.46,-0.94,0.06,-0.3,3.66,1.4,2.01,1742248549.885568
-0.68,0.57,-0.46,-3.85,-2.99,1.46,-0.94,0.08,-0.3,1.77,2.75,0.0,1742248550.000594
-0.67,0.56,-0.45,-0.49,-3.11,1.71,-0.93,0.09,-0.29,4.46,1.77,-0.79,1742248550.1136708
-0.67,0.56,-0.46,2.44,-3.05,3.11,-0.94,0.09,-0.3,8.12,0.79,-1.1,1742248550.2276852
-0.68,0.56,-0.47,1.65,-3.48,4.09,-0.94,0.08,-0.3,5.86,1.22,-0.92,1742248550.341669
-0.68,0.55,-0.47,0.31,-2.32,5.49,-0.94,0.1,-0.3,4.94,1.04,-5.13,1742248550.4596748
-0.69,0.56,-0.48,-0.37,-1.4,3.17,-0.94,0.11,-0.29,2.75,1.04,-0.92,1742248550.5697029
-0.69,0.55,-0.47,2.14,0.12,0.73,-0.95,0.12,-0.29,2.38,-0.37,-0.06,1742248550.683794
-0.69,0.53,-0.47,2.5,0.37,0.43,-0.94,0.12,-0.29,4.52,-0.24,0.06,1742248550.798923
-0.69,0.54,-0.47,1.95,-1.53,1.83,-0.95,0.12,-0.3,3.48,0.31,-1.4,1742248550.911666
-0.7,0.54,-0.47,-0.31,-0.31,0.49,-0.95,0.12,-0.29,-0.18,0.55,-0.85,1742248551.025878
-0.7,0.53,-0.47,-3.11,0.67,-1.83,-0.93,0.12,-0.29,-1.77,0.43,-0.37,1742248551.1397529
-0.7,0.54,-0.48,-1.1,1.71,0.18,-0.94,0.11,-0.29,-0.43,-0.85,0.18,1742248551.2537868
-0.7,0.53,-0.48,0.61,0.31,-0.92,-0.95,0.12,-0.29,2.01,-2.5,-0.12,1742248551.3677921
-0.69,0.55,-0.49,-0.79,-0.06,5.25,-0.97,0.09,-0.29,0.67,0.31,-3.85,1742248551.481653
-0.7,0.53,-0.47,0.55,2.81,-6.04,-0.97,0.13,-0.31,-2.44,5.0,1.95,1742248551.595527
-0.68,0.52,-0.48,6.71,5.31,-20.94,-0.92,0.1,-0.28,-6.23,-0.79,13.06,1742248551.709745
-0.7,0.57,-0.48,-0.98,0.06,-7.63,-0.94,0.08,-0.3,-1.95,-1.71,8.61,1742248551.823756
-0.67,0.56,-0.45,-1.46,1.53,-1.04,-0.94,0.09,-0.31,0.92,0.0,-0.37,1742248551.939563
-0.67,0.57,-0.46,-0.67,1.28,0.37,-0.94,0.07,-0.3,2.01,-1.4,-1.89,1742248552.051693
-0.67,0.59,-0.46,-4.7,2.01,4.52,-0.95,0.07,-0.3,0.92,0.79,-7.14,1742248552.165538
-0.69,0.58,-0.46,2.01,-0.49,2.44,-0.95,0.08,-0.3,1.04,-1.77,-1.46,1742248552.2800698
-0.67,0.55,-0.47,1.46,-1.1,1.59,-0.95,0.09,-0.29,2.81,0.67,-2.5,1742248552.3936782
-0.67,0.56,-0.46,-0.37,-0.67,0.92,-0.94,0.08,-0.29,0.12,2.81,-1.22,1742248552.507565
-0.68,0.58,-0.47,0.06,-1.53,0.49,-0.95,0.09,-0.29,1.53,0.61,0.92,1742248552.6214569
-0.68,0.55,-0.46,0.61,-1.04,-0.06,-0.94,0.09,-0.29,1.59,1.1,-1.71,1742248552.739082
-0.68,0.56,-0.46,0.37,-0.06,1.89,-0.94,0.09,-0.29,0.85,-0.24,-2.62,1742248552.848667
-0.69,0.55,-0.48,-1.1,0.61,1.22,-0.94,0.1,-0.29,0.85,0.31,-2.32,1742248552.962518
-0.68,0.55,-0.47,0.43,0.85,1.4,-0.95,0.1,-0.29,1.89,-0.18,-1.46,1742248553.076777
-0.68,0.55,-0.47,-1.22,0.73,0.92,-0.94,0.1,-0.3,-0.61,0.43,-2.5,1742248553.190772
-0.7,0.55,-0.48,-0.85,0.92,1.89,-0.95,0.11,-0.29,0.31,-0.12,-1.83,1742248553.30476
-0.69,0.54,-0.47,-0.55,-0.18,1.04,-0.94,0.12,-0.29,0.85,0.24,-1.34,1742248553.419508
-0.69,0.55,-0.47,0.06,0.12,2.01,-0.94,0.11,-0.29,1.22,-0.18,-0.85,1742248553.5327811
-0.7,0.54,-0.47,0.73,0.06,-0.31,-0.96,0.11,-0.29,1.4,0.24,0.92,1742248553.646445
-0.69,0.53,-0.47,0.0,-0.92,-0.92,-0.93,0.12,-0.29,1.53,1.1,0.37,1742248553.7604349
-0.71,0.53,-0.48,-1.4,-3.78,1.16,-0.93,0.13,-0.29,-0.73,3.23,-2.44,1742248553.879102
-0.7,0.54,-0.47,-0.85,-1.1,5.49,-0.94,0.12,-0.29,-1.22,2.99,-6.04,1742248553.988653
-0.69,0.54,-0.47,-1.83,1.71,0.55,-0.95,0.13,-0.28,-0.06,0.31,-0.61,1742248554.103752
-0.7,0.53,-0.49,0.79,0.85,-0.31,-0.94,0.13,-0.27,0.37,-1.71,0.06,1742248554.220779
-0.7,0.53,-0.48,1.4,0.24,-0.24,-0.94,0.13,-0.28,0.85,-1.1,0.67,1742248554.33058
-0.7,0.52,-0.48,0.49,-0.18,-0.98,-0.94,0.13,-0.28,0.85,-0.49,0.49,1742248554.444591
-0.71,0.53,-0.48,0.18,1.04,0.49,-0.95,0.13,-0.28,-0.12,-0.79,-0.43,1742248554.562272
-0.7,0.53,-0.47,0.12,1.4,1.59,-0.95,0.13,-0.28,0.98,-0.55,-1.4,1742248554.672686
-0.72,0.53,-0.49,1.53,-4.09,1.28,-0.93,0.13,-0.28,1.34,-0.61,-0.12,1742248554.786987
-0.69,0.53,-0.46,-0.31,0.37,4.15,-0.93,0.12,-0.28,2.14,0.37,-4.21,1742248554.900535
-0.7,0.53,-0.48,-0.55,-0.06,2.5,-0.94,0.14,-0.28,0.37,0.37,-1.22,1742248555.0146189
-0.72,0.52,-0.48,3.72,1.59,1.77,-0.94,0.15,-0.28,-0.43,-2.38,-2.26,1742248555.128781
-0.71,0.5,-0.47,1.28,0.37,2.01,-0.93,0.16,-0.28,0.43,-1.1,-2.56,1742248555.242698
-0.73,0.51,-0.48,-0.24,1.4,2.56,-0.97,0.15,-0.29,-5.8,2.5,-4.58,1742248555.359798
-0.72,0.51,-0.46,-4.88,-0.31,1.28,-0.93,0.15,-0.28,-5.0,2.69,-3.42,1742248555.470528
-0.74,0.5,-0.46,-3.91,3.05,1.89,-0.93,0.16,-0.28,-3.11,0.18,-4.09,1742248555.584579
-0.72,0.51,-0.45,3.23,5.86,1.04,-0.91,0.12,-0.29,-6.16,-3.72,5.07,1742248555.698524
-0.73,0.58,-0.42,26.73,6.9,-38.45,-0.95,0.12,-0.3,-17.82,-14.77,35.46,1742248555.812549
-0.66,0.64,-0.45,27.59,0.55,-35.28,-0.97,0.04,-0.34,8.36,-17.52,55.18,1742248555.926498
-0.68,0.65,-0.31,3.91,17.33,-29.36,-0.86,-0.04,-0.39,-15.44,-19.84,22.95,1742248556.0406919
-0.61,0.66,-0.37,-6.77,11.05,-0.79,-0.91,-0.02,-0.41,-3.78,-5.19,-10.25,1742248556.154787
-0.63,0.72,-0.32,2.26,6.41,-5.19,-0.91,-0.08,-0.39,2.87,-2.14,8.91,1742248556.268573
-0.63,0.7,-0.36,2.99,15.38,-20.87,-0.9,-0.03,-0.47,4.88,-16.36,8.79,1742248556.382565
-0.6,0.73,-0.29,22.52,20.45,-21.48,-0.89,-0.04,-0.4,-12.39,-4.7,4.03,1742248556.4996412
-0.62,0.74,-0.3,-2.56,2.69,2.32,-0.94,-0.01,-0.46,0.24,-5.92,-12.57,1742248556.610694
-0.59,0.76,-0.26,11.47,-1.83,-2.5,-0.89,-0.04,-0.48,-0.37,1.59,-4.88,1742248556.724674
-0.63,0.75,-0.32,-9.83,-6.41,15.44,-0.88,-0.01,-0.5,11.84,0.43,-6.1,1742248556.839308
-0.64,0.71,-0.25,15.2,1.89,-11.41,-0.86,-0.02,-0.41,-31.56,12.39,10.62,1742248556.9525492
-0.64,0.73,-0.29,10.99,-8.06,9.09,-0.93,-0.08,-0.49,-48.77,0.31,-9.22,1742248557.0667038
-0.58,0.71,-0.24,28.38,1.34,-32.53,-0.85,-0.13,-0.46,-46.57,-7.51,18.68,1742248557.180643
-0.61,0.69,-0.24,10.62,2.14,-10.93,-0.87,-0.1,-0.47,-18.31,-17.7,-8.42,1742248557.2980218
-0.61,0.79,-0.24,-6.9,-5.8,12.21,-0.89,-0.12,-0.46,-8.18,6.84,-7.51,1742248557.408675
-0.58,0.75,-0.27,-6.96,-17.7,5.0,-0.95,-0.15,-0.42,-14.28,28.81,0.0,1742248557.522613
-0.6,0.75,-0.31,-8.79,-10.74,-0.92,-0.88,-0.1,-0.39,7.32,15.56,0.61,1742248557.639037
-0.6,0.73,-0.3,-4.39,-4.21,7.14,-0.89,-0.12,-0.4,11.6,8.67,-1.22,1742248557.750526
-0.6,0.74,-0.31,2.01,-2.87,2.75,-0.92,-0.13,-0.37,1.89,1.1,2.26,1742248557.8643699
-0.58,0.73,-0.33,-2.08,-11.66,5.74,-0.92,-0.14,-0.35,1.83,10.44,7.2,1742248557.9788191
-0.58,0.72,-0.34,-7.51,-16.78,6.59,-0.9,-0.12,-0.36,-1.28,13.79,12.51,1742248558.0924742
-0.6,0.72,-0.36,2.99,-2.69,-8.48,-0.92,-0.15,-0.33,6.96,5.98,7.57,1742248558.206402
-0.59,0.71,-0.35,0.61,-1.95,8.0,-0.9,-0.15,-0.33,18.55,-1.53,-6.29,1742248558.32059
-0.59,0.74,-0.36,-0.37,-5.98,4.27,-0.94,-0.13,-0.33,18.62,7.39,-1.59,1742248558.4379678
-0.6,0.69,-0.38,-1.46,-6.23,4.09,-0.93,-0.09,-0.32,21.79,8.67,-5.0,1742248558.548461
-0.62,0.69,-0.41,-8.54,-6.23,11.17,-0.95,-0.07,-0.32,16.66,4.46,-9.34,1742248558.6624708
-0.63,0.66,-0.4,-16.48,-11.17,27.95,-0.93,-0.04,-0.3,22.83,-5.86,-26.18,1742248558.7796118
-0.64,0.65,-0.44,-0.61,-5.86,9.46,-0.95,-0.03,-0.32,5.62,3.36,-4.82,1742248558.8904488
-0.65,0.63,-0.44,-1.89,0.49,3.85,-0.94,-0.0,-0.32,5.0,-0.43,-0.24,1742248559.004564
-0.64,0.6,-0.44,0.73,0.98,5.07,-0.97,0.01,-0.32,4.52,1.59,-0.92,1742248559.1184509
-0.67,0.59,-0.45,-2.01,2.38,8.06,-0.94,0.03,-0.32,3.78,-0.98,-7.75,1742248559.232469
-0.64,0.59,-0.4,-28.99,4.15,24.05,-0.91,0.03,-0.31,-14.1,7.2,8.73,1742248559.346459
-0.69,0.59,-0.47,1.71,1.1,-2.69,-0.95,0.0,-0.32,-4.33,3.78,7.2,1742248559.460368
-0.69,0.54,-0.46,-11.41,0.79,4.46,-0.9,-0.02,-0.28,-17.58,12.57,21.0,1742248559.574464
-0.7,0.55,-0.47,-2.01,0.43,2.2,-0.94,-0.05,-0.29,-2.44,0.12,0.55,1742248559.6884658
-0.69,0.55,-0.46,-2.93,1.89,4.58,-0.95,-0.04,-0.3,2.69,-1.89,-4.88,1742248559.802589
-0.69,0.55,-0.46,3.3,-0.43,1.83,-0.94,-0.04,-0.3,3.48,-2.26,-1.28,1742248559.9190788
-0.71,0.55,-0.46,5.68,3.42,-5.92,-0.96,-0.02,-0.31,2.81,-1.59,4.88,1742248560.03053
-0.7,0.56,-0.44,6.77,7.57,-9.09,-0.94,-0.04,-0.3,9.83,0.43,9.7,1742248560.144415
-0.7,0.6,-0.41,7.93,11.35,-12.76,-0.95,-0.06,-0.31,3.97,0.24,10.07,1742248560.2582872
-0.68,0.64,-0.38,7.63,2.5,-9.28,-0.94,-0.07,-0.31,3.97,-3.6,11.41,1742248560.3724859
-0.66,0.64,-0.35,19.35,8.97,-28.08,-0.92,-0.05,-0.31,13.61,0.12,15.81,1742248560.4864352
-0.61,0.71,-0.33,18.8,22.34,-39.86,-0.94,-0.07,-0.29,22.28,1.77,10.56,1742248560.603473
-0.58,0.78,-0.27,21.73,8.0,-27.71,-0.94,-0.13,-0.31,14.71,-0.43,8.79,1742248560.717396
-0.57,0.79,-0.24,15.08,5.31,-23.8,-0.93,-0.12,-0.33,2.08,-1.22,7.93,1742248560.828382
-0.54,0.8,-0.22,9.22,1.71,-10.19,-0.93,-0.12,-0.32,-4.03,0.55,-0.12,1742248560.942472
-0.53,0.81,-0.21,0.31,-3.36,8.97,-0.93,-0.14,-0.34,-9.95,1.46,-10.31,1742248561.056463
-0.55,0.78,-0.22,-11.23,-1.77,14.77,-0.95,-0.14,-0.32,-15.08,4.7,-10.8,1742248561.170462
-0.62,0.73,-0.26,-22.58,-3.17,9.09,-0.93,-0.1,-0.33,-21.97,11.78,-11.9,1742248561.284482
-0.55,0.81,-0.31,-15.32,-0.31,-5.43,-0.93,-0.11,-0.24,-20.14,4.88,-7.45,1742248561.398881
-0.58,0.74,-0.31,-15.01,0.31,7.81,-0.94,-0.1,-0.24,-18.86,4.03,-8.36,1742248561.512419
-0.6,0.73,-0.34,-14.59,3.05,3.05,-0.97,-0.1,-0.23,-12.51,3.97,-7.14,1742248561.626459
-0.6,0.72,-0.36,-5.43,-1.53,-2.14,-0.97,-0.12,-0.23,-14.65,8.67,5.13,1742248561.740403
-0.58,0.72,-0.36,-5.86,-0.92,-3.23,-0.95,-0.12,-0.2,-10.74,4.76,0.85,1742248561.854458
-0.56,0.74,-0.37,1.83,-3.72,-6.84,-0.96,-0.16,-0.2,-6.59,1.77,15.99,1742248561.9684858
-0.58,0.71,-0.36,4.64,4.39,-8.67,-0.96,-0.11,-0.2,3.66,-1.65,3.23,1742248562.082411
-0.56,0.75,-0.35,2.01,-0.06,4.52,-0.95,-0.17,-0.19,5.13,-2.5,-2.5,1742248562.1999118
-0.57,0.74,-0.35,4.27,1.83,6.23,-0.97,-0.14,-0.21,12.7,-2.2,-2.44,1742248562.310406
-0.57,0.75,-0.33,21.12,2.81,-0.43,-0.92,-0.12,-0.22,28.26,-12.45,8.85,1742248562.424372
-0.56,0.77,-0.28,44.86,-2.14,-22.28,-0.92,-0.13,-0.26,20.69,-15.81,20.51,1742248562.541253
-0.56,0.72,-0.21,27.95,3.11,-8.97,-0.93,-0.13,-0.31,24.35,2.08,-15.32,1742248562.652301
-0.56,0.86,-0.18,4.52,1.71,-3.85,-0.93,-0.17,-0.34,10.01,0.98,-7.69,1742248562.770119
-0.52,0.91,-0.15,20.69,2.38,-31.01,-0.93,-0.14,-0.34,11.35,-15.87,23.07,1742248562.880278
-0.49,0.85,-0.13,19.96,-3.36,-20.81,-0.9,-0.14,-0.35,15.26,-11.41,7.93,1742248562.994434
-0.44,0.87,-0.12,12.21,-6.65,-10.19,-0.93,-0.15,-0.36,17.64,1.71,2.44,1742248563.108314
-0.44,0.85,-0.1,0.67,-8.3,-4.15,-0.9,-0.11,-0.36,-4.7,13.79,0.61,1742248563.222317
-0.43,0.87,-0.12,-2.2,-1.89,-2.44,-0.9,-0.13,-0.35,-3.05,7.2,-2.69,1742248563.3394508
-0.45,0.88,-0.15,-0.73,0.55,-1.34,-0.91,-0.13,-0.32,0.55,0.85,-1.46,1742248563.450301
-0.43,0.87,-0.13,0.24,-1.34,-0.37,-0.91,-0.13,-0.34,-0.24,2.44,-1.22,1742248563.564403
-0.46,0.87,-0.13,-6.35,-0.92,6.16,-0.92,-0.13,-0.34,-4.94,4.82,-7.81,1742248563.679039
-0.5,0.89,-0.15,-27.22,3.6,22.09,-0.96,-0.12,-0.31,-27.04,19.78,-17.88,1742248563.7924201
-0.53,0.86,-0.22,-12.33,5.07,12.63,-0.97,-0.1,-0.27,-15.81,3.97,-5.19,1742248563.906401
-0.53,0.82,-0.23,-12.02,5.37,8.97,-0.97,-0.09,-0.26,-7.81,5.37,-6.1,1742248564.021089
-0.55,0.78,-0.24,-14.04,4.76,6.35,-0.97,-0.06,-0.22,-17.7,11.23,-7.63,1742248564.134489
-0.57,0.72,-0.26,-30.4,3.36,8.97,-0.96,-0.04,-0.22,-30.21,19.71,-11.96,1742248564.24845
-0.6,0.7,-0.32,-27.34,3.66,14.65,-0.99,-0.08,-0.16,-19.1,14.16,2.44,1742248564.362227
-0.61,0.67,-0.38,-24.78,1.16,21.61,-0.95,-0.03,-0.17,-6.77,0.12,-22.64,1742248564.4794629
-0.62,0.69,-0.38,-8.06,-1.34,12.63,-0.96,-0.05,-0.17,-6.84,-1.59,-7.14,1742248564.5905159
-0.66,0.67,-0.37,-7.32,1.22,5.49,-0.96,-0.01,-0.17,-7.14,-3.6,-5.98,1742248564.7044961
-0.68,0.66,-0.38,-6.16,2.5,7.75,-1.0,-0.01,-0.16,-8.73,-5.13,-2.44,1742248564.819264
-0.65,0.67,-0.39,0.37,-8.61,-10.86,-0.99,-0.09,-0.18,-19.17,8.24,29.85,1742248564.932292
-0.68,0.61,-0.42,-25.88,-23.25,6.96,-0.92,-0.02,-0.09,-27.83,7.69,-2.93,1742248565.046411
-0.64,0.63,-0.45,-6.35,-14.89,27.22,-0.96,-0.05,-0.14,-1.34,-3.85,-27.83,1742248565.160463
-0.66,0.61,-0.46,1.59,1.89,13.85,-0.99,-0.03,-0.17,2.69,-3.17,3.42,1742248565.274305
-0.64,0.57,-0.46,7.2,5.13,4.03,-0.97,0.04,-0.15,9.52,-1.95,9.16,1742248565.388204
-0.67,0.58,-0.47,3.72,-1.46,16.6,-0.99,-0.03,-0.19,6.77,0.18,-2.5,1742248565.502311
-0.68,0.62,-0.44,6.71,-0.31,-19.35,-1.0,-0.04,-0.19,-6.84,5.49,31.98,1742248565.618594
-0.65,0.61,-0.48,3.17,-6.53,-45.47,-0.97,-0.02,-0.14,2.26,9.46,24.48,1742248565.730322
-0.6,0.64,-0.45,-2.08,-3.05,15.44,-0.99,-0.17,-0.14,3.11,-0.18,-10.44,1742248565.8445098
-0.59,0.65,-0.47,6.47,-1.34,-16.6,-0.93,-0.11,-0.14,-0.24,0.85,12.76,1742248565.959104
-0.59,0.66,-0.45,5.37,-1.1,-1.59,-0.96,-0.16,-0.13,0.73,-1.28,1.71,1742248566.072439
-0.61,0.66,-0.46,1.95,-2.38,-1.28,-0.97,-0.15,-0.14,0.06,-0.73,0.61,1742248566.186303
-0.6,0.66,-0.46,-0.92,0.37,3.97,-0.97,-0.15,-0.13,1.53,-0.85,-3.23,1742248566.3002949
-0.58,0.64,-0.46,-0.37,1.16,7.39,-0.93,-0.11,-0.14,9.58,-6.41,-14.95,1742248566.4142878
-0.65,0.61,-0.47,2.38,5.92,21.12,-1.0,-0.12,-0.17,15.2,-3.72,-25.82,1742248566.528278
-0.65,0.61,-0.47,-0.06,-1.1,15.01,-0.99,-0.08,-0.17,7.14,2.01,-6.47,1742248566.642178
-0.66,0.6,-0.43,0.37,-4.39,4.46,-0.96,-0.09,-0.16,4.46,3.05,-2.01,1742248566.7594728
-0.63,0.64,-0.46,1.59,-0.37,1.77,-1.0,-0.08,-0.14,4.88,3.6,11.96,1742248566.8700988
-0.66,0.54,-0.46,3.91,0.55,5.8,-0.98,-0.03,-0.14,3.66,5.49,-0.37,1742248566.9841971
-0.63,0.62,-0.44,-0.79,-3.6,8.36,-1.0,-0.11,-0.16,0.79,1.4,-3.66,1742248567.098328
-0.67,0.61,-0.45,1.71,-2.56,-18.37,-0.97,-0.07,-0.16,-3.23,1.04,20.94,1742248567.2121978
-0.64,0.57,-0.47,-4.46,-0.43,-7.57,-0.94,-0.03,-0.15,9.28,-10.44,7.14,1742248567.326197
-0.59,0.6,-0.5,-1.34,-5.0,18.62,-0.98,-0.12,-0.12,20.2,-5.0,-5.92,1742248567.440203
-0.65,0.69,-0.46,14.28,-2.69,-3.36,-0.98,-0.17,-0.19,10.5,-8.61,26.25,1742248567.5542028
-0.61,0.67,-0.44,-6.53,4.21,-28.56,-1.01,-0.15,-0.17,27.53,-20.32,21.12,1742248567.668896
-0.6,0.68,-0.39,-13.61,2.2,-33.39,-1.1,-0.4,-0.14,-17.94,21.36,65.55,1742248567.7822201
-0.6,0.66,-0.47,-10.86,20.57,-8.0,-1.05,-0.76,-0.16,-75.13,38.27,172.12,1742248567.899637
-0.57,0.68,-0.51,0.67,6.16,0.0,-0.39,-0.85,0.06,-74.71,55.24,248.54,1742248568.009996
-0.58,0.68,-0.47,19.96,-6.65,-8.48,0.12,-0.58,0.02,-205.99,98.63,191.16,1742248568.1241899
-0.59,0.66,-0.43,20.39,4.27,-2.44,-0.17,-0.68,0.47,-140.69,-24.41,20.45,1742248568.2399108
-0.58,0.73,-0.41,-9.4,3.3,15.62,-0.41,-0.67,0.85,-79.71,-11.41,3.05,1742248568.352171
-0.57,0.68,-0.4,-7.08,3.11,5.25,-0.17,-0.47,0.82,-19.35,-10.31,9.03,1742248568.466086
-0.6,0.71,-0.42,-0.12,1.1,6.53,-0.1,-0.28,0.83,-83.68,-60.85,-26.67,1742248568.583154
