L-AccX,L-AccY,L-AccZ,L-GyrX,L-GyrY,L-GyrZ,R-AccX,R-AccY,R-AccZ,R-GyrX,R-GyrY,R-GyrZ,timestamp
0.71,-0.12,-0.77,6.9,-4.58,-0.06,-0.61,-0.45,1.13,-95.03,-23.56,-31.19,1742248819.1884632
0.7,-0.09,-0.69,4.94,-7.14,-2.38,-0.45,-0.39,1.08,26.37,109.56,136.29,1742248819.3021991
0.64,-0.17,-0.73,5.13,9.4,1.22,-0.05,0.05,0.86,62.07,69.7,179.93,1742248819.421344
0.72,-0.07,-0.68,-6.04,0.61,13.67,0.17,0.01,0.8,90.21,4.27,122.99,1742248819.528957
0.69,-0.11,-0.73,-13.12,18.25,6.9,0.22,-0.15,0.94,44.68,-11.47,74.83,1742248819.642175
0.74,-0.08,-0.77,-19.41,-2.99,9.4,0.29,-0.22,0.97,-8.12,-14.71,36.93,1742248819.761624
0.81,-0.08,-0.74,-26.37,-40.16,-0.98,0.31,-0.22,0.94,-32.04,30.4,34.3,1742248819.8702772
0.83,-0.12,-0.6,-23.99,-52.73,-14.22,0.42,-0.23,0.86,10.56,51.21,19.53,1742248819.984291
0.71,-0.19,-0.55,-4.88,-51.27,-10.8,0.5,-0.19,0.76,-2.14,26.73,15.2,1742248820.101527
0.77,-0.21,-0.41,-8.48,-9.83,-14.47,0.55,-0.08,0.8,-16.42,2.44,16.54,1742248820.212141
0.82,-0.25,-0.45,-2.56,3.91,-14.77,0.54,-0.08,0.86,-8.91,-1.34,10.38,1742248820.326284
0.83,-0.3,-0.47,4.27,2.08,-16.6,0.54,-0.08,0.83,-4.7,3.17,3.3,1742248820.4411461
0.82,-0.33,-0.47,-9.83,8.3,-5.74,0.54,-0.07,0.83,1.83,-3.54,-7.14,1742248820.554313
0.81,-0.32,-0.48,-5.86,8.85,4.64,0.52,-0.09,0.84,4.46,-8.42,-9.28,1742248820.668302
0.83,-0.31,-0.51,1.4,-0.43,9.52,0.53,-0.09,0.85,5.0,-8.61,-11.05,1742248820.78228
0.82,-0.29,-0.49,1.65,1.65,10.74,0.49,-0.14,0.83,-3.3,-3.17,-9.77,1742248820.90097
0.8,-0.25,-0.5,-4.39,4.27,6.96,0.47,-0.16,0.85,-2.38,-5.19,-2.5,1742248821.0103319
0.81,-0.22,-0.52,0.37,2.5,-1.83,0.49,-0.12,0.85,0.43,-1.16,6.16,1742248821.124067
0.8,-0.27,-0.52,3.23,0.43,-7.57,0.49,-0.08,0.87,-3.48,0.0,2.38,1742248821.240553
0.79,-0.29,-0.53,-1.34,1.53,-1.16,0.5,-0.1,0.87,-2.38,2.56,-1.65,1742248821.351315
0.81,-0.28,-0.52,-1.34,0.73,0.67,0.49,-0.08,0.86,-1.16,-0.43,-1.77,1742248821.465259
0.8,-0.27,-0.52,3.3,-2.26,2.2,0.48,-0.1,0.86,4.58,-11.78,2.14,1742248821.5840771
0.8,-0.27,-0.52,10.56,-1.22,-0.37,0.44,-0.11,0.91,7.57,-6.1,0.98,1742248821.693078
0.82,-0.26,-0.52,9.34,-6.04,4.03,0.47,-0.14,0.89,11.29,-0.06,-0.18,1742248821.806175
0.82,-0.23,-0.51,7.39,-2.5,3.66,0.46,-0.15,0.88,6.84,-5.49,-5.31,1742248821.920684
0.82,-0.23,-0.52,4.39,1.46,6.9,0.43,-0.15,0.9,6.9,-10.44,4.52,1742248822.0340638
0.82,-0.19,-0.52,14.71,1.1,-5.43,0.4,-0.18,0.89,1.65,-6.71,4.76,1742248822.148143
0.81,-0.17,-0.53,8.73,-0.43,-7.26,0.42,-0.16,0.9,0.43,-3.3,6.53,1742248822.262115
0.83,-0.21,-0.53,6.77,-1.65,-7.75,0.41,-0.14,0.91,-0.49,0.92,5.19,1742248822.379982
0.81,-0.21,-0.53,5.37,-2.69,-6.77,0.41,-0.13,0.91,0.61,1.16,7.14,1742248822.489166
0.81,-0.25,-0.54,2.44,-3.85,-4.82,0.42,-0.13,0.88,-0.18,0.49,4.88,1742248822.604864
0.81,-0.25,-0.53,8.36,-1.04,-4.27,0.42,-0.13,0.9,0.61,-0.43,-1.4,1742248822.720835
0.81,-0.22,-0.53,1.16,-0.12,1.77,0.41,-0.14,0.91,1.53,-0.43,-1.46,1742248822.830178
0.82,-0.22,-0.55,-2.14,-1.04,1.46,0.42,-0.16,0.9,-0.85,-2.44,3.66,1742248822.944191
0.82,-0.21,-0.52,2.87,0.67,-5.68,0.41,-0.13,0.9,-1.71,1.53,3.48,1742248823.06266
0.81,-0.23,-0.54,1.22,0.0,-4.88,0.42,-0.12,0.9,-0.49,-0.92,2.01,1742248823.1722
0.81,-0.25,-0.53,2.32,-0.67,-1.28,0.42,-0.11,0.9,-0.61,1.95,-4.03,1742248823.286179
0.81,-0.24,-0.52,-1.53,0.24,5.37,0.43,-0.13,0.89,0.12,0.61,-8.36,1742248823.400405
0.81,-0.22,-0.52,-1.95,2.38,7.63,0.41,-0.16,0.9,-1.04,-0.12,-8.79,1742248823.51423
0.83,-0.2,-0.54,-5.98,3.91,5.98,0.41,-0.16,0.91,-1.16,0.98,-6.41,1742248823.628177
0.82,-0.2,-0.54,-2.75,-1.04,4.76,0.43,-0.13,0.89,3.66,0.85,-7.87,1742248823.742065
0.81,-0.2,-0.52,-1.53,2.56,9.16,0.4,-0.19,0.89,4.64,-4.21,-10.93,1742248823.860608
0.82,-0.15,-0.54,-0.79,4.64,9.16,0.38,-0.2,0.91,-2.56,-0.43,-2.26,1742248823.970304
0.83,-0.15,-0.56,-1.22,0.85,-1.53,0.41,-0.18,0.91,-1.89,2.01,1.1,1742248824.0840771
0.82,-0.18,-0.54,-0.92,-1.34,-1.65,0.41,-0.17,0.88,0.43,1.22,0.61,1742248824.199826
0.81,-0.18,-0.53,0.18,-0.61,-0.79,0.42,-0.17,0.89,-1.1,-1.71,-0.98,1742248824.3113039
0.82,-0.18,-0.55,-0.24,1.71,-0.37,0.41,-0.17,0.89,-1.65,-2.62,-1.65,1742248824.425195
0.81,-0.18,-0.53,-1.28,3.42,0.73,0.4,-0.17,0.9,-0.43,-2.81,-1.4,1742248824.541932
0.81,-0.19,-0.55,1.1,2.01,0.67,0.39,-0.17,0.91,0.37,-1.89,0.31,1742248824.6529868
0.82,-0.18,-0.55,0.37,0.55,0.55,0.4,-0.17,0.9,-0.43,-0.73,0.18,1742248824.767092
0.81,-0.18,-0.55,-0.24,1.71,-0.24,0.39,-0.17,0.9,-0.06,-1.83,0.37,1742248824.881089
0.81,-0.18,-0.55,1.1,2.32,0.06,0.39,-0.17,0.91,0.18,-2.08,0.79,1742248825.000142
0.81,-0.18,-0.56,0.73,2.14,-0.85,0.38,-0.17,0.92,-2.5,-1.4,-0.37,1742248825.108199
0.81,-0.17,-0.57,-0.55,2.2,-1.22,0.38,-0.16,0.92,-2.01,-1.46,0.67,1742248825.222065
0.81,-0.18,-0.57,-1.04,0.73,-1.34,0.39,-0.16,0.91,-1.4,-0.73,0.85,1742248825.34032
0.8,-0.18,-0.56,-0.24,0.55,-1.4,0.38,-0.15,0.91,-0.67,-2.01,-0.06,1742248825.4501572
0.8,-0.18,-0.57,0.73,2.44,0.18,0.38,-0.16,0.91,-0.55,-1.95,-1.04,1742248825.5641909
0.79,-0.18,-0.57,0.98,2.56,0.37,0.37,-0.16,0.92,-1.22,-4.58,-0.85,1742248825.679423
0.8,-0.18,-0.58,0.06,3.54,0.18,0.37,-0.16,0.93,-0.67,-1.83,-0.61,1742248825.7921941
0.8,-0.18,-0.59,0.12,1.28,-0.12,0.36,-0.16,0.92,0.49,-0.31,0.73,1742248825.905937
0.79,-0.18,-0.58,0.67,0.67,-1.16,0.36,-0.15,0.92,0.31,-0.18,0.67,1742248826.020331
0.79,-0.18,-0.59,0.43,0.12,-0.85,0.37,-0.15,0.92,0.0,-1.1,0.24,1742248826.133947
0.79,-0.19,-0.59,0.49,1.46,0.12,0.36,-0.16,0.93,-0.61,-1.04,-0.24,1742248826.2481768
0.79,-0.18,-0.59,0.24,-0.12,-0.43,0.36,-0.15,0.92,-0.67,0.61,0.06,1742248826.3619761
0.78,-0.18,-0.58,-0.31,0.31,-0.43,0.36,-0.15,0.93,-0.24,0.73,-0.24,1742248826.47957
0.79,-0.18,-0.59,-0.49,-0.49,-0.67,0.37,-0.15,0.92,0.06,1.16,0.18,1742248826.58984
0.79,-0.18,-0.58,-0.06,-0.55,-0.18,0.37,-0.15,0.92,0.06,0.31,0.73,1742248826.704714
0.78,-0.18,-0.59,0.37,-0.12,-0.67,0.37,-0.15,0.92,0.06,-0.12,0.55,1742248826.8197582
0.79,-0.19,-0.58,0.18,0.0,0.18,0.36,-0.15,0.92,-0.31,-0.61,-0.61,1742248826.9301848
0.79,-0.18,-0.59,-0.12,0.24,0.06,0.37,-0.16,0.92,-0.24,0.73,0.98,1742248827.0439801
0.79,-0.19,-0.58,-0.24,-0.31,-1.4,0.36,-0.15,0.92,-0.61,0.18,0.43,1742248827.15936
0.79,-0.18,-0.59,-0.06,0.12,-1.28,0.37,-0.15,0.92,-0.43,0.85,0.31,1742248827.271966
0.79,-0.19,-0.58,0.18,-0.43,-0.85,0.36,-0.15,0.92,0.37,0.0,0.24,1742248827.385708
0.78,-0.19,-0.59,0.73,0.43,-0.18,0.36,-0.15,0.92,1.22,1.04,-0.18,1742248827.499326
0.78,-0.19,-0.58,-0.67,0.06,0.12,0.37,-0.16,0.92,-0.61,-1.95,0.49,1742248827.611965
0.79,-0.19,-0.59,-0.55,2.2,-1.16,0.36,-0.14,0.93,-1.1,-0.98,0.31,1742248827.726091
0.78,-0.19,-0.59,-0.49,0.67,-1.1,0.37,-0.14,0.92,0.31,-0.67,0.24,1742248827.8398132
0.78,-0.19,-0.59,0.92,1.59,0.0,0.36,-0.15,0.93,0.0,-0.73,0.24,1742248827.952818
0.78,-0.19,-0.6,0.61,0.12,-0.92,0.36,-0.14,0.92,-0.43,0.18,0.37,1742248828.065857
0.78,-0.2,-0.59,0.43,-0.18,-0.06,0.36,-0.14,0.92,0.61,0.12,-0.67,1742248828.179829
0.78,-0.19,-0.6,0.0,-0.73,0.73,0.36,-0.15,0.92,0.79,2.01,-1.1,1742248828.293867
0.78,-0.18,-0.59,-0.24,-1.34,0.98,0.37,-0.15,0.92,-0.31,0.37,0.24,1742248828.406826
0.79,-0.18,-0.59,0.0,-0.24,-0.43,0.36,-0.15,0.93,0.18,0.98,0.85,1742248828.520715
0.79,-0.19,-0.59,-0.92,-1.77,-0.98,0.36,-0.14,0.94,0.55,5.13,-0.37,1742248828.633861
0.82,-0.21,-0.61,-2.81,-10.56,0.18,0.39,-0.14,0.93,3.11,25.39,1.46,1742248828.747821
0.81,-0.18,-0.54,-4.27,-23.74,1.1,0.45,-0.17,0.87,7.2,23.07,6.23,1742248828.8609111
0.82,-0.19,-0.51,-4.94,-15.62,-1.59,0.46,-0.14,0.88,0.0,18.19,2.62,1742248828.978545
0.85,-0.23,-0.49,-4.82,-17.33,-0.79,0.49,-0.16,0.86,12.51,34.06,2.5,1742248829.088678
0.85,-0.23,-0.45,-14.1,-18.62,3.48,0.56,-0.16,0.8,8.79,23.25,4.94,1742248829.201708
0.87,-0.21,-0.4,-4.09,-12.08,-1.34,0.59,-0.18,0.75,1.34,11.35,0.43,1742248829.318733
0.88,-0.22,-0.39,-3.54,-5.13,0.55,0.6,-0.18,0.76,2.5,8.61,-3.66,1742248829.42787
0.9,-0.2,-0.39,-1.65,-5.43,2.69,0.62,-0.21,0.76,3.36,10.01,0.0,1742248829.5416498
0.91,-0.19,-0.38,2.62,-8.85,-2.08,0.63,-0.19,0.76,4.94,9.09,5.25,1742248829.658386
0.91,-0.21,-0.34,5.8,-20.75,-4.09,0.66,-0.19,0.72,9.09,9.89,3.91,1742248829.7676558
0.9,-0.21,-0.32,2.01,-6.41,0.12,0.65,-0.2,0.7,3.36,2.08,-1.59,1742248829.880739
0.91,-0.18,-0.32,0.98,-0.79,2.99,0.64,-0.27,0.68,-1.71,-6.1,1.1,1742248829.999264
0.91,-0.17,-0.32,-3.66,7.08,-8.73,0.66,-0.21,0.75,-9.64,-6.65,13.85,1742248830.1088781
0.94,-0.28,-0.35,-3.42,8.85,-17.15,0.68,-0.12,0.77,-2.2,-5.25,8.24,1742248830.222872
0.85,-0.26,-0.31,-2.14,11.23,-6.41,0.58,-0.17,0.68,1.53,-13.12,1.77,1742248830.337677
0.84,-0.23,-0.38,3.78,14.28,-1.83,0.61,-0.13,0.8,-6.04,-5.8,3.72,1742248830.4508579
0.89,-0.31,-0.44,-1.59,5.92,-3.11,0.64,-0.1,0.82,0.79,2.81,1.71,1742248830.564702
0.88,-0.33,-0.42,-3.85,0.0,0.37,0.63,-0.12,0.8,2.01,6.53,-3.3,1742248830.6788402
0.89,-0.3,-0.41,-7.93,-2.26,1.34,0.62,-0.15,0.76,-2.38,6.59,-0.79,1742248830.79185
0.85,-0.27,-0.38,-4.15,-0.06,-2.38,0.62,-0.14,0.73,-0.67,2.26,-1.95,1742248830.905857
0.85,-0.27,-0.38,-3.54,6.47,0.43,0.64,-0.15,0.75,-5.0,-2.93,-3.23,1742248831.020386
0.88,-0.3,-0.4,-6.96,8.67,-2.69,0.66,-0.14,0.79,-7.57,-4.82,2.38,1742248831.13385
0.89,-0.33,-0.42,-6.1,4.46,-6.59,0.64,-0.1,0.77,-6.53,0.37,3.23,1742248831.2478101
0.85,-0.32,-0.39,-5.0,0.73,-4.76,0.64,-0.11,0.76,-2.75,3.91,1.77,1742248831.3618062
0.85,-0.33,-0.39,-4.82,-3.6,-3.97,0.65,-0.07,0.75,-2.32,2.99,2.08,1742248831.478168
0.84,-0.35,-0.39,-2.01,-1.4,-1.59,0.64,-0.09,0.76,-1.53,1.04,-0.73,1742248831.5898838
0.84,-0.33,-0.39,-1.16,-0.31,0.73,0.64,-0.1,0.76,-0.31,0.37,-0.61,1742248831.703899
0.85,-0.33,-0.39,-2.2,0.67,-0.98,0.65,-0.09,0.76,-1.22,-0.18,1.28,1742248831.818617
0.86,-0.34,-0.4,-1.46,0.55,-2.26,0.65,-0.09,0.76,0.31,0.55,1.28,1742248831.931585
0.85,-0.34,-0.39,-1.22,-0.85,-1.65,0.65,-0.09,0.76,-0.79,1.16,0.73,1742248832.0447202
0.85,-0.34,-0.39,-1.77,-0.06,-1.83,0.65,-0.08,0.76,-1.28,0.24,1.16,1742248832.158777
0.85,-0.36,-0.39,-1.83,0.67,-2.32,0.66,-0.07,0.75,-2.08,1.16,0.67,1742248832.272692
0.85,-0.36,-0.39,-1.83,1.59,-0.61,0.64,-0.07,0.76,-1.59,0.31,0.0,1742248832.386693
0.85,-0.36,-0.4,-1.65,-0.85,-0.55,0.65,-0.07,0.75,-0.37,0.92,0.85,1742248832.500658
0.84,-0.36,-0.38,-0.43,0.12,-2.2,0.66,-0.07,0.75,0.98,-1.04,1.22,1742248832.6170828
0.84,-0.37,-0.39,-0.24,0.49,-0.98,0.65,-0.07,0.75,0.0,0.31,-0.06,1742248832.728746
0.85,-0.36,-0.39,-0.98,0.24,-0.73,0.66,-0.07,0.75,-0.49,-0.06,0.0,1742248832.842814
0.84,-0.36,-0.39,-0.79,2.08,-0.49,0.65,-0.06,0.75,-1.22,-0.31,-0.98,1742248832.957807
0.84,-0.36,-0.38,-0.37,1.28,0.61,0.65,-0.07,0.75,-0.24,-0.55,-1.65,1742248833.070868
0.84,-0.36,-0.4,1.04,1.83,1.34,0.65,-0.07,0.76,0.31,-0.98,-1.4,1742248833.1847749
0.84,-0.36,-0.4,-0.24,1.22,1.53,0.65,-0.08,0.77,1.46,-0.92,-1.22,1742248833.298787
0.84,-0.35,-0.4,-0.79,0.79,0.79,0.64,-0.08,0.76,-0.12,-0.49,-0.24,1742248833.41285
0.85,-0.36,-0.4,-1.1,-0.18,-0.79,0.66,-0.07,0.76,1.77,2.75,0.0,1742248833.52661
0.84,-0.34,-0.38,-0.18,-0.55,-1.04,0.64,-0.08,0.76,-2.44,-2.32,1.59,1742248833.639881
0.84,-0.37,-0.4,-0.12,1.1,-1.77,0.65,-0.06,0.77,-0.37,0.73,0.12,1742248833.753717
0.84,-0.36,-0.39,0.0,-0.79,0.24,0.65,-0.08,0.76,-0.12,-0.06,0.31,1742248833.867799
0.83,-0.37,-0.4,-0.73,-0.18,-0.37,0.65,-0.07,0.76,-1.04,0.18,-0.43,1742248833.9818282
0.84,-0.35,-0.4,-0.79,0.85,-0.43,0.64,-0.07,0.76,-0.67,-0.43,0.12,1742248834.095805
0.85,-0.36,-0.4,-0.12,-1.04,-0.73,0.66,-0.07,0.77,-0.73,0.55,1.1,1742248834.209578
0.85,-0.36,-0.39,0.24,0.06,-3.72,0.64,-0.06,0.75,-2.32,-1.34,4.7,1742248834.322728
0.84,-0.38,-0.4,-2.32,1.89,-6.71,0.64,-0.05,0.77,-3.23,0.67,3.72,1742248834.4374669
0.82,-0.37,-0.4,-2.2,-1.16,-5.74,0.64,-0.04,0.75,-2.01,0.73,4.94,1742248834.550595
0.82,-0.4,-0.38,-2.44,1.89,-5.13,0.64,-0.02,0.76,-1.34,-0.85,2.69,1742248834.6637099
0.83,-0.41,-0.39,-2.14,1.77,-1.28,0.65,-0.03,0.76,-1.34,-0.12,-0.55,1742248834.778538
0.82,-0.39,-0.39,-0.98,2.69,0.43,0.64,-0.04,0.75,-0.92,-2.5,-0.49,1742248834.8918242
0.81,-0.4,-0.41,-0.85,3.48,-0.98,0.64,-0.02,0.77,-3.66,-1.95,-0.49,1742248835.005763
0.82,-0.41,-0.4,-1.4,3.48,-0.31,0.64,-0.02,0.79,-4.33,0.73,-1.1,1742248835.1196811
0.81,-0.41,-0.42,-4.03,0.85,-0.31,0.63,-0.01,0.76,-0.98,3.6,-1.34,1742248835.233703
0.82,-0.4,-0.41,-2.38,-2.87,1.89,0.66,-0.03,0.75,-1.89,1.71,-0.79,1742248835.347706
0.81,-0.42,-0.39,-1.04,0.06,-2.32,0.66,0.02,0.78,-4.21,0.92,0.43,1742248835.461448
0.82,-0.43,-0.4,-2.14,-1.65,3.42,0.65,-0.02,0.75,-1.28,4.15,-3.11,1742248835.574681
0.81,-0.38,-0.37,-4.03,0.49,-1.1,0.66,-0.01,0.74,-1.95,-3.23,3.3,1742248835.688705
0.81,-0.41,-0.4,0.31,4.27,-4.76,0.64,0.01,0.77,-3.36,-5.25,2.87,1742248835.802513
0.81,-0.44,-0.42,-0.98,0.85,-2.14,0.64,0.01,0.78,-2.5,0.79,-1.28,1742248835.917836
0.82,-0.42,-0.4,-3.11,-1.16,1.53,0.65,-0.0,0.75,-1.59,1.4,-2.08,1742248836.029682
0.81,-0.4,-0.38,-1.89,2.32,-1.95,0.64,0.0,0.78,-1.4,-0.79,1.71,1742248836.1436229
0.81,-0.44,-0.4,-2.14,-0.92,-3.17,0.66,0.03,0.75,-1.65,0.67,1.4,1742248836.2586
0.8,-0.43,-0.39,-0.85,0.67,-1.22,0.64,0.02,0.75,-2.56,-1.53,0.18,1742248836.370576
0.8,-0.44,-0.38,0.43,3.17,0.18,0.65,0.02,0.77,-1.89,-3.97,-1.04,1742248836.484651
0.81,-0.44,-0.4,0.98,0.73,-0.43,0.64,0.03,0.77,0.37,-0.24,0.31,1742248836.599227
0.8,-0.44,-0.39,0.06,0.24,0.06,0.64,0.02,0.78,0.67,0.79,-0.37,1742248836.7114508
0.8,-0.43,-0.4,-0.49,-1.1,0.31,0.64,0.02,0.76,0.61,0.85,-0.18,1742248836.824411
0.8,-0.43,-0.4,0.85,0.31,-1.34,0.64,0.03,0.77,0.49,-0.43,-0.24,1742248836.9374669
0.8,-0.44,-0.39,-0.12,-0.12,0.12,0.64,0.02,0.76,-0.12,-1.89,-1.28,1742248837.0507772
0.81,-0.43,-0.41,1.04,0.24,1.16,0.64,0.02,0.78,-0.31,0.85,-0.73,1742248837.164729
0.81,-0.44,-0.39,-0.61,-1.83,1.16,0.64,0.03,0.76,1.34,0.98,-2.2,1742248837.2783601
0.81,-0.42,-0.39,4.09,0.24,3.17,0.65,0.01,0.78,3.11,-2.2,-2.01,1742248837.391486
0.82,-0.42,-0.41,0.73,-1.95,1.89,0.65,0.01,0.77,0.92,2.99,-1.1,1742248837.504365
0.82,-0.4,-0.37,0.85,-1.83,1.34,0.65,0.0,0.75,0.55,0.31,-0.37,1742248837.617404
0.82,-0.42,-0.39,2.38,0.67,1.59,0.64,0.0,0.77,2.2,-0.43,-2.44,1742248837.730475
0.82,-0.41,-0.41,1.22,1.65,4.33,0.64,-0.02,0.77,1.89,-0.61,-2.81,1742248837.844544
0.82,-0.4,-0.41,0.12,-1.1,2.62,0.64,-0.02,0.77,0.61,1.28,-0.98,1742248837.9584792
0.82,-0.4,-0.4,-0.06,0.18,0.49,0.64,-0.01,0.76,0.12,-0.73,-1.22,1742248838.072581
0.82,-0.43,-0.4,-3.23,0.85,4.15,0.65,0.01,0.76,-2.99,-1.16,-8.36,1742248838.186545
0.82,-0.38,-0.4,-1.04,4.39,5.74,0.63,-0.03,0.77,-0.49,-2.81,-5.74,1742248838.300722
0.83,-0.39,-0.42,-1.77,3.11,4.03,0.64,-0.03,0.77,-1.04,-1.4,-5.31,1742248838.4173582
0.83,-0.36,-0.4,-1.34,2.93,3.6,0.63,-0.05,0.77,-2.44,-3.78,-2.99,1742248838.528734
0.83,-0.36,-0.43,0.43,2.26,0.31,0.62,-0.03,0.8,-2.01,-0.12,-1.22,1742248838.642645
0.82,-0.39,-0.42,1.46,-1.16,2.69,0.63,-0.03,0.78,-0.49,0.49,-3.72,1742248838.75858
0.83,-0.38,-0.4,2.01,-0.73,3.17,0.65,-0.02,0.77,3.36,-5.8,-4.76,1742248838.870582
0.83,-0.34,-0.43,6.9,3.48,3.54,0.6,-0.06,0.78,0.31,-5.8,-3.48,1742248838.98462
0.83,-0.32,-0.44,2.87,-1.83,0.24,0.61,-0.06,0.79,-1.28,-1.89,1.53,1742248839.1000261
0.83,-0.33,-0.42,2.56,2.14,-3.17,0.6,-0.05,0.8,-0.92,-3.85,2.38,1742248839.212683
0.83,-0.35,-0.44,2.2,0.06,-3.23,0.6,-0.04,0.8,-0.24,-2.08,2.81,1742248839.326594
0.82,-0.35,-0.42,2.14,2.01,-0.98,0.6,-0.03,0.8,-3.17,-3.91,-0.49,1742248839.4407098
0.82,-0.35,-0.43,0.12,9.22,0.24,0.58,-0.03,0.81,-7.14,-14.65,-0.06,1742248839.554694
0.81,-0.35,-0.47,1.1,12.21,-1.4,0.55,-0.01,0.83,-4.09,-9.95,-1.95,1742248839.668674
0.77,-0.35,-0.46,2.93,13.49,-2.75,0.53,0.0,0.82,-4.33,-15.81,-0.67,1742248839.782486
0.78,-0.36,-0.48,4.39,17.64,1.34,0.51,0.0,0.85,0.92,-15.93,-3.97,1742248839.898612
0.79,-0.36,-0.55,6.65,11.84,4.46,0.48,-0.02,0.9,2.99,-12.51,-5.8,1742248840.0104582
0.76,-0.32,-0.55,1.89,10.99,4.39,0.44,-0.04,0.88,2.93,-13.37,-5.0,1742248840.124481
0.75,-0.31,-0.58,3.78,12.82,3.48,0.42,-0.05,0.9,2.44,-16.78,-4.82,1742248840.238503
0.71,-0.31,-0.61,4.03,17.46,-2.81,0.39,-0.03,0.91,2.56,-17.82,-3.05,1742248840.352472
0.7,-0.31,-0.64,6.23,12.51,2.38,0.37,-0.04,0.95,6.16,-12.39,-5.13,1742248840.466471
0.73,-0.31,-0.65,5.62,5.19,7.93,0.37,-0.08,0.95,5.49,-6.96,-7.69,1742248840.5819368
0.72,-0.25,-0.66,3.97,4.64,6.04,0.34,-0.11,0.93,5.19,-3.91,-5.07,1742248840.6977239
0.7,-0.27,-0.68,5.8,4.33,3.17,0.37,-0.09,0.95,9.95,-3.78,-6.41,1742248840.808486
0.71,-0.24,-0.68,4.03,8.48,5.07,0.32,-0.13,0.95,3.42,-6.59,-6.65,1742248840.922515
0.71,-0.23,-0.68,5.92,-0.55,4.03,0.33,-0.15,0.93,7.87,0.73,-2.38,1742248841.0399911
0.7,-0.2,-0.68,3.17,-2.69,4.09,0.32,-0.16,0.94,1.59,0.18,-2.93,1742248841.150388
0.7,-0.21,-0.68,0.67,-1.4,0.85,0.33,-0.16,0.94,-0.73,2.81,-1.53,1742248841.264479
0.69,-0.21,-0.67,0.31,-1.95,-0.67,0.35,-0.15,0.92,1.28,0.49,-0.43,1742248841.3785138
0.7,-0.22,-0.67,0.37,1.22,-0.67,0.34,-0.15,0.94,-0.31,-2.93,0.61,1742248841.4926279
0.69,-0.22,-0.68,1.16,3.85,-1.16,0.32,-0.14,0.93,-0.92,-2.99,-0.61,1742248841.606524
0.7,-0.23,-0.69,1.22,2.14,2.2,0.32,-0.14,0.95,0.18,-1.04,-3.72,1742248841.720581
0.71,-0.19,-0.69,1.77,0.79,1.46,0.3,-0.17,0.94,2.56,2.38,0.0,1742248841.834261
0.71,-0.21,-0.68,1.77,-1.1,-1.4,0.34,-0.15,0.93,0.49,2.62,-0.12,1742248841.9473019
0.7,-0.21,-0.68,2.62,2.44,-1.16,0.32,-0.16,0.94,3.11,0.61,-0.79,1742248842.061274
0.7,-0.19,-0.7,2.14,-1.04,0.61,0.33,-0.18,0.93,4.15,2.87,1.22,1742248842.177494
0.7,-0.2,-0.69,2.62,1.77,-1.28,0.33,-0.17,0.93,5.07,2.75,1.53,1742248842.288231
0.69,-0.2,-0.69,2.93,1.16,-0.12,0.34,-0.19,0.93,-0.31,-1.89,-0.79,1742248842.4014442
0.69,-0.19,-0.7,0.98,1.89,-0.49,0.34,-0.18,0.93,-2.14,-1.46,0.12,1742248842.5184991
0.7,-0.2,-0.71,4.33,-6.04,0.43,0.33,-0.18,0.93,1.34,0.43,0.37,1742248842.6292381
0.69,-0.19,-0.69,1.4,-1.95,-0.06,0.34,-0.18,0.92,-0.31,-0.85,-0.79,1742248842.7424839
0.7,-0.18,-0.69,1.59,-1.22,-0.06,0.34,-0.18,0.93,1.71,0.43,-0.31,1742248842.858026
0.68,-0.19,-0.69,0.43,2.32,-0.31,0.34,-0.19,0.93,-2.01,-2.56,-1.16,1742248842.970537
0.7,-0.18,-0.7,1.04,1.34,0.18,0.33,-0.19,0.93,1.04,0.24,0.43,1742248843.084182
0.7,-0.18,-0.69,0.18,0.79,-1.65,0.32,-0.18,0.94,-1.04,0.18,0.98,1742248843.198422
0.7,-0.19,-0.69,1.89,-4.15,-0.92,0.34,-0.18,0.93,-0.67,0.31,0.37,1742248843.311271
0.71,-0.19,-0.68,-0.12,0.37,0.73,0.33,-0.18,0.93,-0.43,-1.65,-1.77,1742248843.425505
0.69,-0.18,-0.7,1.1,0.55,0.24,0.33,-0.18,0.92,0.37,-0.67,-0.43,1742248843.5395682
0.71,-0.18,-0.69,0.43,1.71,0.67,0.33,-0.19,0.93,0.31,-0.37,-0.18,1742248843.653423
0.7,-0.18,-0.7,0.73,0.55,0.18,0.32,-0.18,0.93,1.77,0.06,-0.12,1742248843.767305
0.7,-0.18,-0.7,0.06,-1.16,3.23,0.32,-0.19,0.94,2.2,3.23,-3.11,1742248843.881349
0.7,-0.16,-0.69,-0.61,-2.69,3.54,0.33,-0.2,0.93,0.61,0.92,-2.81,1742248843.997824
0.7,-0.17,-0.7,-1.22,-4.09,2.69,0.33,-0.19,0.93,-0.24,3.91,-1.65,1742248844.1092951
0.71,-0.17,-0.67,0.06,-6.47,3.97,0.34,-0.19,0.91,3.11,6.29,-4.03,1742248844.223365
0.72,-0.16,-0.67,-4.03,-7.32,8.54,0.35,-0.2,0.92,-0.98,8.97,-6.29,1742248844.337417
0.75,-0.18,-0.66,-11.29,-10.8,15.26,0.37,-0.24,0.92,-16.24,25.45,-20.94,1742248844.451339
0.8,-0.1,-0.63,-14.53,-20.69,12.33,0.43,-0.21,0.89,13.31,23.13,-0.61,1742248844.565332
0.79,-0.12,-0.58,-2.2,-15.93,4.33,0.45,-0.22,0.83,7.69,7.39,0.18,1742248844.679093
0.79,-0.13,-0.59,-1.04,-8.12,0.24,0.44,-0.22,0.86,-0.37,3.91,-0.49,1742248844.7923222
0.8,-0.13,-0.56,0.18,-5.92,0.98,0.46,-0.23,0.85,7.63,9.16,-0.55,1742248844.9062269
0.82,-0.13,-0.56,-2.44,-11.23,3.72,0.48,-0.24,0.87,0.67,4.46,-4.52,1742248845.020185
0.84,-0.12,-0.54,-3.17,-9.03,1.4,0.48,-0.24,0.84,4.94,7.69,-1.22,1742248845.1346822
0.84,-0.13,-0.52,-0.55,-11.9,3.3,0.5,-0.24,0.83,5.31,8.12,-1.4,1742248845.2482429
0.84,-0.13,-0.5,0.67,-12.63,5.49,0.5,-0.25,0.82,12.15,13.24,-2.87,1742248845.3622122
0.85,-0.11,-0.49,0.0,-4.27,4.39,0.53,-0.3,0.79,7.08,6.84,-1.4,1742248845.478844
0.87,-0.11,-0.48,0.0,-5.62,-0.67,0.54,-0.28,0.78,8.61,5.98,1.28,1742248845.590135
0.9,-0.1,-0.45,0.85,-8.48,4.46,0.54,-0.31,0.78,10.01,8.18,0.73,1742248845.703083
0.89,-0.09,-0.46,2.56,-4.82,1.77,0.55,-0.33,0.78,7.81,6.23,2.01,1742248845.817625
0.87,-0.1,-0.46,-0.24,-8.3,-1.1,0.58,-0.29,0.77,0.55,7.08,4.33,1742248845.93002
0.94,-0.12,-0.42,-3.36,-8.48,3.42,0.57,-0.37,0.76,-10.56,22.83,-1.04,1742248846.043301
0.91,-0.06,-0.35,-5.86,-9.22,-2.62,0.59,-0.32,0.75,-10.5,-4.21,3.42,1742248846.1579242
0.94,-0.09,-0.38,-15.5,-12.57,-5.07,0.6,-0.23,0.78,-16.24,-1.1,7.02,1742248846.2712169
0.92,-0.12,-0.34,6.41,-3.91,-6.41,0.6,-0.22,0.78,-0.49,-2.2,9.09,1742248846.385237
0.91,-0.16,-0.38,7.08,-4.39,0.55,0.59,-0.22,0.83,3.42,-3.66,-0.31,1742248846.499239
0.92,-0.12,-0.36,-3.23,-1.77,3.3,0.57,-0.24,0.77,-8.91,-5.43,1.95,1742248846.6132312
0.9,-0.13,-0.37,5.07,-1.65,-4.21,0.55,-0.24,0.79,-4.76,-1.34,1.77,1742248846.7272398
0.93,-0.1,-0.36,-1.59,-0.67,-3.36,0.52,-0.21,0.84,-3.54,0.43,2.75,1742248846.841107
0.93,-0.1,-0.35,1.1,-7.26,-5.37,0.55,-0.2,0.81,5.55,6.16,5.68,1742248846.958004
0.93,-0.12,-0.34,2.56,-10.07,-6.35,0.57,-0.23,0.79,2.87,7.32,4.33,1742248847.06801
0.94,-0.14,-0.3,-0.31,-6.04,-6.35,0.61,-0.19,0.78,5.8,9.22,7.2,1742248847.1810088
0.94,-0.16,-0.3,1.89,-1.77,-4.94,0.59,-0.2,0.77,0.12,1.95,-0.06,1742248847.296416
0.94,-0.16,-0.3,-3.3,-2.08,3.17,0.6,-0.23,0.77,-4.39,1.16,-8.73,1742248847.408225
0.95,-0.14,-0.3,-12.39,-4.03,5.37,0.61,-0.21,0.76,6.59,6.96,-3.23,1742248847.5221372
0.94,-0.16,-0.29,1.1,0.55,-4.21,0.6,-0.24,0.77,4.03,0.31,-0.12,1742248847.638771
0.93,-0.17,-0.28,-2.69,0.06,-3.23,0.59,-0.24,0.75,2.93,-0.73,-6.1,1742248847.749231
0.95,-0.14,-0.29,-3.23,-3.23,-8.12,0.6,-0.26,0.76,-1.46,0.79,0.73,1742248847.8630998
0.93,-0.18,-0.27,-1.71,-0.61,-5.74,0.6,-0.25,0.76,-3.17,-0.98,-0.24,1742248847.9782221
0.94,-0.19,-0.28,-5.25,4.21,-3.6,0.62,-0.23,0.75,1.95,-1.04,6.65,1742248848.091132
0.92,-0.18,-0.28,4.09,1.46,-1.46,0.59,-0.24,0.77,-0.79,-14.95,8.24,1742248848.2052321
0.95,-0.18,-0.3,-0.12,1.53,-0.73,0.58,-0.22,0.78,-2.14,-2.01,4.52,1742248848.3192089
0.94,-0.21,-0.3,3.36,-4.09,5.74,0.58,-0.24,0.75,-17.21,-4.33,-0.06,1742248848.4332988
0.95,-0.16,-0.32,0.43,2.99,1.4,0.57,-0.21,0.8,-0.61,3.85,-9.77,1742248848.5472262
0.93,-0.14,-0.3,-9.64,1.22,-2.99,0.58,-0.21,0.79,-8.0,2.44,-4.88,1742248848.661217
0.94,-0.16,-0.31,-6.84,0.31,-2.32,0.57,-0.22,0.8,-0.92,0.73,-0.67,1742248848.777948
0.94,-0.18,-0.29,-5.43,-1.1,-3.17,0.59,-0.2,0.78,-1.4,1.77,1.95,1742248848.889131
0.93,-0.18,-0.29,0.67,-0.85,-1.53,0.59,-0.2,0.78,0.79,-0.18,-0.31,1742248849.0031092
0.93,-0.19,-0.3,3.85,0.73,0.55,0.58,-0.2,0.79,3.11,-0.98,-1.28,1742248849.117718
0.94,-0.18,-0.3,1.22,-1.4,1.1,0.58,-0.22,0.79,0.85,-0.55,-0.55,1742248849.2311199
0.92,-0.17,-0.29,2.44,1.59,-0.24,0.57,-0.21,0.78,1.71,-3.6,0.24,1742248849.3450098
0.94,-0.19,-0.3,3.91,-1.46,-0.92,0.59,-0.22,0.79,-0.67,-0.37,0.79,1742248849.459101
0.92,-0.16,-0.3,10.13,7.81,-5.07,0.58,-0.21,0.78,0.85,-6.65,3.6,1742248849.572983
0.94,-0.19,-0.35,10.74,12.51,-7.75,0.56,-0.2,0.82,0.67,-8.18,4.27,1742248849.6860218
0.89,-0.19,-0.37,10.44,10.62,-7.75,0.55,-0.18,0.79,7.63,-5.8,1.65,1742248849.799995
0.88,-0.19,-0.38,6.35,5.92,1.28,0.53,-0.23,0.81,5.25,-2.01,-2.38,1742248849.915723
0.9,-0.19,-0.41,2.14,1.95,-0.18,0.55,-0.23,0.81,3.54,2.01,0.06,1742248850.027927
0.89,-0.19,-0.39,0.98,4.94,-0.98,0.57,-0.24,0.78,1.59,0.31,-1.59,1742248850.1409888
0.89,-0.19,-0.41,7.02,14.28,-4.88,0.53,-0.23,0.81,3.05,-5.37,0.55,1742248850.25795
0.88,-0.19,-0.46,11.96,9.03,-3.66,0.53,-0.25,0.82,2.69,-2.69,0.92,1742248850.368959
0.88,-0.18,-0.47,6.41,1.95,-5.07,0.53,-0.24,0.8,3.23,-0.79,3.66,1742248850.483022
0.87,-0.19,-0.46,2.87,1.95,-1.59,0.54,-0.24,0.81,1.89,-0.73,1.83,1742248850.5969641
0.85,-0.19,-0.47,2.75,-0.98,-1.22,0.53,-0.24,0.81,0.55,-0.43,1.1,1742248850.710943
0.87,-0.19,-0.47,1.1,-0.12,0.49,0.53,-0.25,0.81,2.5,-0.24,-0.67,1742248850.825115
0.86,-0.18,-0.48,1.16,0.06,0.85,0.53,-0.26,0.82,4.09,-0.49,0.49,1742248850.9390159
0.86,-0.19,-0.48,0.43,0.37,-0.67,0.53,-0.25,0.82,0.49,-0.31,-0.85,1742248851.05312
0.85,-0.19,-0.48,-1.46,1.04,0.37,0.54,-0.25,0.82,-0.92,-0.85,-1.71,1742248851.1672058
0.85,-0.19,-0.47,1.34,2.75,0.31,0.53,-0.26,0.79,-0.98,-1.59,-1.83,1742248851.281201
0.87,-0.18,-0.49,1.95,1.34,0.0,0.52,-0.25,0.82,1.71,-0.31,-0.18,1742248851.3978062
0.86,-0.2,-0.49,0.61,-0.18,0.92,0.53,-0.25,0.82,0.61,1.59,-2.44,1742248851.509027
0.84,-0.17,-0.48,0.92,1.71,1.59,0.52,-0.26,0.81,1.89,-2.44,-1.89,1742248851.62313
0.85,-0.17,-0.49,2.62,-3.6,2.32,0.53,-0.28,0.81,2.99,0.24,-1.95,1742248851.738761
0.86,-0.17,-0.48,2.44,-1.34,-0.98,0.52,-0.28,0.8,0.85,1.04,0.98,1742248851.850772
0.85,-0.17,-0.48,-2.56,5.43,-2.99,0.51,-0.27,0.81,-3.05,-2.01,-0.55,1742248851.964171
0.88,-0.18,-0.49,-1.89,6.9,-1.53,0.52,-0.27,0.82,-3.3,-0.92,1.1,1742248852.08161
0.86,-0.18,-0.49,-2.01,4.15,-5.86,0.52,-0.24,0.82,-2.87,0.37,3.78,1742248852.191891
0.84,-0.2,-0.5,3.85,1.59,-4.15,0.51,-0.24,0.83,0.49,-2.32,2.56,1742248852.304864
0.84,-0.2,-0.5,4.64,-1.59,-4.21,0.53,-0.25,0.82,0.92,-1.46,2.14,1742248852.417898
0.83,-0.19,-0.5,1.53,3.78,-2.32,0.5,-0.25,0.81,0.37,-3.6,0.67,1742248852.5318642
0.83,-0.21,-0.52,0.06,0.79,-1.16,0.51,-0.24,0.83,-0.12,0.37,-1.46,1742248852.645988
0.83,-0.18,-0.5,0.06,3.17,0.67,0.49,-0.25,0.82,-0.98,-2.81,-0.92,1742248852.760118
0.83,-0.2,-0.52,-0.18,1.16,-0.55,0.51,-0.24,0.83,1.1,-1.04,-0.18,1742248852.8775392
0.83,-0.19,-0.52,0.61,2.81,-0.43,0.49,-0.25,0.84,0.24,-0.92,0.06,1742248852.987851
0.82,-0.19,-0.52,2.01,0.61,0.06,0.5,-0.26,0.83,3.23,-0.92,-1.22,1742248853.1036448
0.83,-0.19,-0.52,3.78,0.31,-3.05,0.5,-0.26,0.83,1.59,-0.98,0.12,1742248853.217653
0.83,-0.2,-0.52,-0.18,0.73,0.43,0.5,-0.25,0.82,0.12,-0.49,-1.83,1742248853.330125
0.83,-0.19,-0.53,0.18,2.08,0.31,0.49,-0.26,0.83,-0.31,-1.34,-0.06,1742248853.4440901
0.82,-0.19,-0.54,0.79,-0.37,-1.16,0.5,-0.25,0.84,-0.79,-0.06,0.49,1742248853.561541
0.82,-0.2,-0.53,-0.79,0.31,1.46,0.49,-0.26,0.83,0.06,0.37,-1.95,1742248853.671894
0.83,-0.19,-0.53,-0.12,-0.12,1.59,0.5,-0.26,0.83,0.06,0.24,-1.4,1742248853.785831
0.83,-0.19,-0.52,2.32,-0.18,0.73,0.49,-0.26,0.82,2.2,0.79,-2.99,1742248853.898774
0.83,-0.18,-0.53,1.59,-1.16,1.16,0.49,-0.27,0.83,2.62,0.67,-1.46,1742248854.012966
0.83,-0.17,-0.53,-0.12,-0.73,0.67,0.49,-0.29,0.82,0.31,0.0,0.18,1742248854.12716
0.82,-0.19,-0.53,0.24,-1.04,-1.04,0.5,-0.26,0.82,-0.73,-0.67,0.67,1742248854.239864
0.83,-0.18,-0.53,0.24,1.34,0.73,0.49,-0.27,0.83,0.0,-0.49,-1.1,1742248854.353915
0.83,-0.18,-0.52,0.0,0.85,-0.24,0.49,-0.27,0.83,1.1,0.31,0.0,1742248854.467689
0.82,-0.18,-0.53,0.43,0.37,0.79,0.49,-0.28,0.83,0.61,0.06,-1.28,1742248854.581686
0.83,-0.18,-0.53,0.31,-0.24,0.98,0.5,-0.28,0.83,0.12,0.55,-1.16,1742248854.698306
0.83,-0.17,-0.53,-0.06,1.53,0.79,0.49,-0.29,0.82,-0.49,-0.61,-0.43,1742248854.8142478
0.83,-0.17,-0.53,0.49,-0.67,-0.98,0.5,-0.28,0.83,0.06,0.73,0.73,1742248854.927698
0.83,-0.18,-0.52,-0.12,0.61,0.43,0.49,-0.28,0.82,1.04,-0.12,-0.85,1742248855.041069
0.83,-0.17,-0.52,0.18,0.55,-0.06,0.49,-0.29,0.82,0.37,-0.06,0.31,1742248855.15836
0.83,-0.18,-0.53,0.61,-0.18,-0.37,0.49,-0.28,0.83,0.43,0.24,-0.43,1742248855.2688031
0.84,-0.18,-0.53,-0.12,0.06,0.55,0.49,-0.28,0.83,0.12,0.55,-0.73,1742248855.382765
0.84,-0.17,-0.52,-0.31,-0.73,1.65,0.5,-0.29,0.82,1.77,1.95,-1.71,1742248855.4983091
0.83,-0.17,-0.52,0.37,-0.92,1.1,0.49,-0.29,0.82,0.79,0.61,-1.04,1742248855.610794
0.83,-0.17,-0.52,0.55,-0.12,-0.12,0.49,-0.28,0.82,0.55,-0.12,-0.49,1742248855.72492
0.84,-0.16,-0.52,0.49,-0.98,0.85,0.5,-0.3,0.82,0.55,0.55,-0.49,1742248855.83882
0.84,-0.17,-0.52,0.43,0.24,-0.37,0.49,-0.29,0.82,0.12,0.79,-0.06,1742248855.952781
0.83,-0.16,-0.52,0.0,0.67,-0.43,0.49,-0.29,0.82,0.98,0.06,0.37,1742248856.0666392
0.83,-0.17,-0.52,0.67,0.24,-0.55,0.49,-0.29,0.82,0.12,-0.31,-0.12,1742248856.179898
0.83,-0.16,-0.52,-0.49,1.16,1.95,0.5,-0.29,0.82,0.49,-0.55,-1.28,1742248856.2977788
0.84,-0.16,-0.52,0.18,-0.79,1.22,0.5,-0.3,0.82,0.67,0.18,-0.67,1742248856.407706
0.83,-0.16,-0.51,0.18,-0.67,0.24,0.5,-0.3,0.82,0.37,0.43,-0.55,1742248856.520801
0.84,-0.16,-0.52,0.67,-0.67,-0.24,0.5,-0.3,0.81,0.12,0.37,-0.12,1742248856.637894
0.83,-0.16,-0.52,0.24,-0.31,-0.06,0.5,-0.3,0.82,0.06,0.43,-0.43,1742248856.748707
0.84,-0.16,-0.51,0.18,-0.06,0.31,0.5,-0.3,0.81,0.43,-0.18,-0.18,1742248856.861824
0.84,-0.16,-0.51,0.18,0.18,-0.55,0.5,-0.29,0.81,0.12,0.67,0.06,1742248856.9778
0.84,-0.16,-0.52,0.31,-0.06,-0.12,0.5,-0.31,0.81,-0.98,-0.12,-0.06,1742248857.088908
0.83,-0.17,-0.52,0.18,-0.12,-0.85,0.5,-0.29,0.81,-1.53,-0.49,0.0,1742248857.202938
0.84,-0.16,-0.52,0.06,0.43,-0.61,0.5,-0.3,0.81,-0.31,0.06,0.43,1742248857.318433
0.85,-0.16,-0.51,0.24,0.37,-0.79,0.5,-0.3,0.82,-0.31,-0.24,1.1,1742248857.4308338
0.84,-0.17,-0.52,0.0,-0.55,-1.16,0.5,-0.29,0.82,-0.85,0.49,0.55,1742248857.544864
0.84,-0.16,-0.52,0.0,-0.24,-0.98,0.5,-0.3,0.81,-1.34,-0.12,0.31,1742248857.6588118
0.84,-0.16,-0.51,-0.31,-0.73,0.12,0.5,-0.3,0.82,0.98,2.08,-0.31,1742248857.772765
0.84,-0.16,-0.51,-1.28,-0.67,-0.31,0.5,-0.29,0.82,0.79,3.36,1.28,1742248857.8866181
0.84,-0.17,-0.5,-0.55,-2.08,-0.79,0.52,-0.3,0.79,-1.53,1.65,1.83,1742248857.9997382
0.85,-0.17,-0.49,-8.42,0.79,0.12,0.51,-0.32,0.79,-19.96,-17.21,1.95,1742248858.11698
0.85,-0.16,-0.53,-5.07,-2.93,-10.19,0.47,-0.24,0.9,-9.52,-13.24,10.44,1742248858.227865
0.84,-0.2,-0.51,-7.57,-5.68,-8.0,0.47,-0.21,0.86,-9.22,-3.3,8.48,1742248858.341832
0.85,-0.23,-0.45,1.65,-3.3,-6.41,0.49,-0.17,0.84,-0.37,-3.66,4.52,1742248858.4578938
0.84,-0.24,-0.46,2.14,1.89,0.73,0.47,-0.2,0.85,3.17,-3.54,-1.53,1742248858.569865
0.84,-0.22,-0.49,4.15,-0.24,2.14,0.46,-0.19,0.86,7.75,-4.33,-1.46,1742248858.683846
0.81,-0.26,-0.53,13.92,-5.37,6.53,0.45,-0.22,0.91,13.12,-0.18,-7.2,1742248858.797869
0.86,-0.17,-0.49,0.85,-4.88,11.72,0.46,-0.28,0.87,7.63,2.5,-4.27,1742248858.9116302
0.88,-0.14,-0.48,-4.76,-4.64,6.9,0.48,-0.27,0.86,6.77,11.66,4.15,1742248859.024492
0.85,-0.18,-0.44,-6.35,-7.63,14.47,0.53,-0.25,0.79,0.73,3.11,-3.78,1742248859.141553
0.83,-0.17,-0.51,-14.16,2.75,24.05,0.51,-0.25,0.83,-15.93,10.68,-6.77,1742248859.251737
0.9,-0.11,-0.44,-7.39,3.91,16.85,0.51,-0.23,0.83,-1.83,32.47,-3.36,1742248859.365709
0.88,-0.07,-0.29,-1.46,-22.22,47.55,0.51,-0.06,0.74,-2.75,-16.66,-27.65,1742248859.479771
0.86,0.11,-0.44,-16.54,52.67,47.36,0.47,0.14,0.9,-11.78,-17.58,-98.08,1742248859.5937128
0.84,-0.06,-0.63,28.32,39.49,-30.7,0.27,-0.21,0.7,-47.67,-23.13,-181.21,1742248859.707826
0.81,0.01,-0.56,18.31,-4.94,31.86,-0.03,-0.72,0.75,-29.91,-70.86,-136.66,1742248859.822015
0.87,0.19,-0.43,37.54,-7.02,38.76,-0.2,-0.33,1.05,-54.26,-53.41,-91.86,1742248859.938278
0.75,0.22,-0.46,89.23,-14.83,50.11,-0.3,-0.42,1.05,-5.68,13.43,-33.75,1742248860.049859
0.76,0.58,-0.58,7.87,26.0,46.63,-0.2,-0.33,0.97,-21.42,-7.26,-8.73,1742248860.1639092
0.78,0.52,-0.52,-6.96,5.98,0.61,-0.18,-0.21,0.99,-11.23,-6.35,1.95,1742248860.27842
