L-AccX,L-AccY,L-AccZ,L-GyrX,L-GyrY,L-GyrZ,R-AccX,R-AccY,R-AccZ,R-GyrX,R-GyrY,R-GyrZ,timestamp
-0.02,0.27,0.97,-0.12,-0.73,0.12,0.75,-0.47,0.41,2.62,-2.2,-5.43,1742259840.87646
-0.09,0.23,1.03,-36.25,13.92,6.47,0.81,-0.54,0.46,8.36,-7.57,-8.54,1742259840.9930859
-0.21,0.42,1.34,-29.97,78.12,-38.15,0.79,-0.55,0.5,-5.74,1.77,19.84,1742259841.103731
0.08,0.37,1.04,-85.94,149.6,-41.87,0.76,-0.51,0.49,-16.3,22.03,32.04,1742259841.2177122
0.4,0.5,0.65,4.88,152.95,-40.83,0.84,-0.46,0.49,-37.78,52.31,59.33,1742259841.3320708
0.66,0.64,0.32,-53.22,90.15,-86.43,0.87,-0.28,0.32,-18.8,38.33,79.22,1742259841.445643
0.75,0.44,0.11,-34.85,3.48,-115.54,0.78,-0.17,0.11,-52.8,29.6,94.67,1742259841.55985
0.78,0.05,0.19,36.62,37.41,-128.85,0.93,0.21,0.33,-4.88,23.8,68.24,1742259841.67663
0.85,-0.21,0.25,15.81,45.35,-105.29,0.95,0.23,0.33,12.7,54.14,46.87,1742259841.786434
0.93,-0.48,0.06,78.0,71.17,-38.45,0.86,0.37,-0.16,-22.77,37.35,58.65,1742259841.8997629
1.01,-0.3,-0.03,-13.79,21.91,-29.79,0.95,0.32,0.06,31.56,-1.22,27.28,1742259842.013908
0.95,-0.32,0.07,-9.34,-4.52,-76.84,0.92,0.54,0.04,57.5,20.94,65.98,1742259842.1264021
0.74,-0.56,0.06,-14.71,41.75,-72.94,0.82,0.55,0.17,70.37,20.45,93.08,1742259842.23936
0.74,-0.69,0.03,7.81,2.93,-58.29,0.66,0.67,0.28,70.56,37.05,83.31,1742259842.3534741
0.6,-0.75,0.05,12.39,-19.17,-35.34,0.55,0.68,0.33,15.14,11.84,59.75,1742259842.465425
0.57,-0.81,0.01,-27.95,-34.85,17.21,0.47,0.82,0.24,49.93,11.41,-11.29,1742259842.5785012
0.82,-0.69,-0.01,30.33,-31.37,-13.43,0.64,0.88,0.08,-15.75,-34.55,-12.33,1742259842.693233
0.59,-0.82,0.13,48.89,-7.57,-77.94,0.43,1.07,0.2,-169.98,-110.96,63.11,1742259842.805655
0.49,-0.7,-0.13,86.91,-78.37,-30.09,0.4,0.65,0.17,-78.49,-104.98,39.73,1742259842.9195368
0.44,-0.97,0.02,26.98,-73.97,-37.05,0.36,0.87,0.36,-28.75,37.29,59.57,1742259843.033906
0.33,-0.99,0.15,-86.79,33.45,-19.47,0.17,1.03,0.09,21.18,39.55,46.26,1742259843.146433
0.38,-1.02,0.1,-80.51,13.98,11.66,0.18,1.1,0.2,68.05,13.18,-17.4,1742259843.2595148
0.18,-0.55,0.39,-164.06,2.2,46.45,0.13,0.76,0.54,277.95,34.91,-90.03,1742259843.373502
0.28,-0.78,0.56,-102.11,28.38,-14.89,0.23,0.64,0.63,88.68,-11.29,55.91,1742259843.486731
0.39,-0.77,0.5,-105.83,56.95,75.5,0.18,0.88,0.59,72.14,-31.19,-62.44,1742259843.600781
0.81,-0.48,0.42,-118.84,45.23,118.29,0.22,0.3,0.84,76.72,-11.72,-135.62,1742259843.7146082
0.9,0.11,0.43,-184.75,26.79,110.9,0.5,-0.15,0.9,80.99,2.08,-112.67,1742259843.8325639
0.71,0.41,0.6,-87.71,27.95,124.76,0.21,-0.27,0.97,121.83,-59.88,-89.11,1742259843.941799
0.74,0.61,0.44,-51.57,-52.86,126.95,-0.01,-0.79,0.92,114.2,-44.98,-68.66,1742259844.055778
0.24,0.73,0.69,-6.9,-65.8,141.48,-0.08,-0.57,0.83,42.66,16.91,-124.51,1742259844.169695
-0.18,1.19,1.0,109.86,-52.19,177.67,-0.08,-1.09,0.7,-6.71,139.1,-42.79,1742259844.283803
-0.03,0.88,0.87,-4.21,145.75,-80.63,0.24,-0.83,0.61,-21.79,152.71,124.15,1742259844.397581
0.68,0.37,0.44,293.52,211.98,-58.17,0.72,-0.44,0.53,-249.76,143.92,90.45,1742259844.51329
0.67,-0.02,0.4,64.03,141.17,-76.54,0.68,0.13,0.41,-114.87,71.17,151.43,1742259844.6255019
0.76,-0.19,0.47,5.43,111.63,-75.74,0.71,0.32,0.56,-97.29,71.96,69.58,1742259844.738436
0.92,-0.25,0.38,-107.24,100.46,-71.29,0.73,0.32,0.66,109.56,60.67,32.1,1742259844.853342
0.91,-0.41,0.23,-174.07,-8.36,-46.51,0.74,0.49,0.45,-4.94,74.71,71.66,1742259844.964521
0.82,-0.43,0.26,-47.67,29.85,1.46,0.8,0.57,0.09,74.83,39.92,43.15,1742259845.0772989
0.88,-0.18,0.15,-81.18,7.51,23.38,0.71,0.35,0.61,96.8,-84.72,-16.91,1742259845.19365
0.89,-0.26,0.31,-86.67,31.98,29.85,0.62,0.42,0.63,-28.87,-20.2,-27.1,1742259845.3046641
0.89,0.08,0.2,-11.66,18.37,58.41,0.73,0.3,0.51,0.43,12.51,-46.08,1742259845.418439
0.98,0.02,0.26,-7.14,55.91,33.39,0.8,0.22,0.51,119.38,-36.87,-64.76,1742259845.533958
1.12,0.09,-0.01,-53.22,57.5,40.16,0.88,0.05,0.7,117.68,-16.91,-32.53,1742259845.6455722
0.95,0.29,0.04,-54.69,21.97,46.81,0.6,-0.15,0.88,66.71,-4.58,10.8,1742259845.759546
1.0,0.25,-0.14,-15.93,39.79,13.06,0.84,-0.16,0.47,25.39,83.13,45.96,1742259845.874075
0.91,0.4,-0.03,22.46,-2.81,49.44,1.0,-0.08,0.36,42.11,36.07,0.61,1742259845.986402
0.99,0.4,-0.27,158.45,89.6,104.13,1.02,-0.26,0.38,9.16,16.97,-87.1,1742259846.1005828
0.79,0.82,-0.17,319.76,-16.17,51.57,0.74,-0.49,0.34,-69.4,-10.86,-146.73,1742259846.214716
0.55,0.44,0.56,95.89,-97.72,-41.93,0.58,-0.59,0.47,-70.56,-31.01,-118.65,1742259846.333518
0.56,0.31,0.69,102.36,-37.35,-39.31,0.32,-0.65,0.58,-69.15,-6.71,-97.66,1742259846.442687
0.6,0.16,0.77,18.13,-19.23,-39.43,0.32,-0.63,0.7,-18.13,-12.82,-40.71,1742259846.556684
0.58,0.15,0.79,-17.03,-19.35,-30.94,0.35,-0.63,0.76,-72.33,-46.08,-52.98,1742259846.6706839
0.4,-0.23,1.09,-44.01,22.95,-0.31,0.01,-0.37,1.0,18.25,-45.29,-4.39,1742259846.7846029
0.55,0.22,0.82,-22.4,11.72,43.27,0.03,-0.53,0.92,-20.08,28.75,-26.49,1742259846.8986292
0.72,0.39,0.56,-40.65,17.09,39.0,0.19,-0.36,0.85,-54.32,69.27,-54.26,1742259847.014306
0.73,0.4,0.49,-9.52,-33.87,35.58,0.2,-0.32,0.84,-39.43,40.1,-30.15,1742259847.126592
0.59,0.27,0.69,27.89,-23.32,16.66,0.2,-0.23,0.92,-2.81,24.6,-7.39,1742259847.240499
0.34,0.26,0.94,85.02,-68.73,36.87,-0.02,-0.12,1.23,94.91,8.42,2.69,1742259847.354505
0.05,0.25,0.95,11.23,-41.44,21.55,0.32,-0.68,0.48,214.54,131.77,-3.42,1742259847.474407
0.21,0.39,0.88,-9.09,-9.03,-4.15,0.44,-0.73,0.26,-35.95,105.71,-13.0,1742259847.582567
0.22,0.35,0.84,-56.09,-5.62,-27.59,0.48,-0.67,0.24,-23.74,46.08,-19.53,1742259847.69655
0.15,0.49,0.82,-97.23,-41.14,-36.74,0.54,-0.77,0.31,-46.75,-4.94,-49.26,1742259847.815171
0.08,0.59,0.92,-6.71,-8.0,-10.5,0.51,-0.73,0.43,-62.19,-3.66,-37.48,1742259847.9246368
0.04,0.57,1.0,43.09,3.6,-13.18,0.5,-0.74,0.51,-71.66,-4.82,-8.42,1742259848.0386162
0.19,0.32,0.95,1.65,-9.16,-35.64,0.47,-0.74,0.6,-30.88,-20.39,7.14,1742259848.158758
0.18,0.38,0.87,-15.32,-10.62,-24.05,0.49,-0.65,0.68,15.2,-7.75,28.75,1742259848.266405
0.27,0.48,0.82,-28.75,9.22,-7.87,0.5,-0.61,0.7,16.24,-15.08,52.98,1742259848.3804002
0.28,0.38,0.92,-10.74,-7.32,-24.84,0.48,-0.6,0.63,40.22,-35.16,72.63,1742259848.4947042
0.23,0.46,0.87,6.59,-1.34,-13.67,0.48,-0.48,0.73,45.59,-45.84,58.04,1742259848.6083782
0.21,0.42,0.88,8.3,-6.59,-19.65,0.47,-0.45,0.71,52.67,-42.97,48.28,1742259848.722393
0.24,0.41,0.89,-4.76,21.61,-16.97,0.49,-0.5,0.71,15.93,-23.68,17.7,1742259848.836404
0.35,0.38,0.85,5.92,25.02,-11.78,0.54,-0.49,0.8,-20.08,4.27,20.14,1742259848.954958
0.46,0.35,0.81,-29.42,30.76,-11.84,0.64,-0.37,0.69,-22.58,0.06,27.65,1742259849.064399
0.51,0.39,0.72,1.16,22.83,-5.13,0.59,-0.36,0.76,-82.09,-15.99,30.33,1742259849.178899
0.41,0.48,0.86,73.85,9.16,5.43,0.52,-0.34,0.82,-78.19,-15.75,17.76,1742259849.294816
0.48,0.34,0.85,43.03,9.46,8.18,0.53,-0.13,0.87,-91.49,-30.03,-2.01,1742259849.406592
0.52,0.24,0.78,45.72,7.2,20.02,0.44,-0.19,0.82,-48.83,-69.27,-56.95,1742259849.520588
0.46,0.13,0.9,-6.23,-7.08,18.13,0.29,-0.07,0.89,-2.44,-37.96,-29.05,1742259849.6369228
0.39,0.35,0.79,69.4,-45.84,59.69,0.29,-0.44,0.85,-41.87,-18.07,-53.53,1742259849.754169
0.19,0.3,0.82,119.02,-0.73,87.1,0.31,-0.24,1.02,41.38,-34.36,-25.76,1742259849.862519
-0.09,0.35,0.93,73.85,-48.89,5.92,0.14,-0.42,0.88,38.88,-1.1,-17.03,1742259849.9765089
-0.04,-0.12,1.05,-1.83,-13.24,18.07,0.01,-0.43,0.84,28.5,21.36,36.68,1742259850.095368
0.17,0.3,1.01,-58.96,53.53,-0.98,0.28,-0.32,1.03,-9.22,-9.89,75.87,1742259850.204523
0.18,0.41,0.87,-17.33,-8.48,-53.47,0.35,-0.48,0.85,-34.97,25.57,18.68,1742259850.318408
0.12,0.09,1.05,15.01,-1.77,4.52,0.39,-0.32,0.83,-16.36,-2.99,14.53,1742259850.4343731
0.08,0.29,0.97,-15.56,2.08,3.91,0.34,-0.34,0.97,34.24,11.9,-9.7,1742259850.5463989
-0.02,0.49,1.12,-17.46,6.96,-11.78,0.38,-0.64,0.89,22.64,72.33,11.9,1742259850.660411
-0.03,0.51,1.19,-7.69,65.67,-63.29,0.51,-0.61,0.81,-43.76,75.62,57.31,1742259850.775132
0.26,0.36,0.83,-0.24,144.41,-109.5,0.63,-0.55,0.68,16.3,98.33,87.46,1742259850.895225
0.55,0.14,0.63,-46.39,158.2,-117.13,0.78,-0.34,0.4,122.07,73.12,124.39,1742259851.002391
0.94,-0.16,0.17,-94.85,133.73,-138.67,0.72,0.2,0.25,-24.96,4.58,181.88,1742259851.116609
0.94,-0.19,0.05,-33.02,18.31,-112.61,0.79,0.59,0.3,-39.06,-24.17,128.3,1742259851.235858
0.91,-0.31,0.15,20.87,11.9,-107.79,0.7,0.6,0.47,-35.64,-18.13,97.66,1742259851.344512
0.75,-0.53,0.09,34.06,-12.27,-84.59,0.53,0.8,0.28,-26.92,-37.29,58.9,1742259851.458296
0.66,-0.69,0.11,15.62,-36.13,-58.9,0.48,0.77,0.35,-12.82,-38.82,48.1,1742259851.575124
0.6,-0.67,0.23,-15.14,-51.09,-31.13,0.35,0.81,0.43,-0.55,-23.99,29.36,1742259851.6862762
0.48,-0.83,0.45,-119.69,-71.23,-12.39,0.23,0.81,0.64,120.06,9.58,-20.14,1742259851.80016
0.49,-0.42,0.6,-197.45,-62.32,-34.85,0.45,0.45,0.64,224.73,3.05,-22.4,1742259851.915647
0.34,-0.47,0.83,-75.74,-119.14,-35.16,0.4,0.24,0.77,102.72,-90.45,43.15,1742259852.0261939
0.11,-0.2,0.97,-24.78,-94.48,-29.79,0.03,0.12,1.08,48.83,-151.79,36.07,1742259852.139189
-0.19,-0.41,1.04,-23.13,-56.76,-23.01,-0.38,-0.02,1.0,9.28,-156.62,20.69,1742259852.255924
-0.11,-0.29,0.87,1.59,71.53,-10.01,-0.39,0.17,1.01,-25.21,39.25,12.08,1742259852.3662841
0.15,-0.34,0.79,36.01,158.51,44.74,-0.25,0.17,0.86,7.32,47.06,-34.18,1742259852.480279
0.59,-0.4,0.87,4.64,173.4,65.31,-0.09,0.02,0.96,33.2,46.26,-44.86,1742259852.596033
0.88,-0.02,0.47,-35.46,156.98,47.55,0.07,-0.07,1.02,21.06,54.38,-21.91,1742259852.715652
0.95,-0.09,0.42,1.77,89.97,27.77,0.17,-0.15,0.98,20.32,38.21,1.59,1742259852.822191
1.05,-0.1,0.12,-58.35,127.26,35.16,0.05,-0.21,1.21,28.44,26.31,48.22,1742259852.9360929
1.38,-0.2,-0.37,-58.35,6.71,52.61,0.37,-0.01,1.03,-10.62,176.39,55.66,1742259853.056602
0.99,0.3,-0.37,280.33,-59.33,30.76,0.91,0.03,0.1,-311.46,273.74,-124.82,1742259853.163317
0.72,0.0,0.36,274.54,-48.28,-81.79,0.8,0.23,0.31,-283.51,-59.02,8.06,1742259853.277289
0.79,-0.26,0.44,-70.01,7.26,-96.25,0.6,0.63,0.94,28.2,-9.4,52.37,1742259853.396249
0.81,-0.42,0.28,-49.5,17.76,-46.87,0.73,0.26,0.32,315.55,-98.21,26.86,1742259853.5042229
0.87,-0.3,0.23,-56.09,-28.93,-9.95,0.44,-0.21,0.79,135.56,-158.94,12.33,1742259853.6190028
0.88,-0.44,0.41,55.36,71.9,-2.08,0.28,-0.36,1.02,17.52,89.48,94.06,1742259853.7365582
1.0,-0.35,-0.11,49.44,76.72,35.95,0.8,0.07,0.92,5.62,133.0,76.05,1742259853.846102
0.98,-0.05,-0.12,79.28,-1.34,3.23,1.21,0.02,-0.25,-200.01,310.18,-34.48,1742259853.959303
0.96,-0.26,0.01,126.46,0.12,-77.88,0.83,-0.2,-0.15,-419.13,-73.18,65.37,1742259854.075799
0.84,-0.48,-0.09,26.49,6.65,-82.95,0.49,0.42,0.61,-120.79,-73.49,206.18,1742259854.196776
0.8,-0.64,-0.12,5.0,9.09,-68.12,0.35,1.03,0.33,-44.19,71.47,197.81,1742259854.301091
0.7,-0.77,-0.03,-82.28,-19.41,-16.17,0.22,1.33,0.18,128.48,38.21,9.89,1742259854.415744
0.63,-0.77,0.13,-83.37,0.73,50.11,0.4,0.72,0.16,186.1,-24.41,-92.53,1742259854.527179
0.75,-0.44,0.12,-116.33,-20.14,113.65,0.48,0.31,0.76,139.47,-72.57,-80.57,1742259854.641183
0.9,-0.22,0.39,-128.66,-49.99,91.06,0.39,0.04,0.83,151.61,-73.61,-86.0,1742259854.756156
0.81,0.09,0.67,-94.3,-26.86,61.22,0.26,-0.3,0.84,178.41,-111.02,-24.66,1742259854.875998
0.93,0.04,0.34,-114.01,33.57,38.82,0.04,-0.35,1.17,105.65,48.71,79.96,1742259854.9830909
0.99,0.38,0.37,-7.39,73.43,90.64,0.6,-0.49,0.67,61.22,103.21,13.67,1742259855.097457
0.95,0.36,0.08,123.66,37.17,117.19,0.45,-0.57,0.58,50.66,3.42,-83.5,1742259855.216199
0.66,0.47,0.28,165.22,-42.42,107.06,0.32,-0.79,0.5,54.08,1.53,-40.95,1742259855.323241
0.44,0.62,0.6,-3.11,-88.13,45.96,0.29,-0.84,0.44,14.16,20.02,-60.91,1742259855.437206
0.29,0.62,0.75,53.04,-51.57,47.73,0.13,-0.92,0.47,-26.61,49.99,-113.83,1742259855.555926
0.18,0.57,0.9,70.68,-15.56,33.94,0.05,-0.89,0.41,-18.19,83.07,-60.67,1742259855.665291
0.19,0.49,0.98,103.82,13.92,28.56,0.06,-0.81,0.6,-175.96,74.46,-105.53,1742259855.779351
0.17,0.3,0.98,111.08,-6.9,47.49,-0.08,-0.5,0.87,-110.05,25.57,-59.27,1742259855.8964522
0.1,0.08,0.96,98.88,7.93,61.22,-0.07,-0.22,0.87,-99.24,30.09,-37.23,1742259856.0129669
0.23,0.11,0.85,-8.97,3.72,22.03,-0.02,-0.38,0.9,6.35,-12.39,3.78,1742259856.1214259
0.15,0.12,0.96,35.89,-24.66,-2.5,-0.01,-0.24,1.03,-13.98,7.08,33.08,1742259856.2354372
0.0,0.12,0.95,18.98,-50.48,-42.66,-0.01,-0.16,0.93,8.85,7.02,23.07,1742259856.356085
-0.15,-0.17,1.07,-7.2,-32.29,-20.75,-0.11,-0.28,0.96,57.01,5.62,29.66,1742259856.463277
-0.17,-0.07,1.01,-38.51,28.38,3.3,0.06,-0.4,0.98,11.41,63.78,33.39,1742259856.57725
-0.01,0.08,0.99,-40.65,34.06,2.81,0.26,-0.48,0.86,30.21,62.26,-1.71,1742259856.6963892
0.15,0.18,1.04,-36.56,5.8,12.7,0.34,-0.27,0.93,-52.0,32.9,16.24,1742259856.805282
0.19,0.06,0.91,-3.05,16.78,-0.24,0.4,-0.17,0.78,-33.87,4.58,10.86,1742259856.919244
0.18,0.22,0.97,0.31,-1.04,-6.04,0.28,-0.33,0.89,9.52,-38.94,5.37,1742259857.039215
0.11,0.13,0.95,1.46,4.94,-14.16,0.19,-0.15,1.01,-10.25,37.41,-26.43,1742259857.147329
0.09,0.17,1.02,-8.36,1.89,-0.31,0.3,-0.37,0.84,6.23,-18.25,10.74,1742259857.2612731
0.09,0.16,1.0,1.53,-2.87,-1.95,0.18,-0.17,1.1,4.03,19.35,-19.96,1742259857.376725
