L-AccX,L-AccY,L-AccZ,L-GyrX,L-GyrY,L-GyrZ,R-AccX,R-AccY,R-AccZ,R-GyrX,R-GyrY,R-GyrZ,timestamp
-0.06,-0.025,0.10625,-0.000535,0.0003825,-0.0012825,0.03875,-0.10625,0.04375,-0.0054775,0.0015575,-0.016647499,1742107814.8668668
-0.0525,-0.02375,0.1025,0.000245,-0.000275,-0.0001825,0.02625,-0.115,0.0175,0.0012825,-0.00975,-0.0083475,1742107814.980476
-0.07625,-0.03,0.11875,0.002305,0.0003975,-6e-05,0.00625,-0.125,-0.00875,0.0244,-0.031555,-0.0092775,1742107815.094544
-0.0475,-0.015,0.12125,-0.02681,0.094985,-0.0114750005,-0.01375,-0.13625,0.02,0.01654,-0.037474997,-0.0074925,1742107815.210977
0.06,0.00375,0.06625,-0.04039,0.043015,-0.0107425,-0.02125,-0.12875,0.01,0.008895,-0.029235,-0.0040275003,1742107815.3300622
0.08875,0.0275,0.0575,-0.0128625,0.023285,0.0034475,-0.05,-0.14875,0.0425,0.0154275,-0.0343625,-0.0010525,1742107815.4366238
0.0875,0.04875,0.06,-0.0077975,0.016479999,0.0029000002,0.00375,-0.125,-0.01375,-0.0068200002,0.032837503,0.0054325,1742107815.553419
0.09375,0.0575,0.05375,-0.00357,0.00525,-0.0039525,0.00125,-0.11625,-0.03625,-0.0122675,0.00171,0.0024425,1742107815.671145
0.10375,0.03625,0.06,0.00016750001,0.0025625,-0.0018150001,-0.01125,-0.11875,0.015,0.0102075,-0.0461875,0.0010525,1742107815.778406
0.10375,0.04625,0.04625,0.001785,-0.00113,0.0,-0.0175,-0.115,0.0075,0.0084375,0.040345002,-0.0037525,1742107815.89249
0.09625,0.04125,0.06875,0.0028074998,-0.0027625,-0.0012825,0.00125,-0.13125,-0.0375,-0.0069575,0.0139475,-0.001175,1742107816.011864
0.1075,0.03875,0.0475,0.001115,0.000885,0.0003975,-0.00125,-0.11375,-0.0,0.004195,-0.034957502,0.0022725,1742107816.120459
0.10375,0.0375,0.05625,-0.00035,-0.0001975,-0.0006875,-0.0075,-0.11375,0.07125,-0.013412501,0.0331725,0.0033275,1742107816.2343838
0.10375,0.04,0.0575,0.00029,-0.00087,0.0001825,-0.01375,-0.13,-0.0225,-0.0113225,0.03148,-0.0028675,1742107816.35101
0.1075,0.02875,0.05125,-0.0062725,0.0010525,0.00016750001,0.005,-0.12875,-0.0275,-0.0051725,-0.020920001,0.003585,1742107816.462873
0.1025,0.045,0.06,0.0013125,-0.00148,0.00016750001,-0.07,-0.1475,0.06125,0.0068200002,-0.050735,-0.000535,1742107816.576459
0.1025,0.04,0.05875,0.000625,-0.001115,-0.00052,-0.01875,-0.11125,0.0075,-0.0080575,0.051117502,-0.0020599999,1742107816.6909509
0.09875,0.0475,0.0625,0.0034025,0.000625,-0.001465,-0.00375,-0.1375,-0.03125,-0.0036775,-0.00821,0.0016025,1742107816.811024
0.10375,0.03875,0.055,0.002715,-0.0006875,9.25e-05,-0.0125,-0.1225,0.00625,0.030685,-0.05304,0.00032,1742107816.918355
0.1025,0.03875,0.0575,-0.000305,0.00026,-0.00048750002,-0.02,-0.1325,0.00375,0.0106975,0.0392,-0.0004275,1742107817.032976
0.1025,0.0425,0.06375,0.0016625,-0.0010525,-0.00087,-0.005,-0.135,-0.03625,-0.0207225,0.011565,0.002075,1742107817.150988
0.1075,0.03,0.05125,0.0029749998,0.0010525,0.0002125,-0.01,-0.11875,-0.00625,0.0024575,-0.033919998,0.0043800003,1742107817.260461
0.10375,0.03625,0.05875,-0.0009,0.00023,-0.00035,-0.015,-0.13125,0.10375,-0.019012501,0.0187675,0.0052024997,1742107817.374263
0.1025,0.03625,0.0625,-4.5e-05,-0.000305,0.000107500004,-0.0225,-0.11875,-0.01625,-0.0174875,0.040634997,-0.003845,1742107817.490865
0.10625,0.03125,0.05875,-0.0030825,0.0015725,-0.0024249998,0.00375,-0.13875,-0.03625,-0.00059500005,-0.0248425,0.0075375,1742107817.603225
0.1025,0.04625,0.05875,0.0018925001,-0.00122,0.000535,-0.075,-0.13625,0.0925,0.011445,-0.03128,0.0016325001,1742107817.716349
0.1025,0.03875,0.05875,0.00055,-0.0003825,-0.0004125,-0.01875,-0.12,-0.01,-0.0044699996,0.040115003,-0.002075,1742107817.83065
0.1,0.0425,0.0625,0.000885,0.0012825,-0.0019225,-0.00375,-0.13,-0.01875,-0.00331,-0.0095975,0.0011900001,1742107817.95044
0.10375,0.03875,0.05625,0.00154,-0.0012975,0.00035,-0.01125,-0.1375,-0.01875,0.020584999,-0.045365002,-0.000565,1742107818.058562
0.1025,0.03875,0.05875,9.25e-05,-1.5e-05,-0.0001975,-0.01875,-0.13625,-0.00375,-0.0001225,0.0355675,-0.0003825,1742107818.172514
0.105,0.04625,0.0625,0.0023800002,-0.00052,0.000655,-0.0075,-0.12875,-0.02,-0.005905,0.0046550003,0.0015875,1742107818.28988
0.10625,0.0275,0.05375,0.0024100002,0.0009775,0.00064,-0.015,-0.12375,0.00625,0.0167075,-0.0355525,0.003555,1742107818.400272
0.1025,0.0375,0.06,-0.00142,0.00026,-0.000275,-0.01125,-0.1175,0.04375,-0.0121,0.025162501,0.0018775001,1742107818.514266
0.10375,0.03375,0.06125,0.0009775,0.00045750002,0.000305,-0.00875,-0.13,-0.02875,-0.00116,0.019072501,-0.00154,1742107818.630002
0.1075,0.02625,0.05625,-0.0063625,0.0010075001,-0.0010825,-0.00125,-0.1275,-0.03125,-0.0042275,-0.01184,0.0026099999,1742107818.750311
0.10125,0.0425,0.065,4.5e-05,-0.0020299999,0.000365,-0.04875,-0.12,0.06,0.0127875,-0.0168,-0.000305,1742107818.856364
0.10375,0.03625,0.06,0.00026,-0.0001375,-0.000245,-0.01125,-0.115,-0.01875,-0.0081025,0.0310825,0.002655,1742107818.9703639
0.10125,0.0425,0.06125,0.002885,-0.00035,-0.0013275,-0.0025,-0.1275,-0.03,-0.0054025003,-0.0019525,0.0018475,1742107819.089236
0.1025,0.035,0.06,0.002075,-0.000107500004,0.001115,-0.01125,-0.11875,-0.0125,0.013015,-0.03807,-0.0020599999,1742107819.198445
0.1025,0.03625,0.05875,-0.00052,0.00023,-0.0005025,-0.015,-0.12125,-0.01,0.0077675,0.034849998,-0.0022574998,1742107819.312358
0.1,0.0325,0.065,0.0003975,-0.0001825,7.75e-05,-0.00125,-0.135,-0.05125,-0.00473,0.0093375,0.0025175,1742107819.430325
0.105,0.02875,0.055,-0.0007025,0.00116,0.000305,-0.00375,-0.115,-0.0175,0.0030675002,-0.028182501,0.0010225,1742107819.540351
0.10375,0.0375,0.06125,-0.00032,0.0006725,9.25e-05,-0.01,-0.12125,0.055,-0.00644,0.026397498,0.0020899998,1742107819.6542552
0.1025,0.035,0.06125,-0.0001225,-0.0004125,0.000107500004,-0.01125,-0.125,-0.03,0.00055,0.02336,-0.0013725,1742107819.770318
0.10625,0.02875,0.0625,-0.0044250004,0.0022274998,-0.0023800002,-0.0025,-0.125,-0.02875,-0.0063775,0.00029,0.00061,1742107819.882259
0.1025,0.0425,0.06125,-0.0009625,0.0,-9.25e-05,-0.005,-0.12,-0.0175,0.013825,-0.043975,-0.00229,1742107819.996353
0.105,0.035,0.05625,0.0001525,0.00079250004,-0.00048750002,-0.015,-0.13875,-0.00375,0.000855,0.0328525,-0.0025625,1742107820.110292
0.10125,0.03375,0.0625,0.0003975,-0.0001225,-4.5e-05,-0.0025,-0.13875,-0.04,-0.0058449996,0.010575,0.00296,1742107820.230409
0.105,0.0275,0.04375,-0.0031424998,0.0087749995,-0.0021975,-0.00125,-0.12125,-0.02625,-4.5e-05,-0.0202325,0.00267,1742107820.3384829
0.11125,0.0325,0.0425,-0.001465,0.0044549997,0.000107500004,-0.0425,-0.15625,0.1025,0.0099949995,-0.024705,-0.0003975,1742107820.45237
0.11125,0.035,0.04,-0.0060875,-0.0010525,0.00084,-0.01,-0.11375,-0.02625,-0.0016475001,0.0217275,-0.00048750002,1742107820.573866
0.10625,0.0425,0.04375,-0.014755,0.0013125,0.0010975,-0.0025,-0.1275,-0.025,-0.000625,0.000275,0.0016775,1742107820.6803992
0.11125,0.03875,0.03375,-0.0310375,0.001785,0.0047600004,-0.0025,-0.11375,-0.01625,0.006835,-0.0302125,-0.00029,1742107820.794389
0.10875,0.06375,0.0025,-0.0325475,0.00052,0.0054325,-0.005,-0.0975,0.0125,-0.002365,0.0337975,0.0013575,1742107820.910416
0.10375,0.07125,0.0,-0.01445,-0.0041799997,0.003905,-0.00375,-0.12875,-0.04375,-0.0046075,0.013335,-0.0001825,1742107821.022478
0.105,0.06875,0.00125,-0.0101325,-0.0042275,0.0007175,0.0025,-0.1225,-0.02875,-0.004195,-0.0087425,0.0010825,1742107821.1362429
0.1025,0.07375,-0.00125,-0.003845,-0.0013575,0.0012050001,-0.04125,-0.13125,0.03375,0.028212499,-0.038650002,-0.0042425,1742107821.250314
0.1025,0.07125,-0.0025,-0.0015875,-0.000885,0.0003825,-0.00875,-0.11,-0.0275,-0.0034475,0.02153,0.0013125,1742107821.3704078
0.10375,0.07625,-0.00875,-0.006165,-0.0015575,-1.5e-05,0.0,-0.12,-0.03625,-0.0038,0.0009,0.0004125,1742107821.478126
0.10375,0.06625,-0.005,-0.0015725,0.0004425,0.0012050001,0.0,-0.115,-0.03,0.014527501,-0.0361625,-0.0042725,1742107821.592254
0.1025,0.0725,-0.00375,-0.0012050001,-0.000365,0.0002125,-0.01375,-0.1325,-0.01625,-0.00084,0.02475,0.000275,1742107821.71062
0.10125,0.0775,-0.0025,0.000365,0.000245,4.5e-05,-0.005,-0.12375,-0.045,-0.005265,0.0045775,0.0022125002,1742107821.820256
0.10375,0.06375,-0.00375,0.00058,0.00029,-0.000535,-0.0025,-0.11875,-0.0325,0.0039224997,-0.016097499,-0.00026,1742107821.934378
0.1025,0.0675,-0.0025,0.00052,-0.00055,7.75e-05,-0.04625,-0.1525,0.07375,-0.0033575,-0.0120075,0.00087,1742107822.053222
0.1025,0.07125,-0.0025,-0.000245,-9.25e-05,0.00023,-0.0075,-0.10875,-0.02375,-0.0090475,0.0190425,0.00502,1742107822.162266
0.10375,0.07375,-0.01,-0.0063175,-0.002335,-0.00091500004,-0.00125,-0.11875,-0.0275,-0.00348,0.00148,0.00061,1742107822.276242
0.10625,0.065,-0.0125,-0.0239725,-0.0087575,0.0061950004,-0.00375,-0.13125,-0.03,-0.002305,-0.0216825,0.0015575,1742107822.390461
0.09625,0.0825,-0.00875,-0.0139475,-0.0066225,0.0038299998,-0.0075,-0.095,0.00875,-0.010162501,0.025940001,0.003205,1742107822.511473
0.1,0.07625,-0.0175,-0.019775,-0.0029000002,-0.0025625,-0.0075,-0.125,-0.035,0.0029000002,0.0201575,0.00026,1742107822.618145
0.1025,0.06375,-0.01625,-0.0077525,-0.0062725,-0.0043025,0.00375,-0.12625,-0.05125,-0.0034625002,-0.0056925,0.0018,1742107822.7322571
0.10125,0.0725,-0.01875,-0.00354,-0.00058,-0.00032,-0.00625,-0.1125,-0.02,0.0190425,-0.057175,-0.0060425,1742107822.850637
0.1025,0.06875,-0.02125,-0.001785,0.000107500004,-0.001115,0.0025,-0.12625,-0.005,-0.0110174995,0.0326075,0.0051424997,1742107822.9601762
0.09625,0.0825,-0.035,-0.0024249998,0.0024100002,0.0019675,0.005,-0.12125,-0.03375,-0.008712499,0.0048225,0.0022574998,1742107823.074403
0.10625,0.05875,-0.02125,-0.0016325001,0.0010825,3e-05,0.00125,-0.1225,-0.0325,-0.0018150001,-0.024445,0.00091500004,1742107823.190559
0.10375,0.0675,-0.02125,-0.0004125,-0.00084,0.00035,-0.005,-0.1425,0.1075,0.0048225,0.005935,0.0018300001,1742107823.302102
0.10375,0.06625,-0.02125,-0.00122,0.000245,-0.0012975,-0.0125,-0.115,-0.025,0.0028074998,0.0289775,-0.00116,1742107823.416353
0.10375,0.0625,-0.02,0.0015575,-0.0047925,-0.0042575,0.01125,-0.12875,-0.05,-0.0033425,-0.0119175,0.004165,1742107823.532199
0.105,0.06875,-0.02125,-0.001115,0.0009,0.00016750001,-0.06625,-0.12875,0.105,0.0178675,-0.04831,-0.005295,1742107823.650817
0.10375,0.06625,-0.02,0.0007325,-0.00055,0.000305,-0.00625,-0.11,-0.005,-0.0083925,0.0364375,0.000825,1742107823.758145
0.105,0.07875,-0.02,0.0051125004,-0.00061,-0.0009925,0.00375,-0.12625,-0.02875,-0.00911,0.005065,0.0024100002,1742107823.8720698
0.105,0.065,-0.01875,0.0001375,0.0010375,0.0012825,-0.005,-0.12375,-0.01,0.01236,-0.047105,0.000365,1742107823.990016
0.10375,0.06875,-0.01875,9.25e-05,0.0001375,0.00029,-0.01375,-0.08,-0.005,0.0004125,0.0348825,-0.001725,1742107824.100112
0.10375,0.0675,-0.01875,0.0008075,0.0006725,0.000245,-0.0025,-0.13125,-0.0325,0.00299,0.035155,-0.00151,1742107824.2141309
0.1075,0.06125,-0.00625,0.0033275,-0.003845,0.0007475,0.005,-0.13,-0.0375,-0.008835,-0.0105125,0.0018150001,1742107824.330681
0.1025,0.07375,-0.01625,-0.000107500004,4.5e-05,0.0018300001,-0.00125,-0.1225,-0.02125,0.01851,-0.054765,-0.0034325,1742107824.450005
0.1025,0.07125,-0.015,0.0001525,-0.0004275,0.000655,-0.01,-0.1425,0.0025,0.0048975,0.0372325,0.00348,1742107824.5559978
0.1,0.07375,-0.0225,0.00052,0.0005025,0.00122,-0.0,-0.12625,-0.04375,-0.01262,0.0110325,0.001435,1742107824.6705751
0.1025,0.0675,-0.0075,0.0024575,-0.00061,-0.000305,-0.005,-0.1175,-0.01875,0.0081025,-0.0464325,-0.0021675,1742107824.7909272
0.10125,0.07375,-0.0125,-0.00032,7.75e-05,0.0007475,-0.01375,-0.08625,0.0375,-0.0025325,0.032975,-0.0013275,1742107824.898176
0.10125,0.07125,-0.01125,0.0001525,-0.00052,0.0004125,-0.02,-0.11875,-0.01625,0.008909999,0.04947,-0.0025025,1742107825.01217
0.10375,0.0675,-0.00375,-0.0001375,-0.0042275,-0.0023800002,0.0025,-0.14375,-0.0725,-0.0052024997,-0.01831,0.00293,1742107825.130799
0.1025,0.07375,-0.015,0.0005025,0.00079250004,0.001465,-0.0225,-0.13875,-0.005,-0.00032,-0.071394995,-0.00592,1742107825.240395
0.10125,0.075,-0.01125,0.0001375,-0.000945,0.0002125,-0.01875,-0.125,0.025,0.0106975,0.042404998,-0.0074475002,1742107825.3540711
0.095,0.0825,-0.02,0.000825,0.001725,0.0012825,-0.00375,-0.135,-0.05,0.0020150002,0.012802499,-0.0042875,1742107825.4702568
0.10625,0.06,-0.00875,-0.00026,0.000107500004,-0.000305,-0.025,-0.12375,-0.005,0.0104375,-0.06479,0.0041199997,1742107825.589396
0.1,0.0775,-0.0075,0.0007475,-0.0001525,0.00079250004,-0.0225,-0.09,0.0175,0.00229,0.0292975,-0.0045025,1742107825.695967
0.1,0.07375,-0.00875,-4.5e-05,0.0003975,-0.000365,-0.025,-0.11875,-0.01875,0.0016625,0.0423425,-0.0030375,1742107825.810977
0.1025,0.0725,-0.00375,0.001755,-0.00148,-0.0009,-0.01,-0.13,-0.0475,-0.00377,-0.02884,0.0099475,1742107825.9303958
0.10125,0.07125,-0.0075,0.000275,-0.0001825,6e-05,-0.065,-0.12375,0.06625,-0.015565,-0.0534975,0.0016475001,1742107826.038052
0.1025,0.07125,-0.00875,-1.5e-05,-0.0001225,-0.0004425,-0.0075,-0.13125,0.0125,-0.00821,0.0485075,0.0001375,1742107826.1519969
0.105,0.07625,-0.01375,0.00026,0.0001975,-0.00048750002,0.0025,-0.13375,-0.02625,-0.0010975,-0.0024100002,0.0013275,1742107826.271256
0.10375,0.0675,-0.0075,-0.001495,0.0003975,0.0005025,-0.01375,-0.11875,0.00375,0.0096275,-0.0559225,0.003525,1742107826.380008
0.10125,0.075,-0.0075,-0.000365,-1.5e-05,-9.25e-05,-0.02,-0.1325,0.02875,-0.013885,0.051925,-0.01181,1742107826.494142
0.0975,0.07875,-0.01625,0.0009625,0.00091500004,0.0007625,0.01,-0.0975,0.03,0.0113825,0.012665,-0.001235,1742107826.611222
0.105,0.0625,-0.005,-0.00171,0.0012675,-0.0001375,-0.02125,-0.125,0.01875,0.045135,-0.0561225,0.019469999,1742107826.722112
0.10125,0.07375,-0.00625,-0.00032,-4.5e-05,-0.0007625,-0.0225,-0.07625,0.04375,-0.014587499,0.03659,-0.0021199998,1742107826.836182
0.1025,0.07125,-0.0075,-0.0001375,0.0001375,0.0006725,-0.01375,-0.12375,0.00125,-0.003845,0.030792499,-0.00534,1742107826.950906
0.10125,0.0725,-0.00125,0.0009775,-0.0013425,-0.000535,0.00375,-0.1225,-0.02,0.02301,-0.0341175,0.0104225,1742107827.064075
0.10125,0.0725,-0.0075,0.000275,-0.0001975,4.5e-05,-0.03125,-0.1375,0.145,-0.01834,-0.0045625,0.005265,1742107827.17808
0.1025,0.07125,-0.00625,-3e-05,-0.0001225,6e-05,-0.02,-0.1275,0.0025,-0.01941,0.051835,0.002135,1742107827.291998
0.105,0.075,-0.01,-0.000855,-0.0024575,-0.0013875001,0.00625,-0.13875,-0.04,-0.0051875,-0.003905,0.00357,1742107827.410717
0.10125,0.075,-0.0075,-0.0004275,0.0007775,0.001175,-0.01125,-0.135,-0.0025,0.027175,-0.0664675,0.0034025,1742107827.520076
0.1025,0.07375,-0.0075,-0.000107500004,-0.00029,-3e-05,-0.015,-0.13625,0.02625,-0.0104825,0.0533,-0.0028675,1742107827.634072
0.0975,0.0825,-0.015,0.00142,0.0016925,0.0015875,-0.0,-0.14125,-0.04,-0.00389,0.01068,-0.0022574998,1742107827.75089
0.105,0.0625,-0.00625,-0.0005025,0.0009625,-0.0004425,-0.005,-0.11625,-0.0175,0.016844999,-0.0552975,0.00045750002,1742107827.862071
0.10125,0.075,-0.005,-0.00029,4.5e-05,-6e-05,-0.01375,-0.08875,0.03375,-0.0270375,0.0234225,-0.0045025,1742107827.9759989
0.10125,0.07375,-0.00625,-0.000245,0.00026,0.0006875,-0.0075,-0.11125,-0.0125,-0.00531,0.031462498,-0.0029449998,1742107828.090144
0.10375,0.0725,-0.0,0.000655,-0.0024425,-0.0015575,0.0075,-0.12375,-0.02875,0.01068,-0.0173025,0.0015575,1742107828.211021
0.1025,0.0725,-0.00625,0.0010375,-0.00035,-9.25e-05,-0.0275,-0.13875,0.12625,-0.00534,-0.0025175,0.0016025,1742107828.318027
0.1025,0.07125,-0.00375,-0.0001825,-0.0004425,0.0004425,-0.0075,-0.12375,0.01375,-0.0119775,0.040985,0.0022725,1742107828.431909
0.1025,0.08,-0.01,-0.0010675,-0.0030675002,-0.0021825,-0.0025,-0.13375,-0.03125,-0.0018,0.0151375,-0.0062100003,1742107828.546083
0.1025,0.07375,-0.0025,-0.0016025,0.0007175,0.0005025,-0.01125,-0.12,-0.01375,0.0121,-0.046860002,0.0039525,1742107828.660098
0.10125,0.075,-0.005,-0.00052,-1.5e-05,-1.5e-05,-0.01625,-0.0925,0.03,-0.01651,0.0260475,-0.0030825,1742107828.773966
0.10125,0.0725,-0.0025,0.0,-1.5e-05,0.0001825,-0.01375,-0.1225,-0.02625,-0.002075,0.0249625,-0.008485,1742107828.8907552
0.1025,0.06875,0.00125,0.000365,-0.000655,-0.00079250004,-0.00875,-0.12875,-0.03875,0.0007025,-0.021195,0.0024425,1742107829.0019772
0.1025,0.0725,-0.0025,0.0007025,-0.000245,3e-05,-0.04875,-0.14125,0.04875,0.0163575,-0.0398875,0.0042875,1742107829.115985
0.1025,0.07125,-0.0025,9.25e-05,6e-05,0.0001225,-0.01875,-0.1275,-0.01,-0.0163725,0.03827,-0.005265,1742107829.230616
0.10125,0.07625,-0.00875,-0.00061,-0.00023,-0.00116,-0.015,-0.1325,-0.04125,-0.0060875,0.0007175,-0.0009,1742107829.350849
0.1025,0.07,-0.0025,-0.0013275,0.0007025,0.00035,-0.0225,-0.11875,-0.01375,0.0047150003,-0.043975,0.00702,1742107829.4580622
0.1025,0.0725,-0.0025,-0.0001375,-7.75e-05,-0.0001375,-0.02125,-0.1225,0.01125,-0.0015725,0.036895,-0.0075075002,1742107829.574154
0.10125,0.07375,-0.00375,0.00023,0.000275,9.25e-05,-0.01125,-0.1275,-0.03125,-0.02324,0.033265,-0.0039224997,1742107829.690579
0.105,0.06125,0.00125,0.001465,-0.0004125,-0.0003825,-0.01625,-0.12375,-0.0225,0.00357,-0.0419625,0.01303,1742107829.799941
0.10125,0.07375,-0.00125,-0.00033500002,-9.25e-05,-0.0001975,-0.045,-0.1425,0.125,-0.000365,-0.00531,0.0042275,1742107829.9139788
0.1025,0.06875,-0.0025,-0.000305,0.00023,0.0001375,-0.02625,-0.11875,-0.01375,-0.022475,0.0470125,-0.003005,1742107830.0325801
0.10125,0.0775,-0.005,-7.75e-05,-0.0024100002,-0.001405,-0.00375,-0.13375,-0.02875,0.000275,-0.0090625,0.0032650002,1742107830.142004
0.1025,0.07625,-0.0025,-0.00055,0.0013875001,0.001405,-0.025,-0.13125,-0.0075,0.0255275,-0.0576925,0.005905,1742107830.255892
0.1025,0.0725,-0.0025,-0.00032,-0.000305,-0.00023,-0.01375,-0.13875,0.0075,0.0183875,0.036605,-0.001175,1742107830.370559
0.09875,0.08,-0.0075,0.00122,0.0007775,0.000365,-0.00375,-0.11875,-0.0275,0.0071875,0.0251925,-0.0030525,1742107830.491217
0.10625,0.06,0.0025,0.000535,0.0001225,-0.0007175,-0.01125,-0.12625,-0.0275,0.003235,-0.0463875,0.00502,1742107830.598038
0.10125,0.07375,-0.00125,-0.00026,0.00016750001,0.00029,-0.04,-0.12625,0.13,-0.016755,0.0146625005,0.0034625002,1742107830.7118511
0.1025,0.07,-0.0,-0.000305,-0.000107500004,-0.00032,-0.0275,-0.11375,-0.01125,-0.0273425,0.05548,-0.00856,1742107830.830809
0.10125,0.07625,-0.00125,-0.000107500004,-0.002075,-0.0013425,0.0025,-0.1375,-0.035,0.0007325,-0.0169525,0.0022725,1742107830.9398851
0.1025,0.075,-0.0025,-1.5e-05,0.0010225,0.0014500001,-0.03625,-0.14125,-0.0075,0.01291,-0.077377506,0.00525,1742107831.053986
0.10375,0.07125,-0.0025,-0.00045750002,-0.0001525,-0.00023,-0.01375,-0.14,0.0125,0.0130475,0.041855,-0.0074299998,1742107831.1699069
0.1,0.07625,-0.01375,6e-05,0.0010675,-0.000305,-0.01375,-0.12875,-0.0275,0.012069999,0.009185,-0.0042425,1742107831.281897
0.10625,0.0575,0.005,-0.0010075001,0.00125,-0.000365,-0.02375,-0.12375,-0.00375,0.022049999,-0.060227502,0.0113375,1742107831.3959901
0.10125,0.07375,-0.00125,-0.000245,0.0006725,0.000305,-0.0225,-0.09625,0.0125,0.022950001,0.033294998,-0.0080575,1742107831.511785
0.1025,0.07125,-0.0,4.5e-05,6e-05,0.0,-0.0175,-0.12125,-0.01625,0.00016750001,0.0290675,-0.0053875,1742107831.631212
0.105,0.0625,0.0075,0.0022574998,-0.0027625,-0.0013575,-0.01875,-0.13,-0.0275,-0.0048525,-0.035325002,0.00554,1742107831.738028
0.1025,0.0725,-0.00125,0.00032,6e-05,0.0003825,-0.02875,-0.12125,0.105,-0.020004999,0.010085,-0.0005025,1742107831.851857
0.10375,0.07,-0.00125,0.000107500004,-0.00029,-0.00023,-0.0225,-0.12875,-0.00625,-0.0057525,0.033462502,-0.0019675,1742107831.97022
0.10125,0.075,-0.00125,0.00064,-0.0016475001,-0.00079250004,-0.01375,-0.145,-0.02375,0.0018,-0.015029999,0.0081775,1742107832.07985
0.1025,0.075,-0.0,-0.00116,9.25e-05,0.0010825,-0.05625,-0.1025,0.09625,0.0065625,-0.0358275,0.004485,1742107832.193773
0.10375,0.07125,-0.00125,1.5e-05,0.00035,-0.000275,-0.00375,-0.1325,0.00375,0.0057825,0.02034,0.0034625002,1742107832.310994
0.105,0.075,-0.00875,-0.00055,-0.0006875,-0.0010075001,-0.0075,-0.13375,-0.01875,0.00084,0.01332,0.0018,1742107832.421762
0.10375,0.07,0.00375,-0.0007775,0.0008075,0.0004725,0.0,-0.12125,-0.01625,0.0071575,-0.0325175,0.00708,1742107832.535918
0.1025,0.07375,-0.0025,-0.0004425,0.0004425,-0.0004125,0.00125,-0.1225,0.00375,0.0154425,0.0101775,-0.00125,1742107832.65098
0.10375,0.07,0.0025,0.00035,-0.00029,0.00052,-0.0075,-0.12,-0.0025,-0.0045475,0.032424998,-0.0039525,1742107832.770848
0.105,0.06,0.00875,0.0006725,-0.0030525,-0.00113,0.00375,-0.14625,-0.0375,-0.0009925,-0.0047,0.0016025,1742107832.877853
0.10125,0.075,0.00125,0.0002125,0.00093,0.000855,-0.01625,-0.1275,-0.00125,0.0056775,-0.054810002,0.00091500004,1742107832.991839
0.10375,0.07,0.00125,7.75e-05,-0.0009,-0.000305,-0.00625,-0.13875,0.01125,0.00731,0.031432502,0.0013875001,1742107833.110979
0.09875,0.08,-0.00625,0.0009625,0.00093,0.00084,0.00125,-0.13125,-0.02625,0.000365,0.014755,-0.003005,1742107833.2198029
0.10625,0.06,0.00625,-0.0010075001,0.00048750002,-4.5e-05,-0.00375,-0.12,-0.01,0.0051875,-0.037352502,0.0009,1742107833.333781
0.1025,0.07125,0.0025,-6e-05,0.0004125,0.00023,-0.01375,-0.08,0.02125,-0.021514999,0.025084998,-0.0004275,1742107833.4504771
0.1025,0.0725,0.00375,-3e-05,0.0001375,0.0001825,-0.0025,-0.11875,-0.00875,-0.00061,0.0329125,-0.0020899998,1742107833.561874
0.10375,0.06875,0.00625,-0.00045750002,-0.003815,-0.0019075,0.0075,-0.1275,-0.04125,-0.00174,-0.015319999,0.00389,1742107833.67576
0.1025,0.075,0.0025,0.0010675,0.0010075001,0.0010525,-0.0425,-0.14,0.05375,0.014297499,-0.049072497,-0.0010375,1742107833.790863
0.1025,0.0725,0.0025,-6e-05,-0.0004275,-0.0001525,-0.02,-0.10625,0.00875,-0.0205225,0.040755,-0.00528,1742107833.910586
0.1,0.08,-0.00125,0.0014500001,0.0016625,0.0009925,-0.00125,-0.13875,-0.03125,-0.0033275,0.0133675,-0.0051875,1742107834.0178618
0.10375,0.065,0.0025,-0.00151,0.0016775,0.0007175,-0.01875,-0.1225,-0.0175,0.016602501,-0.059997503,0.006515,1742107834.131747
0.1025,0.07125,0.0025,-1.5e-05,0.0003825,-0.0004275,-0.0225,-0.105,0.02875,-0.012405,0.03598,-0.006835,1742107834.251298
0.1025,0.07125,0.005,0.0003825,0.00079250004,0.0004425,-0.005,-0.13875,-0.04,-0.00415,0.0176075,-0.00087,1742107834.3598368
0.1025,0.07125,0.01,0.0058899997,0.001435,-0.0003975,-0.00875,-0.1175,-0.0125,-0.0019525,-0.03183,0.00142,1742107834.4738948
0.10375,0.06625,0.0025,0.006255,0.0025175,0.00023,-0.02125,-0.1075,0.06,-0.0150150005,0.022444999,-0.0010525,1742107834.5896032
0.1025,0.0725,0.00375,4.5e-05,0.0004275,0.0,-0.00875,-0.1225,-0.01125,-0.009292499,0.0207525,-0.0027774998,1742107834.701885
0.1025,0.07375,0.00375,-0.00026,-0.0018300001,-0.0010975,-0.0125,-0.12625,-0.0025,-0.00537,0.0022725,-0.0013275,1742107834.8158631
0.10375,0.075,-0.0,0.000565,0.00151,0.0004125,-0.03125,-0.13875,-0.00875,0.013412501,-0.0473175,0.0057525,1742107834.9304261
0.10375,0.0725,0.00125,0.0,-0.0001225,-0.0001825,-0.02,-0.1325,0.0075,0.00029,0.026765,-0.0034949998,1742107835.043692
0.1025,0.07375,0.0025,0.000107500004,0.000107500004,-0.00016750001,-0.01125,-0.1375,-0.02625,0.000945,0.0083475,-0.0004425,1742107835.157774
0.105,0.05875,0.01,0.003175,-0.0009925,-0.000945,-0.02625,-0.13125,-0.0275,0.0022274998,-0.0632325,0.00792,1742107835.27177
0.10375,0.06875,0.0025,-0.0004725,-0.0002125,4.5e-05,-0.02125,-0.12375,-0.01125,0.01709,0.0269175,-0.0025025,1742107835.390788
0.10375,0.06875,0.0025,0.000365,0.00016750001,-0.00023,0.0075,-0.1025,-0.0225,-0.00978,0.0337975,-0.003555,1742107835.499777
0.10875,0.06625,0.0175,0.0078275,-0.0065300004,-0.0018625,-0.00125,-0.125,-0.03125,0.0064850003,-0.032485,0.002045,1742107835.613765
0.105,0.0675,0.0025,0.00087,0.0009925,0.0009,-0.06,-0.17625,0.1575,-0.0107425,-0.0039525,0.0058125,1742107835.730421
0.105,0.07,0.00375,4.5e-05,-0.000365,4.5e-05,-0.02,-0.1125,-0.01375,-0.015885001,0.0387425,-0.0051275003,1742107835.8417768
0.10625,0.0725,-0.005,-0.0018925001,0.00059500005,-0.00116,-0.00375,-0.12625,-0.01,0.00293,0.00091500004,-0.0004725,1742107835.9557052
0.105,0.06875,0.00375,-0.0020299999,0.0023800002,0.00061,-0.0325,-0.13125,-0.02375,0.020355,-0.06591751,0.004165,1742107836.0740638
0.105,0.0675,0.005,-0.00032,0.0004275,0.0001375,-0.02,-0.125,-0.00875,0.0133525,0.028397499,-0.0048825,1742107836.1905868
0.10375,0.07,0.00375,-0.00026,0.000245,-0.0001525,-0.005,-0.115,-0.035,-0.00348,0.0189525,-0.000885,1742107836.297769
0.1075,0.05375,0.0125,0.0039825,-0.0042875,-0.00174,-0.02375,-0.13125,-0.0275,0.0033275,-0.046630003,0.0030375,1742107836.41168
0.10375,0.07,0.00375,-6e-05,-0.00026,0.00058,-0.02125,-0.0625,0.03125,-0.0036324998,0.0305325,-0.00882,1742107836.5325031
0.10375,0.06875,0.00375,4.5e-05,-0.000245,0.0001225,-0.01,-0.1225,-0.03625,-0.0068825004,0.0319375,-0.0036,1742107836.63977
0.1025,0.0775,0.0125,0.00389,-0.005325,-0.0007325,-0.00375,-0.1225,-0.0225,-0.00351,-0.016082501,0.0050975,1742107836.753749
0.10375,0.075,0.00375,0.000825,0.0020899998,0.001235,-0.06,-0.1375,0.05625,0.017944999,-0.030425,0.0033875,1742107836.8705962
0.105,0.06875,0.0025,-0.00052,0.0001225,-9.25e-05,-0.02375,-0.11125,0.00375,-0.017350001,0.040572498,-0.00328,1742107836.981694
0.10375,0.0725,-0.0025,0.0005025,0.00029,-0.00059500005,-0.00875,-0.1275,-0.015,-0.001115,0.00377,0.0021675,1742107837.095689
0.1075,0.05625,0.00625,-0.0020599999,0.0021675,-0.0001975,-0.0325,-0.135,-0.035,0.038680002,-0.0664975,0.0052024997,1742107837.210061
0.105,0.06625,0.0075,0.0001375,-0.000107500004,7.75e-05,-0.025,-0.12875,0.02625,0.0048074997,0.042755,0.0037525,1742107837.330527
0.105,0.06875,0.005,-0.0004725,-0.0001225,0.0003975,-0.0,-0.12875,-0.05875,-0.0003825,0.009185,-0.0029449998,1742107837.4378219
0.1075,0.05375,0.01625,0.0054475004,-0.0051125004,0.00032,-0.02125,-0.11125,-0.025,-0.0060425,-0.040665,0.00142,1742107837.553333
0.105,0.0675,0.0075,-0.0005025,-0.00055,0.0008075,-0.0225,-0.08625,0.0,-0.0099475,0.027055,-0.0019675,1742107837.670868
0.1025,0.0725,0.00625,0.00055,0.0001225,0.00055,-0.0075,-0.13,-0.0525,-0.006745,0.030594999,0.0019675,1742107837.779669
0.10375,0.07125,0.01125,0.0016325001,-0.003815,-0.00122,0.0,-0.12125,-0.02875,-0.00673,-0.01271,0.0004275,1742107837.895906
0.10375,0.075,0.00625,0.00061,0.00045750002,0.0012975,-0.045,-0.13875,0.03,0.019745002,-0.0434125,-0.0004425,1742107838.011302
0.10375,0.07,0.00625,-0.0004125,0.0001225,0.0001525,-0.01875,-0.1175,-0.00625,-0.010955,0.0345,0.0021199998,1742107838.121652
0.1,0.08,0.0025,0.0016325001,0.00064,-6e-05,-0.005,-0.12875,-0.02875,-0.0022274998,-0.000305,-0.00033500002,1742107838.23578
0.10875,0.0525,0.0125,-0.0012675,0.0015725,-0.00048750002,-0.025,-0.13375,-0.01375,0.0176075,-0.055970002,0.0028225,1742107838.350488
0.10375,0.07,0.00625,-0.000305,0.0001225,0.0007475,-0.01,-0.15,-0.01,0.0198525,0.035217497,0.00232,1742107838.470151
0.10375,0.07,0.00875,0.0,-0.00032,-6e-05,-0.0025,-0.13375,-0.05375,-0.001145,0.0066975,-0.00177,1742107838.5776849
0.1075,0.05875,0.01875,0.00467,-0.0047925,-0.0007475,-0.01625,-0.12125,-0.01875,0.00618,-0.0496975,0.00045750002,1742107838.691597
0.10375,0.07,0.00875,-0.00035,0.0001975,0.0008075,-0.0175,-0.09125,-0.02,0.008315,0.0319375,-0.0042425,1742107838.810287
0.10375,0.07,0.00625,0.00035,-0.000275,9.25e-05,-0.00625,-0.12,-0.0375,0.0040425,0.0266125,-0.0039975,1742107838.91961
0.10375,0.07125,0.01375,0.00142,-0.00354,-0.0013875001,-0.01625,-0.115,-0.04,-0.00171,-0.036314998,-0.0019225,1742107839.033783
0.10375,0.07375,0.0075,0.00084,0.0007325,0.001175,-0.0525,-0.13375,0.10875,0.0040749996,-0.019012501,0.0054925,1742107839.1506062
0.105,0.06875,0.005,-9.25e-05,0.00026,-0.00016750001,-0.025,-0.13,-0.0075,-0.016967501,0.0469525,-0.0046375,1742107839.261718
0.105,0.07,-0.00125,-0.000885,0.001235,-0.0013125,-0.0175,-0.14125,-0.03625,-0.0025625,-0.0045475,0.0016175,1742107839.375668
0.105,0.05875,0.01125,-0.00079250004,0.0021675,-0.0007025,-0.02875,-0.12125,-0.01625,0.0047925,-0.0775,0.012635,1742107839.4904552
0.105,0.0675,0.0075,-7.75e-05,0.00052,-0.0001375,-0.0125,-0.14,0.00375,0.022629999,0.0361025,-0.00084,1742107839.610611
0.10375,0.06875,0.0075,-4.5e-05,0.00026,-1.5e-05,-0.0075,-0.12875,-0.0425,0.003555,0.0187525,-0.0011900001,1742107839.717581
0.1075,0.05625,0.02,0.004365,-0.0037525,-0.0008075,-0.0225,-0.1275,-0.00875,0.00016750001,-0.05455,0.0065,1742107839.831548
0.105,0.06875,0.005,6e-05,0.00033500002,0.0004425,-0.0225,-0.08125,0.0275,0.00229,0.0370325,-0.0077525,1742107839.949842
0.105,0.065,0.0075,0.0001825,-0.00061,-3e-05,-0.02,-0.1175,-0.0225,0.0004125,0.0396875,-0.00125,1742107840.059561
0.10375,0.07625,0.00875,0.0027474998,-0.003585,-0.00033500002,-0.0075,-0.13375,-0.065,-0.004945,-0.02475,0.0026099999,1742107840.1736472
0.105,0.07,0.00625,0.0002125,0.0019675,0.0009925,-0.05625,-0.12375,0.13375,0.0051424997,-0.014007499,0.00079250004,1742107840.2902899
0.10625,0.06875,0.005,-0.00055,9.25e-05,-0.00023,-0.02375,-0.125,-0.01,-0.008605,0.0514525,-0.0069724997,1742107840.401658
0.105,0.06875,-0.0025,-0.00113,0.00116,-0.0009625,-0.01625,-0.1325,-0.025,-0.0057075,0.001725,-0.00566,1742107840.5156438
0.1075,0.06,0.00875,-0.0009925,0.0024100002,-1.5e-05,-0.02875,-0.11625,-0.00125,0.009965,-0.052017502,0.0057675,1742107840.630888
0.105,0.0675,0.0075,-0.00032,0.00032,-0.00016750001,-0.03,-0.10125,0.00125,-0.010757499,0.033630002,-0.005325,1742107840.750412
0.105,0.06625,0.01,-3e-05,-6e-05,0.000245,-0.02,-0.13125,-0.03625,0.0063625,0.01625,-0.0001525,1742107840.857546
0.10375,0.0675,0.01,0.0013275,-0.0019525,-0.0007025,-0.02,-0.1175,-0.03,-0.0121775,-0.0372775,0.0066075,1742107840.971576
0.105,0.07,0.0075,0.00061,-0.0001525,0.00023,-0.0325,-0.08875,0.05875,-0.017715,0.0305325,-0.0039525,1742107841.089045
0.105,0.06625,0.00875,-0.0001825,-0.0001525,0.0001375,-0.01625,-0.11875,-0.02125,-0.00528,0.0274975,-0.00059500005,1742107841.199591
0.105,0.07375,0.00625,0.000305,-0.0012975,-9.25e-05,-0.0125,-0.13,-0.02875,0.0003825,-0.0140375,0.00091500004,1742107841.313508
0.10625,0.06875,0.0075,-0.0006725,0.001435,0.0007775,-0.03625,-0.1425,0.0875,-0.0072625,-0.0053875,0.0027,1742107841.430193
0.105,0.0675,0.0075,-0.00032,4.5e-05,-0.0001375,-0.0125,-0.125,0.00125,-0.003905,0.0290375,0.001175,1742107841.541378
0.105,0.06875,0.00375,-0.00033500002,0.0007025,-0.00052,-0.01375,-0.1275,-0.02375,-0.0020299999,0.004945,0.00148,1742107841.6554801
0.10625,0.06375,0.0075,-0.0010225,0.001175,-0.0003975,-0.015,-0.12375,-0.0,0.000855,-0.032700002,0.0039525,1742107841.770491
0.105,0.06625,0.0075,7.75e-05,0.00016750001,-0.0004125,-0.01375,-0.09125,0.02125,-0.0128475,0.021637501,-0.0010975,1742107841.89043
0.105,0.06625,0.0075,-0.0001225,4.5e-05,0.00033500002,-0.0125,-0.12,-0.00875,0.000275,0.028442498,-0.00029,1742107841.9975219
0.105,0.06875,0.0075,-0.00058,-0.0016325001,-0.0006875,-0.00125,-0.12625,-0.0275,-0.000855,-0.0180975,0.0051725,1742107842.111567
0.105,0.07125,0.005,0.0007325,0.001235,0.00079250004,-0.01875,-0.12,0.01375,-0.0004125,-0.0351725,-0.0054775,1742107842.230746
0.10625,0.0675,0.0075,-0.0001825,-0.00032,-0.00016750001,-0.00375,-0.1325,-0.005,0.000305,0.027207501,0.00267,1742107842.339367
0.10375,0.07125,0.00625,0.0003825,0.00033500002,-6e-05,0.0025,-0.12125,-0.0425,-0.0024725,0.0013425,-0.000855,1742107842.4534578
0.10625,0.06,0.01375,-0.0006875,0.00016750001,-0.000825,-0.01,-0.1225,-0.0075,0.005325,-0.04123,-0.0038,1742107842.573812
0.10625,0.065,0.0075,-6e-05,0.0001375,-0.0003825,-0.01,-0.13125,-0.00875,0.009734999,0.0234075,0.00045750002,1742107842.681375
0.105,0.06625,0.00875,-0.0001525,0.0002125,0.0001825,-0.00625,-0.12875,-0.02625,-0.00016750001,0.0034475,-0.000945,1742107842.7955651
0.10625,0.0625,0.01375,0.0010525,-0.0015575,-0.0004425,-0.0125,-0.12,-0.02125,-0.007095,-0.025969999,-0.0003825,1742107842.910242
0.105,0.06625,0.01,0.00023,-1.5e-05,0.0001375,-0.01375,-0.1075,0.02125,-0.0078125,0.0192875,1.5e-05,1742107843.0233889
0.10625,0.065,0.0075,0.0002125,-0.0001825,-0.000107500004,-0.0075,-0.12375,-0.02375,0.00351,0.0213475,-0.00045750002,1742107843.137486
0.105,0.06875,0.00625,-0.0010225,-0.00052,-0.000855,-0.0025,-0.12375,-0.02125,-0.0018475,-0.0052024997,0.0013575,1742107843.2516658
0.105,0.07,0.00625,0.00026,0.00091500004,0.0004425,-0.0125,-0.12125,-0.0025,-0.0045324997,-0.04538,0.00026,1742107843.36993
0.10625,0.06625,0.0075,-0.00016750001,6e-05,-0.00016750001,-0.01125,-0.12625,0.00625,0.007355,0.0345,-0.001235,1742107843.479261
0.10625,0.06875,0.005,-0.000535,0.0015875,-0.000305,-0.00625,-0.12875,-0.03375,0.0030975002,0.0131075,-0.00091500004,1742107843.593379
0.1075,0.05875,0.0125,0.002105,-0.001235,-0.000107500004,-0.00875,-0.12,-0.035,-0.001755,-0.028350001,0.0007175,1742107843.7099168
0.10625,0.06625,0.00625,-3e-05,-0.00084,0.0001225,-0.03125,-0.13125,0.08875,0.0031275,-0.008529999,0.0019824998,1742107843.8212821
0.10625,0.06375,0.0075,4.5e-05,-0.0001525,0.000245,-0.00875,-0.12125,-0.02375,-0.0092475,0.029755,0.0004425,1742107843.935589
0.105,0.07,0.00125,0.00045750002,0.00035,-0.00048750002,0.00125,-0.1225,-0.02,-0.0012975,-0.007645,0.0028525,1742107844.052599
0.10875,0.05875,0.01,-0.000945,0.00148,1.5e-05,-0.01125,-0.12625,-0.01125,0.000245,-0.036147498,0.0007625,1742107844.170146
0.10625,0.065,0.0075,-0.0001525,-1.5e-05,-0.00026,-0.00375,-0.12125,-0.01375,0.015395001,0.028045,0.001725,1742107844.277301
0.105,0.0675,0.00875,4.5e-05,0.00026,9.25e-05,-0.0,-0.1225,-0.03625,0.0009925,0.018280001,-0.0007325,1742107844.391375
0.105,0.065,0.01375,0.0018150001,-0.0025325,-0.0003825,-0.0,-0.125,-0.02375,-0.000655,-0.0331575,0.0022725,1742107844.511204
0.10625,0.07,0.005,0.00029,0.000535,0.0003975,-0.0175,-0.1225,0.05125,-0.009292499,0.01085,0.002655,1742107844.619322
0.10625,0.065,0.0075,4.5e-05,-0.0003975,-0.0001825,-0.0025,-0.1125,-0.00875,-0.00299,0.037185002,0.0029000002,1742107844.733397
0.105,0.07,-0.00125,-0.0012050001,0.000565,-0.0010375,0.01125,-0.12125,-0.04625,0.00113,-0.00151,0.00125,1742107844.850101
0.1075,0.06125,0.00875,-0.0010675,0.0025775002,0.00016750001,0.0,-0.11875,-0.02,-0.0057675,-0.0426475,-0.00328,1742107844.9615119
0.10625,0.06625,0.005,-0.00032,0.0001225,-0.0003825,0.00875,-0.1225,-0.02625,0.0062725,0.027055,-0.0004725,1742107845.075273
0.10625,0.065,0.00875,-0.00023,0.00023,0.000365,-0.01,-0.125,-0.02875,0.0051424997,0.0372325,-0.00061,1742107845.1901069
0.10625,0.07375,0.00375,0.00033500002,-0.0022425,-0.0004725,0.00125,-0.14375,-0.0425,0.00302,0.0051574996,0.002715,1742107845.3032808
0.10625,0.0675,0.00625,-0.00035,0.0028225,0.00122,-0.01875,-0.12375,-0.0225,0.00673,-0.06021,0.0033275,1742107845.417421
0.10625,0.06625,0.005,-0.0004125,-0.000245,-0.0003975,-0.00625,-0.1175,-0.015,0.0196075,0.030442499,-0.0016025,1742107845.53182
0.10625,0.06625,0.0075,-9.25e-05,0.00023,0.0001375,-0.0025,-0.13125,-0.03875,0.00734,0.017045,0.0015875,1742107845.649344
0.10625,0.07,0.0075,0.0018,-0.00328,-0.0007775,0.00125,-0.12125,-0.045,-0.003175,-0.043625,0.0036775,1742107845.759274
0.105,0.07125,0.0075,0.0001225,4.5e-05,0.0010075001,-0.00625,-0.0825,0.0225,-0.0038299998,0.0242775,-0.0090175,1742107845.873385
0.10625,0.06625,0.00625,-0.00016750001,-9.25e-05,-1.5e-05,-0.00125,-0.11875,-0.025,-0.00055,0.02864,-0.00093,1742107845.990282
0.10375,0.07,-0.00125,-0.002105,0.0010975,-0.0016775,0.0025,-0.13125,-0.03,-0.0024575,-0.0028225,-0.0007025,1742107846.101433
0.10625,0.0625,0.01,-0.0010675,0.0037850002,0.000825,-0.02125,-0.13125,0.01375,0.0028074998,-0.0533,0.0006875,1742107846.215195
0.10625,0.06625,0.00625,-0.00055,0.00061,-0.0005025,-0.00125,-0.1325,-0.00875,-0.00087,0.0298925,-0.0013725,1742107846.329389
0.10625,0.065,0.01,-4.5e-05,-6e-05,4.5e-05,-0.00625,-0.13125,-0.02375,0.0036775,0.0144650005,-0.0012050001,1742107846.449516
0.1075,0.0575,0.01875,0.0034625002,-0.0039224997,-0.0007325,-0.00125,-0.12875,-0.05,-0.01065,-0.028,0.0024249998,1742107846.5574899
0.10625,0.06875,0.0075,0.0001525,0.0003825,0.0005025,-0.03875,-0.1325,0.1425,-0.0152425,-0.0049125,0.0013575,1742107846.671257
0.10625,0.06375,0.01,0.0007025,-0.0001825,-0.000945,-0.00625,-0.115,-0.005,-0.018492501,0.031585,-0.0039525,1742107846.7901702
0.10625,0.07125,0.0075,0.0012050001,0.0016025,-0.00026,-0.00625,-0.13125,-0.0175,-0.0027774998,0.010575,-0.0001225,1742107846.899384
0.11,0.05125,0.01375,-0.0001975,0.001235,-0.00079250004,-0.00625,-0.12375,-0.02625,0.0074299998,-0.041702498,0.0074775,1742107847.013255
0.1075,0.0625,0.00625,0.0004275,0.00122,-7.75e-05,-0.02125,-0.1075,0.04,-0.028717501,0.05037,-0.00351,1742107847.1297522
0.10875,0.05875,0.00625,0.0058449996,0.001785,-0.00055,-0.01375,-0.1075,0.04,-0.08194,0.0425575,-0.0349725,1742107847.24128
0.10875,0.06125,-0.00375,-0.003175,1.5e-05,-0.002715,-0.0075,-0.04875,0.1125,-0.040025003,0.0119925,-0.0231325,1742107847.3552861
0.10875,0.06,0.00875,-0.0025775002,0.0048674997,6e-05,-0.005,-0.04375,0.11125,0.0018,0.005645,-0.0078724995,1742107847.469884
0.10875,0.06,0.00375,0.0002125,0.0013875001,0.0004725,-0.01125,-0.045,0.1125,0.0009775,-0.0034475,-0.0007325,1742107847.589319
