L-AccX,L-AccY,L-AccZ,L-GyrX,L-GyrY,L-GyrZ,R-AccX,R-AccY,R-AccZ,R-GyrX,R-GyrY,R-GyrZ,timestamp
0.0,-0.14,1.43,16.72,-18.19,5.92,0.25,0.95,0.29,1.34,-8.61,2.93,1742259951.4864151
-0.69,0.99,2.06,-347.35,369.75,-169.01,0.3,1.01,0.16,14.16,-5.43,-7.87,1742259951.599421
-0.19,0.24,-0.88,-146.36,171.33,-462.59,0.29,0.89,0.25,6.04,-34.55,-5.8,1742259951.7135859
0.16,-0.86,-0.15,12.51,-133.18,-241.15,0.27,0.84,0.41,-6.04,-22.09,-25.94,1742259951.8275352
0.31,-0.91,0.49,40.28,-51.64,-57.37,0.25,0.82,0.46,0.98,-11.05,-3.85,1742259951.941439
0.47,-0.75,0.42,48.22,-13.67,-18.68,0.3,0.88,0.38,1.77,12.02,9.22,1742259952.055396
0.45,-0.81,0.43,35.77,-3.23,-7.51,0.31,0.86,0.36,4.7,-26.67,-0.98,1742259952.16944
0.46,-0.74,0.4,13.18,-18.07,6.16,0.27,0.89,0.44,12.02,-44.92,-3.05,1742259952.286148
0.43,-0.74,0.42,29.48,-37.84,-6.16,0.21,0.84,0.51,7.51,-46.63,8.97,1742259952.3974159
0.34,-0.84,0.41,62.01,-13.79,-14.1,0.11,0.83,0.54,0.12,-21.36,14.95,1742259952.511426
0.33,-0.87,0.27,53.47,-23.13,-13.49,0.21,0.89,0.28,-32.65,-23.68,7.81,1742259952.6263192
0.29,-0.97,0.25,9.34,-6.59,-5.0,0.12,0.94,0.5,-38.27,7.02,5.31,1742259952.739425
0.31,-0.89,0.23,14.4,12.88,-7.87,0.12,0.85,0.37,-40.89,42.79,13.06,1742259952.8533099
0.3,-0.88,0.15,10.62,-12.7,3.23,0.17,0.95,0.26,-15.32,23.25,8.24,1742259952.9672918
0.32,-0.9,0.18,6.96,-12.02,9.95,0.11,1.06,0.3,7.93,-29.48,-10.5,1742259953.080349
0.31,-0.92,0.17,13.49,1.71,-3.05,0.09,0.94,0.29,-10.99,-10.5,0.31,1742259953.1943219
0.36,-0.95,0.15,16.11,8.36,-14.22,0.14,0.93,0.32,-10.93,-18.01,-15.75,1742259953.308346
0.25,-0.94,0.1,5.37,25.02,-14.22,0.17,0.89,0.27,-8.3,-27.65,-11.29,1742259953.4256692
0.28,-0.94,0.12,-20.32,59.08,-16.42,0.12,0.96,0.23,-12.33,-19.65,-1.4,1742259953.53642
0.26,-0.96,0.08,9.52,15.62,-13.06,0.12,1.0,0.22,-16.6,-2.44,-2.08,1742259953.650213
0.24,-0.95,0.06,3.42,9.34,-11.54,0.1,0.96,0.18,-10.5,-5.74,0.67,1742259953.765504
0.21,-0.97,0.05,4.58,1.77,-8.67,0.13,0.98,0.17,-7.45,2.44,1.89,1742259953.878489
0.21,-0.98,0.03,9.28,9.4,-10.62,0.12,0.98,0.16,-10.5,1.83,1.83,1742259953.992383
0.17,-0.99,0.01,7.14,11.54,-12.88,0.13,0.98,0.14,-9.7,4.33,-0.37,1742259954.1063712
0.14,-0.99,0.0,-0.85,6.9,-4.82,0.14,1.01,0.11,-7.51,-3.17,-1.16,1742259954.220533
0.14,-1.01,0.02,-6.53,-8.3,-1.71,0.14,0.98,0.11,-3.3,-0.61,0.12,1742259954.334399
0.15,-0.96,0.02,-2.99,-7.02,3.85,0.12,0.99,0.12,-1.89,7.93,5.68,1742259954.448467
0.15,-0.97,0.02,5.55,-5.49,0.37,0.1,0.99,0.1,-3.54,9.28,8.12,1742259954.565529
0.15,-0.97,0.02,4.76,1.16,-1.22,0.1,1.0,0.1,-3.66,3.3,4.82,1742259954.6762
0.15,-0.97,0.03,11.23,-0.06,2.81,0.14,1.01,0.1,-6.53,2.38,10.01,1742259954.790234
0.16,-1.0,-0.03,15.44,0.79,-2.2,0.06,0.99,0.07,-18.43,-3.97,16.17,1742259954.906657
0.15,-1.0,-0.06,0.55,1.28,-9.4,0.03,0.99,-0.01,-15.14,-7.02,0.49,1742259955.01848
0.14,-1.0,-0.05,3.66,2.56,-5.74,0.04,1.01,-0.01,-12.88,-5.43,0.43,1742259955.1323829
0.11,-0.93,-0.03,2.32,-0.18,1.16,0.03,0.98,-0.01,-3.36,1.53,0.55,1742259955.247201
0.11,-0.96,-0.08,17.21,-4.52,-4.21,0.01,1.0,-0.05,-11.72,12.15,6.23,1742259955.360589
0.1,-1.01,-0.12,2.62,-7.57,-1.95,0.02,0.96,-0.08,-5.0,4.39,3.3,1742259955.474452
0.13,-0.98,-0.08,-2.26,-8.54,-1.34,-0.0,1.02,-0.07,3.36,0.18,-5.74,1742259955.5885131
0.09,-0.96,-0.09,1.28,-6.35,1.28,0.03,1.03,-0.05,4.03,4.33,-2.2,1742259955.7023628
0.11,-0.98,-0.1,2.62,-1.89,1.89,0.03,1.0,-0.06,0.79,1.71,2.69,1742259955.8175108
0.12,-0.99,-0.07,0.79,2.2,2.56,0.03,0.98,-0.05,3.6,2.69,2.2,1742259955.930285
0.12,-0.97,-0.1,4.27,2.81,2.69,0.02,0.99,-0.03,0.67,-1.89,4.58,1742259956.044262
0.14,-0.99,-0.08,-5.62,-0.55,1.04,0.0,1.02,-0.04,3.3,-0.24,-3.3,1742259956.158457
0.13,-0.99,-0.07,0.67,-2.93,-0.24,0.03,0.99,-0.04,0.92,1.4,-0.92,1742259956.272577
0.15,-0.99,-0.08,-0.06,-2.56,0.98,0.01,1.01,-0.03,0.43,1.65,1.59,1742259956.3867478
0.13,-0.96,-0.08,2.81,-2.01,-0.79,0.02,0.99,-0.03,-1.28,8.0,0.0,1742259956.5003572
0.11,-0.97,-0.08,2.5,-2.62,3.72,0.04,1.01,-0.03,1.22,2.56,3.23,1742259956.6142468
0.13,-0.93,-0.07,-1.22,7.87,6.59,0.05,0.99,-0.01,3.6,-3.85,3.48,1742259956.7283032
0.17,-1.0,-0.11,2.81,10.74,2.5,-0.01,1.01,-0.03,-4.03,-11.9,7.14,1742259956.846706
0.17,-0.97,-0.11,-7.32,4.94,-2.5,-0.03,1.02,-0.03,0.79,-5.07,-3.85,1742259956.9563599
0.11,-0.93,-0.11,-0.73,2.56,-6.47,-0.0,0.98,-0.05,-3.91,-0.06,-4.09,1742259957.070355
0.13,-1.0,-0.1,-2.38,6.23,-3.17,0.02,1.03,-0.05,-2.93,-8.73,-2.2,1742259957.1878662
0.13,-1.01,-0.09,-4.46,7.87,-0.49,0.01,1.0,-0.05,1.59,-9.22,-0.61,1742259957.2984471
0.12,-0.97,-0.09,2.26,2.62,-0.85,0.01,1.01,-0.04,0.92,-1.16,2.75,1742259957.412241
0.12,-0.99,-0.11,3.66,-2.01,-4.03,-0.0,0.98,-0.05,-6.59,3.48,6.53,1742259957.5297248
0.12,-0.99,-0.1,4.82,-3.66,-6.41,-0.01,1.01,-0.06,-14.16,6.16,8.18,1742259957.640484
0.11,-1.0,-0.12,-0.18,-7.87,-1.59,-0.03,1.0,-0.08,-6.41,10.68,3.36,1742259957.754435
0.11,-0.97,-0.09,-8.3,-9.16,2.99,-0.02,1.02,-0.08,5.19,11.78,-4.27,1742259957.86833
0.11,-0.99,-0.09,0.67,-8.0,-5.55,-0.03,0.98,-0.08,-4.76,10.07,-1.59,1742259957.9823549
0.09,-0.99,-0.09,-2.01,-5.55,-4.09,-0.0,1.0,-0.09,-2.01,7.45,-4.46,1742259958.096395
0.08,-0.98,-0.09,-2.87,-0.85,-0.37,0.01,0.99,-0.09,0.67,3.54,-2.44,1742259958.2104478
0.1,-1.0,-0.07,-7.45,5.8,3.48,0.01,1.03,-0.09,2.62,-2.14,-2.26,1742259958.327083
0.1,-0.97,-0.06,-5.19,8.42,3.11,0.01,0.98,-0.07,7.81,-0.98,-2.01,1742259958.43825
0.12,-1.0,-0.04,-3.42,1.83,1.34,-0.0,1.0,-0.06,3.36,-1.28,-1.53,1742259958.5522702
0.12,-0.98,-0.05,2.75,-4.46,-0.12,0.01,1.01,-0.05,-0.79,-1.4,-1.04,1742259958.667191
0.11,-1.0,-0.05,2.44,-4.7,-0.73,0.01,1.0,-0.06,-0.67,-0.24,0.12,1742259958.780355
0.1,-0.98,-0.05,-0.67,-1.65,-0.37,0.01,0.99,-0.06,1.34,3.23,-1.16,1742259958.894472
0.11,-0.99,-0.05,-1.95,-1.95,0.98,0.02,1.01,-0.06,2.44,3.6,-0.85,1742259959.008868
0.11,-0.98,-0.05,-1.1,-0.73,0.43,0.02,1.0,-0.04,1.34,2.38,-0.43,1742259959.126483
0.11,-0.99,-0.05,-0.12,0.06,0.73,0.02,1.01,-0.05,0.49,0.31,0.24,1742259959.236147
0.11,-0.98,-0.05,-0.12,0.61,0.24,0.01,0.99,-0.05,0.92,0.37,0.0,1742259959.350276
0.12,-0.98,-0.05,-0.43,-0.24,0.37,0.01,1.0,-0.05,0.12,0.43,-0.79,1742259959.4677079
0.12,-0.98,-0.04,1.04,-0.18,-1.28,0.01,1.0,-0.04,0.31,0.06,-0.61,1742259959.578222
0.1,-0.99,-0.05,0.37,0.61,-1.89,0.01,1.02,-0.05,-3.11,1.71,0.12,1742259959.692138
0.1,-0.99,-0.05,-0.67,-2.26,-0.49,0.02,1.0,-0.06,-0.49,0.24,-1.1,1742259959.807443
0.11,-0.98,-0.05,1.53,-4.03,-0.49,0.02,1.0,-0.06,0.18,-1.1,-0.43,1742259959.920212
0.1,-0.99,-0.05,0.49,-2.08,-0.73,0.02,1.0,-0.06,-0.06,2.38,-0.12,1742259960.034265
0.1,-0.99,-0.05,-0.67,-0.98,-0.55,0.02,1.01,-0.06,-0.24,1.22,-0.24,1742259960.148382
0.1,-0.98,-0.05,-0.18,0.06,-0.98,0.02,1.0,-0.06,0.12,-0.06,-0.85,1742259960.262175
0.1,-0.98,-0.05,3.42,1.53,-1.77,0.02,1.0,-0.06,-1.59,-0.61,0.85,1742259960.376148
0.09,-0.99,-0.06,1.16,2.26,-0.43,0.01,1.01,-0.06,-1.4,-0.43,1.53,1742259960.490113
0.09,-0.98,-0.06,-1.71,0.73,1.46,0.01,1.02,-0.06,1.28,-1.34,0.12,1742259960.60734
0.09,-0.98,-0.06,-0.92,0.18,0.37,0.01,1.01,-0.06,1.59,-0.98,-0.31,1742259960.71809
0.1,-0.98,-0.06,-0.61,-0.12,-0.12,0.01,0.99,-0.06,1.22,-0.49,-0.79,1742259960.832313
0.1,-0.99,-0.06,-0.12,-0.43,-0.31,0.01,1.0,-0.06,-0.55,-0.18,-0.37,1742259960.947128
0.1,-0.99,-0.06,-0.49,0.06,0.06,0.01,1.01,-0.06,-0.61,-0.18,-0.12,1742259961.060107
0.09,-0.98,-0.05,-0.73,0.18,-1.46,0.02,1.0,-0.06,-0.79,0.24,-1.04,1742259961.174227
0.09,-0.99,-0.06,0.18,0.73,-0.18,0.02,1.0,-0.06,0.18,0.06,0.79,1742259961.2881222
0.1,-0.99,-0.05,-0.73,-0.49,0.79,0.01,1.0,-0.06,0.73,-0.73,-0.85,1742259961.407568
0.09,-0.99,-0.05,-1.04,0.24,1.1,0.02,1.02,-0.06,0.92,0.0,-0.73,1742259961.5191228
0.1,-0.98,-0.05,0.98,-0.85,-0.06,0.01,0.99,-0.06,-0.06,0.73,0.24,1742259961.633279
0.1,-0.99,-0.06,0.73,-1.46,0.24,0.02,1.0,-0.06,0.24,0.18,-0.24,1742259961.747127
0.09,-0.98,-0.06,0.43,-1.04,0.31,0.02,1.0,-0.06,0.43,0.49,0.06,1742259961.861025
0.1,-0.99,-0.06,0.85,-0.24,-0.49,0.02,0.99,-0.06,0.0,0.49,0.31,1742259961.975095
0.1,-0.99,-0.06,-0.61,-0.43,-0.43,0.02,0.99,-0.06,-0.43,-0.61,-0.18,1742259962.089226
0.1,-0.99,-0.05,0.12,-0.37,-0.61,0.02,0.99,-0.06,-0.24,-0.92,-0.37,1742259962.207448
0.1,-0.98,-0.05,0.98,-0.24,-0.31,0.02,1.0,-0.06,-0.61,0.06,-0.12,1742259962.3171258
0.1,-0.99,-0.06,0.24,-1.1,0.37,0.01,1.01,-0.06,0.12,0.85,-0.06,1742259962.431037
0.1,-0.99,-0.06,0.31,-0.24,0.0,0.02,1.01,-0.06,-0.49,0.67,0.06,1742259962.545013
0.09,-0.98,-0.06,0.18,0.0,-0.55,0.01,1.01,-0.06,-0.79,0.0,0.06,1742259962.6590059
0.09,-0.99,-0.06,0.06,0.06,-0.67,0.01,1.0,-0.07,-0.37,-0.18,-0.18,1742259962.7744
0.09,-0.98,-0.06,0.31,-0.31,-0.67,0.02,1.0,-0.07,0.24,-0.24,-0.24,1742259962.887136
0.09,-0.98,-0.06,-0.18,-0.31,-0.06,0.01,1.0,-0.07,0.67,-0.43,-0.55,1742259963.001257
0.09,-0.99,-0.06,0.85,-0.73,-0.31,0.01,1.0,-0.06,-0.49,0.12,0.61,1742259963.115268
0.1,-0.99,-0.06,0.0,-0.24,0.0,0.02,1.0,-0.07,0.0,-0.06,0.43,1742259963.2290409
0.1,-0.99,-0.06,0.0,0.61,-0.24,0.02,1.0,-0.07,-0.24,-0.18,-0.18,1742259963.346418
0.09,-0.98,-0.06,-0.31,0.31,0.18,0.01,1.0,-0.07,0.55,-0.43,-0.49,1742259963.457076
0.1,-0.98,-0.06,0.37,0.31,-0.24,0.01,1.0,-0.07,-0.06,-0.31,0.31,1742259963.571022
0.09,-0.99,-0.06,-0.24,0.06,0.0,0.01,1.01,-0.07,-0.73,-0.06,0.85,1742259963.687319
0.1,-0.98,-0.06,-0.37,-0.06,0.31,0.01,1.0,-0.06,0.61,-0.18,-0.18,1742259963.7991302
0.09,-0.98,-0.06,0.31,0.06,-0.67,0.01,1.0,-0.07,-0.61,-0.12,-0.18,1742259963.91295
0.09,-0.99,-0.06,-0.49,0.61,-1.1,0.01,1.0,-0.07,-0.49,-0.49,-0.37,1742259964.0298939
0.09,-0.99,-0.06,-0.67,0.67,-1.16,0.02,1.0,-0.07,-0.79,-0.85,-1.1,1742259964.141035
0.09,-0.99,-0.06,-0.24,0.55,-0.98,0.02,1.0,-0.07,-0.55,-0.73,-1.1,1742259964.255052
0.08,-0.99,-0.06,-0.12,-0.18,-0.98,0.02,1.0,-0.07,-0.61,-0.92,-0.67,1742259964.369108
0.09,-0.99,-0.06,-0.49,-0.67,-0.98,0.02,0.99,-0.08,-0.85,0.12,-1.16,1742259964.483126
0.08,-0.99,-0.06,0.79,-0.55,-1.46,0.02,0.99,-0.08,-1.28,0.73,-0.73,1742259964.597016
0.08,-0.99,-0.06,-0.43,-0.12,-1.95,0.02,1.0,-0.08,-1.22,0.24,-0.92,1742259964.7111151
0.07,-0.98,-0.06,-3.36,2.75,-2.32,0.03,1.0,-0.08,-0.43,0.18,-2.93,1742259964.8262951
0.07,-0.99,-0.05,-1.89,-0.24,-1.65,0.03,1.01,-0.08,-0.37,-1.83,-2.75,1742259964.939206
0.07,-0.99,-0.05,1.34,-1.28,-1.16,0.03,1.0,-0.08,-1.22,-1.89,-0.92,1742259965.0530581
0.06,-0.99,-0.05,-0.49,-1.1,0.06,0.03,1.0,-0.09,-0.06,0.0,-0.18,1742259965.1670349
0.07,-0.99,-0.04,-1.22,0.43,0.12,0.04,1.0,-0.08,0.06,0.43,-0.49,1742259965.280993
0.07,-0.98,-0.04,3.36,-1.46,-0.12,0.03,1.01,-0.09,-0.06,-0.92,0.92,1742259965.3949382
0.07,-0.99,-0.05,3.48,-1.1,0.31,0.04,1.0,-0.09,-0.24,1.46,2.44,1742259965.510197
0.07,-0.99,-0.06,-1.4,0.79,1.22,0.04,0.98,-0.09,-0.92,0.98,1.89,1742259965.6267798
0.08,-0.98,-0.05,1.22,-2.01,2.81,0.02,1.01,-0.09,2.2,-0.85,0.79,1742259965.7368472
0.07,-0.98,-0.06,3.36,-1.77,2.2,0.02,1.01,-0.08,2.14,0.18,1.95,1742259965.850923
0.08,-0.99,-0.07,2.2,-1.34,3.11,0.02,1.01,-0.08,0.85,2.38,3.54,1742259965.9671092
0.09,-0.99,-0.07,0.85,-0.61,2.38,0.01,0.99,-0.08,1.95,1.1,2.93,1742259966.078927
0.1,-0.98,-0.08,0.06,-0.24,0.73,0.01,1.0,-0.08,1.22,-2.32,0.61,1742259966.192842
0.1,-0.98,-0.07,-0.43,1.89,-1.77,-0.0,1.0,-0.07,-0.61,-2.81,-2.2,1742259966.3069482
0.09,-0.98,-0.08,-0.85,0.98,-1.04,0.0,1.01,-0.08,-1.28,-1.16,-0.67,1742259966.421
0.1,-0.99,-0.07,-5.0,-0.98,0.79,-0.0,1.01,-0.08,1.65,0.61,-1.28,1742259966.535032
0.1,-0.97,-0.05,-2.56,-3.54,-1.77,0.01,0.99,-0.06,2.99,4.58,-3.6,1742259966.649081
0.08,-0.98,-0.06,-0.12,-4.46,-3.97,0.02,1.01,-0.06,-1.77,4.52,-3.3,1742259966.766449
0.07,-0.98,-0.05,-2.44,-3.3,-3.54,0.03,1.01,-0.07,-0.79,3.36,-4.03,1742259966.877043
0.06,-0.99,-0.05,-0.85,-1.28,-3.72,0.04,1.0,-0.08,-1.53,1.1,-2.81,1742259966.991036
0.06,-0.99,-0.04,-0.85,1.4,-3.36,0.05,0.99,-0.08,-0.79,-1.71,-2.99,1742259967.1063502
0.05,-1.0,-0.05,-0.31,2.62,-2.99,0.05,1.0,-0.09,-2.99,-3.48,-1.83,1742259967.218915
0.05,-0.99,-0.04,-4.46,1.22,-2.75,0.05,1.01,-0.09,0.0,-3.05,-4.09,1742259967.332972
0.05,-0.97,-0.03,-0.85,1.46,-3.85,0.06,0.97,-0.08,-0.85,-1.59,-3.11,1742259967.446937
0.04,-0.99,-0.03,0.55,-2.08,-3.48,0.06,1.01,-0.09,-4.46,0.37,-2.99,1742259967.56097
0.03,-0.99,-0.03,-1.71,-1.59,-2.01,0.07,1.01,-0.1,-1.04,0.06,-3.78,1742259967.6750112
0.02,-0.99,-0.03,0.49,0.67,-3.97,0.08,0.99,-0.1,-2.75,-1.22,-2.56,1742259967.788867
0.01,-1.0,-0.03,-0.43,1.53,-4.09,0.08,0.99,-0.12,-2.81,-3.3,-2.56,1742259967.906473
0.01,-0.99,-0.03,0.06,1.95,-2.5,0.09,0.99,-0.12,-1.4,-4.15,-2.87,1742259968.0178602
0.01,-1.0,-0.03,-0.49,2.08,-0.79,0.09,0.99,-0.12,-0.12,-4.7,-1.95,1742259968.131854
0.0,-0.98,-0.03,0.31,0.18,-0.24,0.09,1.0,-0.12,-0.79,-1.16,-0.18,1742259968.246353
-0.0,-0.98,-0.03,0.37,-0.79,-0.73,0.09,0.99,-0.12,0.0,0.37,-0.18,1742259968.359961
-0.01,-1.0,-0.03,0.55,0.0,0.98,0.11,0.99,-0.12,0.79,-0.92,0.85,1742259968.473732
-0.0,-0.99,-0.03,1.22,0.61,2.44,0.1,1.0,-0.12,2.01,-0.37,1.59,1742259968.5877812
0.01,-0.99,-0.03,0.55,0.55,2.81,0.09,1.0,-0.12,0.18,0.85,1.83,1742259968.701674
0.02,-1.0,-0.03,0.31,-1.34,2.87,0.08,0.99,-0.12,1.89,0.79,2.56,1742259968.814875
0.03,-0.99,-0.03,0.61,-2.32,3.54,0.08,0.99,-0.11,2.99,2.14,2.14,1742259968.928824
0.03,-0.99,-0.03,-0.55,-2.14,2.93,0.08,0.99,-0.1,3.66,2.38,3.05,1742259969.042953
0.04,-0.99,-0.03,0.55,-2.38,2.87,0.07,0.98,-0.1,2.14,3.17,1.1,1742259969.1568372
0.04,-0.99,-0.03,0.06,-2.5,3.3,0.06,1.01,-0.08,2.62,1.95,1.46,1742259969.270825
0.05,-0.98,-0.03,0.49,-1.65,2.32,0.06,0.99,-0.08,4.21,1.53,1.34,1742259969.386208
0.05,-0.99,-0.04,1.34,-0.61,1.59,0.06,0.99,-0.08,2.62,1.1,1.53,1742259969.498846
0.07,-1.0,-0.03,-0.79,-0.12,3.72,0.05,0.99,-0.08,2.44,-0.67,0.79,1742259969.612821
0.08,-1.0,-0.03,1.4,-0.06,2.08,0.05,1.0,-0.07,1.46,0.24,2.2,1742259969.726677
0.07,-0.99,-0.05,-0.12,-0.79,1.65,0.04,1.0,-0.07,4.52,2.38,0.85,1742259969.840836
0.08,-0.98,-0.04,-0.92,-3.91,3.66,0.04,1.0,-0.07,5.68,0.31,-2.01,1742259969.954845
0.09,-1.0,-0.03,-2.38,-2.75,4.88,0.05,1.0,-0.05,6.41,-0.43,-2.14,1742259970.070888
0.1,-1.01,-0.03,-4.82,-5.55,8.79,0.06,1.02,-0.03,10.13,-0.92,-2.08,1742259970.185945
0.12,-0.98,-0.0,-12.02,-8.79,11.47,0.07,1.0,-0.02,16.78,-2.44,-6.53,1742259970.2968261
0.14,-0.97,0.03,-6.23,-8.12,7.32,0.08,0.98,0.02,12.63,-4.76,-5.13,1742259970.4107819
0.16,-0.99,0.04,-0.92,-2.26,2.38,0.09,1.0,0.06,8.3,-2.01,-1.59,1742259970.5281222
0.16,-0.99,0.04,-2.44,4.82,5.25,0.09,1.02,0.08,10.8,6.71,2.32,1742259970.6386602
0.16,-0.97,0.04,-5.0,1.65,5.19,0.08,1.0,0.08,8.67,6.04,4.33,1742259970.752522
0.19,-1.0,0.04,-1.83,-2.75,0.85,0.08,1.02,0.1,3.36,0.49,2.99,1742259970.86623
0.15,-0.98,0.05,-9.52,-3.97,9.52,0.08,1.02,0.12,19.9,-5.86,0.43,1742259970.979713
0.19,-0.96,0.06,-7.14,-4.64,9.28,0.08,0.97,0.13,10.93,-2.56,-1.22,1742259971.0936651
0.22,-0.97,0.08,-4.52,1.53,8.0,0.08,0.97,0.15,6.23,0.31,-1.04,1742259971.207551
0.23,-1.03,0.09,-5.07,1.83,6.84,0.08,0.98,0.18,7.75,-4.82,-0.67,1742259971.320544
0.24,-0.93,0.09,-9.03,-1.89,13.61,0.07,0.97,0.19,26.18,-10.93,-4.58,1742259971.433675
0.28,-0.94,0.1,-2.44,1.04,6.41,0.06,0.97,0.22,11.54,-5.0,-3.11,1742259971.5496929
0.28,-0.91,0.1,-7.51,0.12,4.88,0.06,0.99,0.25,15.38,0.73,-5.07,1742259971.661653
0.27,-0.94,0.12,-7.57,0.37,1.34,0.09,0.93,0.27,18.86,1.77,-2.08,1742259971.775537
0.28,-0.91,0.14,-5.0,-4.15,3.42,0.09,0.96,0.31,21.97,4.03,-3.97,1742259971.888643
0.29,-0.93,0.14,3.48,-1.71,-3.05,0.12,0.89,0.32,-1.89,5.55,-0.73,1742259972.002629
0.27,-0.94,0.12,0.49,-1.1,-2.56,0.12,0.96,0.32,-2.75,4.64,-0.55,1742259972.116645
0.28,-0.93,0.14,1.4,1.59,-3.78,0.11,0.91,0.31,-1.1,-2.38,-1.16,1742259972.230507
0.25,-0.91,0.11,7.51,8.73,-5.92,0.11,0.92,0.31,-8.42,2.26,-0.43,1742259972.345928
0.27,-0.98,0.12,7.02,11.47,-4.15,0.1,0.95,0.29,-17.4,7.57,1.71,1742259972.458486
0.26,-0.95,0.1,5.25,8.79,-5.86,0.08,0.99,0.23,-49.13,35.89,10.74,1742259972.572493
0.23,-0.94,0.09,2.38,8.91,-6.29,0.1,1.0,0.15,-28.5,13.85,4.82,1742259972.686687
0.1,-1.04,0.17,-42.6,62.38,-10.19,0.01,0.98,0.14,-12.63,11.17,7.45,1742259972.800673
0.24,-0.99,0.07,22.83,9.09,-16.42,0.35,0.9,-0.07,10.74,1.71,-18.92,1742259972.914508
0.22,-0.9,0.08,7.51,-13.79,3.78,-0.03,1.08,-0.03,5.31,18.62,5.37,1742259973.028796
0.24,-1.12,0.08,-12.21,-11.23,8.42,0.08,1.05,0.08,24.66,-20.08,1.46,1742259973.14264
0.25,-0.93,0.12,-26.49,-11.23,18.25,0.11,1.0,0.12,43.03,-14.83,-25.21,1742259973.2566478
0.3,-0.98,0.15,0.18,-11.23,2.2,0.14,0.9,0.17,15.01,-24.41,-14.95,1742259973.370454
0.29,-0.9,0.17,12.27,-4.15,-2.26,0.11,0.99,0.17,-7.75,32.04,11.96,1742259973.487721
0.21,-1.0,0.15,0.24,12.76,-13.67,0.13,1.03,0.17,-24.41,52.31,25.57,1742259973.598506
0.26,-0.96,0.13,-10.31,26.12,-7.63,0.12,1.01,0.14,-5.43,6.77,5.92,1742259973.7126248
0.25,-0.96,0.1,8.54,-0.06,-4.21,0.04,0.97,0.08,-4.82,9.83,11.05,1742259973.8269062
0.23,-0.95,0.09,3.3,-1.59,-2.26,0.03,1.0,0.07,-3.17,6.35,5.49,1742259973.940667
0.24,-0.97,0.1,3.78,2.2,-4.88,0.06,0.99,0.08,-5.98,1.95,4.94,1742259974.054519
0.22,-0.98,0.1,2.2,3.48,-0.92,0.02,1.03,0.07,-9.22,1.46,5.0,1742259974.168535
0.22,-0.94,0.07,-2.99,2.38,4.94,0.06,1.0,0.06,4.58,5.0,-2.75,1742259974.2863722
0.26,-0.96,0.1,-1.59,1.4,2.26,0.02,1.02,0.07,3.3,-2.62,0.61,1742259974.396527
0.26,-0.96,0.09,1.1,0.12,0.0,0.05,0.98,0.08,2.44,-1.59,0.55,1742259974.510396
0.25,-0.97,0.09,0.73,0.43,-0.12,0.03,0.99,0.07,-1.71,-0.43,1.83,1742259974.626606
0.24,-0.95,0.08,-0.79,-1.04,0.98,0.02,1.0,0.06,0.18,0.73,0.43,1742259974.737517
0.24,-0.94,0.09,-0.24,-0.18,-0.18,0.03,1.01,0.07,0.67,-2.2,-0.55,1742259974.851655
0.25,-0.97,0.09,0.73,-0.55,-0.12,0.02,1.0,0.06,-0.85,-0.98,0.06,1742259974.966984
0.25,-0.95,0.1,-1.34,-0.92,0.12,0.03,1.0,0.07,2.01,1.16,-0.67,1742259975.0796008
0.25,-0.96,0.1,0.98,-2.14,-0.67,0.03,0.99,0.08,-0.98,0.67,0.98,1742259975.193519
0.24,-0.95,0.09,1.34,-1.59,-0.37,0.03,1.01,0.08,0.49,1.71,1.22,1742259975.3075001
0.24,-0.96,0.09,2.81,-0.92,-1.59,0.03,1.0,0.07,-0.06,2.32,2.08,1742259975.421762
0.24,-0.97,0.08,2.01,-0.18,-2.93,0.02,0.99,0.07,-0.85,2.75,2.69,1742259975.535451
0.23,-0.96,0.08,1.89,0.85,-4.94,0.01,0.99,0.07,-1.34,2.14,2.87,1742259975.64944
0.23,-0.95,0.07,1.53,1.83,-4.03,0.01,0.99,0.06,-1.77,0.67,2.93,1742259975.767148
0.21,-0.97,0.06,2.38,-0.24,-2.93,-0.0,1.0,0.05,-2.5,-0.79,2.26,1742259975.8775392
0.21,-0.96,0.07,2.26,-0.06,-1.04,-0.01,1.01,0.05,0.49,-2.01,2.2,1742259975.9914901
0.2,-0.95,0.06,2.26,1.95,-1.71,-0.0,1.01,0.05,1.34,-0.12,2.99,1742259976.1069272
0.2,-0.97,0.06,1.59,1.34,0.06,-0.02,1.01,0.05,0.18,-2.08,4.82,1742259976.218189
0.22,-0.98,0.07,1.59,2.62,1.65,-0.02,1.0,0.06,2.81,-2.69,2.99,1742259976.33121
0.22,-0.95,0.06,2.14,0.98,1.16,-0.03,1.01,0.07,2.75,-0.85,3.36,1742259976.446811
0.22,-0.97,0.04,2.32,-1.71,1.34,-0.04,1.01,0.07,-0.79,-1.28,3.66,1742259976.557436
0.23,-0.96,0.05,2.01,-2.38,1.04,-0.06,1.02,0.06,1.04,0.18,0.37,1742259976.671453
0.23,-0.95,0.05,2.99,-3.48,0.12,-0.05,0.99,0.07,0.12,4.76,1.95,1742259976.786853
0.23,-0.97,0.04,3.6,-4.94,-0.12,-0.05,0.99,0.07,0.31,6.29,1.28,1742259976.899411
0.23,-0.97,0.04,1.71,-5.74,0.12,-0.05,0.99,0.07,0.49,2.99,-0.49,1742259977.013298
0.22,-0.97,0.04,0.98,-3.66,-0.79,-0.05,0.99,0.07,0.49,-0.67,-1.34,1742259977.1264708
0.22,-0.97,0.04,-0.12,-0.55,-0.55,-0.04,1.0,0.07,-0.24,-2.14,-0.73,1742259977.24053
0.22,-0.96,0.04,0.79,0.24,-1.71,-0.05,0.99,0.07,-0.92,-2.2,0.06,1742259977.354298
0.21,-0.96,0.04,-0.12,0.37,-1.46,-0.05,1.0,0.06,-1.22,-4.7,1.16,1742259977.468423
0.22,-0.98,0.04,-1.34,0.0,0.79,-0.05,1.01,0.06,0.18,-5.92,-0.18,1742259977.585802
0.22,-0.96,0.04,-0.98,0.06,0.61,-0.05,0.99,0.06,4.15,1.59,-4.09,1742259977.696278
0.22,-0.96,0.04,-0.98,-1.16,1.59,-0.05,0.98,0.06,0.31,7.69,1.16,1742259977.8104231
0.22,-0.96,0.05,-5.07,-2.14,3.66,-0.04,1.01,0.06,-3.36,11.66,0.73,1742259977.926954
0.23,-0.97,0.06,-4.15,-2.2,2.99,-0.03,1.0,0.07,1.04,3.91,-2.44,1742259978.038482
0.24,-0.96,0.08,-3.05,-0.49,2.87,-0.03,1.02,0.07,6.41,0.43,-7.02,1742259978.152417
0.26,-0.98,0.1,-1.71,2.2,1.95,-0.03,0.98,0.06,7.45,-0.67,-7.14,1742259978.266308
0.25,-0.98,0.08,-1.16,1.22,0.92,-0.02,1.0,0.07,9.34,0.31,-7.63,1742259978.380314
0.26,-0.93,0.09,-4.39,-0.24,3.66,-0.02,1.03,0.09,8.24,-3.48,-7.63,1742259978.494357
0.27,-0.97,0.1,-4.88,-0.73,5.25,-0.0,1.0,0.1,8.12,-2.56,-7.75,1742259978.6084511
0.29,-0.96,0.12,-3.66,-0.67,1.71,0.03,0.97,0.13,6.41,-1.46,-5.62,1742259978.723395
0.27,-0.93,0.12,-0.06,0.0,-0.79,0.02,1.0,0.13,3.48,1.28,-4.33,1742259978.836447
0.27,-0.94,0.12,-2.32,-2.38,1.1,0.03,1.0,0.14,0.18,0.79,-1.4,1742259978.950422
0.27,-0.93,0.13,-1.71,-2.2,1.46,0.04,0.99,0.13,2.01,1.4,-2.26,1742259979.0643451
0.27,-0.94,0.13,0.67,-1.83,0.24,0.04,0.99,0.14,0.92,-0.12,-2.56,1742259979.178241
0.28,-0.95,0.12,0.73,-1.28,-0.67,0.04,0.99,0.13,0.61,-0.43,-1.4,1742259979.2923079
0.28,-0.94,0.12,-0.92,-0.92,-0.24,0.04,0.99,0.13,0.37,-0.79,-0.98,1742259979.406878
0.28,-0.94,0.13,-0.49,-0.55,-1.1,0.05,0.99,0.13,-0.12,1.04,-1.34,1742259979.520591
0.27,-0.94,0.13,-0.67,0.0,-1.46,0.05,1.0,0.14,-1.16,1.71,-1.04,1742259979.634356
0.27,-0.95,0.13,-1.89,-0.43,-0.06,0.05,1.0,0.13,1.04,1.1,-1.83,1742259979.7484648
0.27,-0.94,0.14,-1.77,-0.37,0.55,0.06,0.98,0.14,0.92,-2.32,-1.59,1742259979.862365
0.28,-0.95,0.15,-1.65,0.49,-0.37,0.06,0.99,0.14,1.04,-3.48,-2.26,1742259979.976345
0.27,-0.93,0.15,-1.34,0.92,-0.67,0.06,0.98,0.14,-1.4,0.98,-1.34,1742259980.090316
0.27,-0.93,0.15,-1.16,-0.55,0.98,0.06,1.0,0.14,-1.53,-1.1,-0.06,1742259980.206562
0.27,-0.94,0.15,-0.06,-2.08,3.48,0.06,1.0,0.13,1.4,-0.43,-1.1,1742259980.318369
0.27,-0.94,0.14,-1.46,-3.66,1.71,0.06,0.99,0.13,2.44,-3.78,-2.2,1742259980.43237
0.27,-0.94,0.14,-9.52,-5.55,4.33,0.07,1.0,0.14,4.39,-7.87,-5.07,1742259980.550024
-0.21,-1.16,0.41,-26.31,-4.64,25.15,0.07,1.02,0.15,11.9,-16.97,-14.59,1742259980.6604538
-0.08,-0.97,0.29,-40.1,100.22,154.42,-0.16,1.04,0.18,-6.71,71.78,-40.89,1742259980.7743628
0.18,-0.96,-0.85,-269.59,180.48,346.62,0.09,0.7,-0.02,-19.41,101.26,-136.41,1742259980.888343
0.37,0.29,-0.6,65.98,-70.92,400.63,0.35,0.76,-0.44,95.83,73.61,-287.96,1742259981.002284
0.04,0.92,1.38,304.38,-214.17,67.63,0.74,-0.13,-0.27,-13.18,-103.03,-332.28,1742259981.116141
0.02,0.01,1.78,101.87,-53.53,11.84,0.91,-0.69,0.41,7.39,-206.6,-179.75,1742259981.229117
-0.14,0.06,1.2,0.73,-39.55,0.37,0.57,-0.62,1.06,-49.01,-111.21,-47.3,1742259981.3474119
