L-AccX,L-AccY,L-AccZ,L-GyrX,L-GyrY,L-GyrZ,R-AccX,R-AccY,R-AccZ,R-GyrX,R-GyrY,R-GyrZ,timestamp
0.01,0.0225,0.12125,0.00016750001,0.0,-6e-05,0.0075,-0.0325,0.12,0.00079250004,0.0001825,0.0006725,1742107583.1417441
0.00875,0.0225,0.12125,0.00023,0.0,-7.75e-05,0.00875,-0.0375,0.11125,-0.0008075,0.00093,0.00029,1742107583.255546
0.01,0.02125,0.12125,0.00023,4.5e-05,-6e-05,0.00125,-0.0325,0.12875,-0.002335,-0.0020599999,0.0003825,1742107583.370175
0.01,0.02125,0.12125,0.00035,0.0001225,-4.5e-05,0.0025,-0.03375,0.12,-0.0001825,-0.0001525,-9.25e-05,1742107583.483765
0.01,0.0225,0.12125,3e-05,-7.75e-05,-7.75e-05,0.00375,-0.035,0.12125,0.000275,-3e-05,-7.75e-05,1742107583.597427
0.01,0.02125,0.12125,0.0001375,3e-05,-6e-05,0.00375,-0.03375,0.12,6e-05,-6e-05,-9.25e-05,1742107583.711431
0.01,0.02125,0.12125,4.5e-05,0.0,-9.25e-05,0.00375,-0.035,0.12,9.25e-05,-0.00016750001,-3e-05,1742107583.8254778
0.01,0.02125,0.12125,0.0001225,4.5e-05,-6e-05,0.00375,-0.035,0.12,0.0001225,-0.000107500004,-9.25e-05,1742107583.939425
0.00875,0.02125,0.12125,0.00016750001,4.5e-05,-7.75e-05,0.0025,-0.035,0.12,-0.00052,-1.5e-05,-0.0001825,1742107584.053474
0.01,0.02125,0.12125,0.000107500004,1.5e-05,-0.000107500004,0.0025,-0.03375,0.12,-1.5e-05,-7.75e-05,0.0,1742107584.167466
0.01,0.02125,0.12125,0.000107500004,3e-05,-0.000107500004,0.0025,-0.03375,0.12125,-4.5e-05,-9.25e-05,4.5e-05,1742107584.281437
0.01,0.02125,0.12125,0.0002125,-1.5e-05,-0.0001225,0.00375,-0.03375,0.12,1.5e-05,-6e-05,3e-05,1742107584.395315
0.00875,0.02125,0.12125,0.0001375,-1.5e-05,-0.000107500004,0.0025,-0.03375,0.12,-7.75e-05,-6e-05,3e-05,1742107584.5105321
0.00875,0.02125,0.12125,0.0002125,0.0,-9.25e-05,0.0025,-0.035,0.12125,-0.000107500004,9.25e-05,-0.0001525,1742107584.623422
0.01,0.02,0.12125,4.5e-05,-3e-05,-3e-05,0.0,-0.04,0.12375,0.0050975,0.008957501,0.003845,1742107584.737246
0.01,0.02,0.12125,-0.0001375,-3e-05,4.5e-05,0.01375,-0.035,0.1225,-0.0027774998,0.0036624998,0.000625,1742107584.851071
0.01,0.02,0.12125,0.0,0.0,-4.5e-05,0.02625,-0.03,0.12,-0.00177,0.0033575,0.006715,1742107584.964302
0.01,0.0225,0.12125,-6e-05,0.0,-7.75e-05,0.02375,-0.035,0.11125,-0.00322,0.0006725,-0.0009625,1742107585.078403
0.00875,0.02125,0.12125,-0.000107500004,3e-05,-3e-05,0.02625,-0.03375,0.10875,0.0033875,0.002685,-0.0022125002,1742107585.192327
0.00875,0.0225,0.12125,-6e-05,6e-05,1.5e-05,0.03625,-0.03,0.13125,-0.00035,0.0019525,0.0010525,1742107585.306349
0.00875,0.0225,0.12125,-0.00032,-3e-05,7.75e-05,0.0175,-0.03375,0.12125,-0.0048375,-0.009675,0.0064075,1742107585.420634
0.01,0.0225,0.12125,-6e-05,6e-05,-7.75e-05,0.00875,-0.0275,0.14,0.00769,0.0137775,0.0016925,1742107585.534273
0.01,0.02125,0.12125,7.75e-05,7.75e-05,0.0002125,0.0325,-0.04,0.1,0.0029449998,0.00705,-0.001755,1742107585.647325
0.00875,0.02125,0.12125,0.0001375,7.75e-05,-4.5e-05,0.025,-0.03125,0.11375,-0.0084375,-0.0119025,-0.0015875,1742107585.7615051
0.00875,0.02125,0.12125,0.0001375,3e-05,3e-05,0.0175,-0.02125,0.115,0.0034475,0.007005,-0.0044699996,1742107585.875324
0.00875,0.02125,0.12125,7.75e-05,4.5e-05,-1.5e-05,0.0275,-0.04,0.115,0.0023800002,0.0045025,-0.0021975,1742107585.9911969
0.00875,0.02125,0.12125,1.5e-05,-1.5e-05,-9.25e-05,0.02875,-0.04,0.115,0.0018,0.0021199998,-0.001145,1742107586.1023512
0.00875,0.02125,0.12125,1.5e-05,-3e-05,-1.5e-05,0.0325,-0.04875,0.11125,0.00093,0.000655,-6e-05,1742107586.216322
0.01,0.02125,0.12125,1.5e-05,0.0,-7.75e-05,0.0325,-0.04,0.115,0.0011900001,0.0010375,-0.0004275,1742107586.331429
0.01,0.02125,0.12125,0.000107500004,3e-05,-3e-05,0.03375,-0.04125,0.115,0.0021199998,-0.0001225,-0.001405,1742107586.444453
0.00875,0.02125,0.12125,1.5e-05,-1.5e-05,0.0,0.035,-0.0475,0.11,0.0044699996,-6e-05,-0.000655,1742107586.558356
0.01,0.02125,0.12125,-6e-05,1.5e-05,-7.75e-05,0.03125,-0.0425,0.11875,-0.0012050001,0.0022574998,0.00171,1742107586.674784
0.00875,0.02125,0.12125,6e-05,4.5e-05,4.5e-05,0.04375,-0.04625,0.09625,0.0001525,0.0027474998,0.002105,1742107586.786147
0.00875,0.02125,0.12125,0.0001375,4.5e-05,-0.0001225,0.04375,-0.04375,0.10625,-0.0037075,-0.0054775,0.0038599998,1742107586.899339
0.00875,0.02125,0.12125,-3e-05,4.5e-05,-7.75e-05,0.0275,-0.03,0.11875,-0.0072025,-0.019257499,0.00322,1742107587.0133288
0.01,0.02125,0.12125,0.000107500004,4.5e-05,-4.5e-05,0.0175,-0.03625,0.12,-0.0009625,0.00055,-1.5e-05,1742107587.12731
0.00875,0.02,0.12125,9.25e-05,3e-05,4.5e-05,0.02625,-0.0425,0.10875,0.0065925,0.010832501,0.0016025,1742107587.241133
0.01,0.02125,0.12125,6e-05,1.5e-05,-6e-05,0.0275,-0.03375,0.125,0.00016750001,-0.0048825,-0.0013275,1742107587.3542988
0.00875,0.0225,0.12,0.000107500004,3e-05,-0.0001525,0.02,-0.03875,0.1225,-0.0030975002,-0.00949,-0.0021975,1742107587.4710882
0.00875,0.02125,0.12125,6e-05,1.5e-05,-9.25e-05,0.00375,-0.0375,0.13625,-0.0047150003,-0.0051574996,0.000275,1742107587.582305
0.01,0.02125,0.12125,1.5e-05,4.5e-05,1.5e-05,0.01375,-0.045,0.11875,0.0086525,0.0210425,0.00264,1742107587.696023
0.00875,0.02125,0.12125,-1.5e-05,-1.5e-05,-4.5e-05,0.0275,-0.04125,0.1325,-0.002045,-0.0039224997,-0.00061,1742107587.811351
0.00875,0.0225,0.12125,0.0,0.0,-9.25e-05,0.02625,-0.04375,0.10375,-0.001145,-0.005645,-7.75e-05,1742107587.9234219
0.01,0.02125,0.12125,-4.5e-05,-3e-05,-0.0001225,0.0125,-0.035,0.12625,-0.0036775,-0.00801,-0.0016775,1742107588.0373518
0.01,0.02125,0.12125,7.75e-05,-1.5e-05,-1.5e-05,0.01,-0.03125,0.12125,-0.00052,-0.000365,-0.00093,1742107588.1540658
0.00875,0.02125,0.12125,0.0001225,1.5e-05,-3e-05,0.0075,-0.0325,0.125,3e-05,0.0004725,0.00023,1742107588.265005
0.01,0.02125,0.12125,0.000107500004,3e-05,-6e-05,0.00875,-0.0325,0.125,0.0027474998,0.0081625,0.0022274998,1742107588.3780322
0.00875,0.02125,0.12125,-3e-05,1.5e-05,3e-05,0.02875,-0.035,0.1,0.0064075,0.011275,-0.0010375,1742107588.491642
0.00875,0.02,0.12125,1.5e-05,3e-05,-3e-05,0.03,-0.0325,0.115,1.5e-05,-0.008285,-0.0027325,1742107588.605242
0.01,0.02125,0.12125,0.0001525,1.5e-05,-6e-05,0.01125,-0.0325,0.12125,-0.005295,-0.009902501,0.000107500004,1742107588.719257
0.01,0.02125,0.12125,0.0001225,3e-05,-1.5e-05,0.00625,-0.03,0.1225,-0.002075,-0.0041199997,-0.0010975,1742107588.833306
0.00875,0.02125,0.12125,9.25e-05,3e-05,-7.75e-05,0.00375,-0.0325,0.12,-0.0040125,-0.005935,-0.00055,1742107588.9473312
0.00875,0.02125,0.12125,7.75e-05,4.5e-05,-7.75e-05,-0.00125,-0.02875,0.1225,-0.000245,-0.001435,-0.00059500005,1742107589.061506
0.00875,0.02125,0.12125,4.5e-05,0.0,-6e-05,-0.0025,-0.025,0.11625,0.0028375,0.0013425,0.0,1742107589.1757739
0.00875,0.0225,0.12125,4.5e-05,0.0,-4.5e-05,-0.00375,-0.0275,0.1325,0.002715,0.0118725,0.002595,1742107589.291826
0.00875,0.02125,0.12125,7.75e-05,6e-05,-1.5e-05,0.015,-0.0325,0.11875,0.0031424998,0.01152,0.0028074998,1742107589.403027
0.00875,0.02125,0.12125,1.5e-05,3e-05,-6e-05,0.02625,-0.0325,0.10875,0.0009625,0.0034475,0.00029,1742107589.516018
0.01,0.02125,0.12125,0.00023,9.25e-05,-4.5e-05,0.0225,-0.03,0.115,-0.0003825,-0.0015875,-0.0036175,1742107589.629279
0.00875,0.02125,0.12125,3e-05,1.5e-05,-6e-05,0.0175,-0.02875,0.125,-0.002045,-0.0007775,-0.00441,1742107589.743327
0.00875,0.02125,0.12125,7.75e-05,0.0,-0.000107500004,0.02125,-0.0325,0.1175,0.0003975,0.0007475,-0.00023,1742107589.8571231
0.00875,0.02125,0.12125,9.25e-05,3e-05,-4.5e-05,0.02125,-0.035,0.11875,9.25e-05,-6e-05,-0.00035,1742107589.9714
0.00875,0.02,0.12125,4.5e-05,1.5e-05,-3e-05,0.02125,-0.035,0.115,0.00125,6e-05,0.0003975,1742107590.084979
0.01,0.02125,0.12125,0.0,4.5e-05,-7.75e-05,0.01875,-0.0375,0.11625,-0.005325,-0.008575,0.00035,1742107590.19822
0.01,0.02125,0.12125,1.5e-05,0.0,-6e-05,-0.00125,-0.02625,0.14625,0.003005,0.0033725,-0.0001375,1742107590.312178
0.00875,0.02125,0.12125,0.0002125,3e-05,-1.5e-05,0.01625,-0.0275,0.12,0.0050500003,0.0107125,-0.00267,1742107590.426121
0.01,0.02125,0.12125,0.00029,0.00016750001,-0.000305,0.02,-0.0325,0.1175,-0.0005025,0.00087,0.00079250004,1742107590.540141
0.01,0.02,0.12125,6e-05,6e-05,-0.000107500004,0.02,-0.0325,0.11875,-0.0007475,-0.00059500005,7.75e-05,1742107590.655033
0.01,0.02,0.12125,6e-05,1.5e-05,0.0,0.01875,-0.03125,0.12,-0.000275,-0.0012050001,7.75e-05,1742107590.768904
0.01,0.02,0.12125,3e-05,1.5e-05,-1.5e-05,0.0175,-0.03125,0.12,-1.5e-05,-0.002365,0.00055,1742107590.882142
0.01,0.02125,0.12125,-4.5e-05,0.0,-4.5e-05,0.01375,-0.02625,0.11875,-0.001235,-0.00174,0.000275,1742107590.9961238
0.00875,0.02125,0.12125,-4.5e-05,-1.5e-05,-6e-05,0.0125,-0.02125,0.11625,0.0002125,-0.000655,7.75e-05,1742107591.113055
0.00875,0.02125,0.12125,-3e-05,-1.5e-05,-0.0001225,0.00875,-0.0225,0.12875,-0.005295,-0.0061025,0.0003975,1742107591.22316
0.00875,0.02,0.12125,-3e-05,-1.5e-05,-4.5e-05,0.00875,-0.02875,0.12375,0.00058,0.0007325,-7.75e-05,1742107591.337024
0.01,0.02125,0.12125,-0.0002125,-7.75e-05,-1.5e-05,0.00875,-0.02625,0.1225,0.00029,-0.0001375,0.00023,1742107591.452231
0.00875,0.02125,0.12125,-0.0001975,-1.5e-05,1.5e-05,0.01,-0.0275,0.12125,-0.001725,-0.0010525,0.00035,1742107591.564142
0.00875,0.02125,0.12125,0.0,0.0,-6e-05,0.0075,-0.025,0.12625,0.00064,0.0010675,0.0009775,1742107591.677879
0.00875,0.02125,0.12125,4.5e-05,0.0,-1.5e-05,0.01,-0.03,0.125,0.006745,0.012390001,0.002625,1742107591.7930272
0.01,0.02125,0.12125,4.5e-05,3e-05,-3e-05,0.02625,-0.03375,0.11125,0.0046550003,0.00975,0.00125,1742107591.903883
0.00875,0.02125,0.12125,1.5e-05,4.5e-05,-6e-05,0.02875,-0.03375,0.1175,-0.0001825,0.0001525,0.0001525,1742107592.016997
0.00875,0.02125,0.12125,0.0,3e-05,-4.5e-05,0.03,-0.03,0.11125,-0.000655,-0.00685,-0.0033425,1742107592.134228
0.01,0.02125,0.12125,1.5e-05,1.5e-05,-1.5e-05,0.0175,-0.03625,0.1325,-0.0050500003,-0.012025,-0.001435,1742107592.2452219
0.00875,0.02125,0.12125,0.0,0.0,-1.5e-05,0.0125,-0.03375,0.1225,-0.0029749998,-0.0072775004,-0.00142,1742107592.359236
0.00875,0.02125,0.12125,0.000107500004,1.5e-05,-3e-05,0.00625,-0.02875,0.12375,-0.0027474998,-0.0060275,-0.0010675,1742107592.47321
0.01,0.02125,0.12125,6e-05,0.0,-9.25e-05,0.00125,-0.0225,0.1225,-0.00023,-0.0031575,-0.00113,1742107592.587193
0.00875,0.02125,0.12125,-4.5e-05,0.0,1.5e-05,-0.00125,-0.0225,0.12375,0.000885,-0.00087,-0.0008075,1742107592.70114
0.00875,0.02125,0.12125,0.0001225,6e-05,-6e-05,-0.00125,-0.02625,0.12125,0.001145,-0.000305,-0.0002125,1742107592.815243
0.00875,0.02125,0.12125,7.75e-05,3e-05,-3e-05,-0.0025,-0.02875,0.1175,0.00093,0.0012825,9.25e-05,1742107592.932469
0.00875,0.02125,0.12125,0.0001225,1.5e-05,-7.75e-05,0.0,-0.025,0.12875,0.0024249998,0.0119175,0.00299,1742107593.0419579
0.00875,0.02125,0.12125,0.000107500004,4.5e-05,-6e-05,0.0225,-0.0275,0.10625,0.0032650002,0.0107125,-0.0016625,1742107593.155499
0.01,0.02125,0.12125,-1.5e-05,1.5e-05,-6e-05,0.01875,-0.025,0.11875,0.0009925,0.002685,-0.0005025,1742107593.272792
0.01,0.02125,0.12125,-1.5e-05,3e-05,-4.5e-05,0.01875,-0.03,0.1225,-7.75e-05,1.5e-05,-6e-05,1742107593.383151
0.00875,0.02125,0.12125,4.5e-05,6e-05,-7.75e-05,0.0225,-0.03,0.1175,0.0004275,-0.00325,-0.0013125,1742107593.497129
0.00875,0.02125,0.12125,1.5e-05,3e-05,-6e-05,0.0125,-0.03125,0.1225,0.0011900001,-0.0012825,-0.0010075001,1742107593.6136808
0.00875,0.0225,0.12125,-1.5e-05,1.5e-05,1.5e-05,0.01,-0.02875,0.14,0.0039224997,0.0122975,-0.0061025,1742107593.725021
0.00875,0.02125,0.12125,-0.0001375,3e-05,9.25e-05,0.03375,-0.06375,0.0975,0.00142,0.001785,-0.0005025,1742107593.838994
0.00875,0.02,0.12125,3e-05,3e-05,-4.5e-05,0.03125,-0.04125,0.11625,0.000275,-0.000107500004,-0.0006875,1742107593.953137
0.01,0.02125,0.12125,4.5e-05,1.5e-05,-0.000107500004,0.03125,-0.0375,0.115,-0.000275,-0.0005025,0.00035,1742107594.0670102
0.00875,0.02125,0.12125,4.5e-05,3e-05,-4.5e-05,0.03125,-0.04125,0.11625,0.003175,0.0023800002,0.0010225,1742107594.180799
0.00875,0.02125,0.12125,-1.5e-05,4.5e-05,0.0,0.03375,-0.04,0.1125,-0.000885,-0.000885,-0.0010375,1742107594.294146
0.00875,0.02125,0.12125,4.5e-05,3e-05,-7.75e-05,0.0325,-0.04,0.11625,-0.00154,-0.0019525,0.0004125,1742107594.408013
0.00875,0.0225,0.12125,3e-05,1.5e-05,-9.25e-05,0.03125,-0.04,0.11125,-0.0024725,-0.0068200002,0.00087,1742107594.522005
0.01,0.02125,0.12125,1.5e-05,4.5e-05,-1.5e-05,0.02375,-0.0225,0.13375,-0.0094449995,-0.01477,0.0042425,1742107594.6359968
0.00875,0.02125,0.12125,-4.5e-05,1.5e-05,1.5e-05,0.0125,-0.02875,0.12375,-0.0052024997,-0.0075225,0.0010075001,1742107594.753082
0.00875,0.02125,0.12125,9.25e-05,1.5e-05,-4.5e-05,0.01875,-0.03,0.10625,0.0051424997,0.00949,-0.0001525,1742107594.86406
0.01,0.02125,0.12125,1.5e-05,3e-05,-7.75e-05,0.01625,-0.025,0.12875,0.0013125,0.000625,-0.004485,1742107594.977898
0.00875,0.0225,0.12125,0.0,-1.5e-05,-4.5e-05,0.02,-0.04,0.11875,0.0013875001,0.002,-0.00142,1742107595.092742
0.00875,0.02125,0.12125,0.000107500004,6e-05,-4.5e-05,0.02,-0.04125,0.11875,0.0012825,0.0007325,-0.0026099999,1742107595.2058828
0.00875,0.02125,0.12125,0.0001525,4.5e-05,-9.25e-05,0.02,-0.03125,0.12125,0.000655,0.0022274998,-0.0008075,1742107595.3198268
0.00875,0.02125,0.12125,0.0001525,4.5e-05,-0.000107500004,0.0225,-0.0325,0.12125,0.0019525,0.0024425,-0.0013575,1742107595.4337769
0.01,0.02125,0.12125,6e-05,1.5e-05,-6e-05,0.02375,-0.04125,0.1175,0.0010375,0.000535,-0.0009,1742107595.5469272
0.00875,0.02125,0.12125,4.5e-05,3e-05,-1.5e-05,0.025,-0.0375,0.11375,0.0004275,-0.00029,0.0003975,1742107595.660816
0.00875,0.02125,0.12125,-3e-05,7.75e-05,4.5e-05,0.0225,-0.03125,0.11875,0.0,-0.0043325,0.00177,1742107595.773806
0.01,0.02125,0.12125,-7.75e-05,4.5e-05,7.75e-05,0.02,-0.03,0.1125,-0.0012825,-0.0019824998,0.0027,1742107595.886965
0.01,0.02125,0.12125,4.5e-05,-3e-05,-0.000107500004,0.0175,-0.02625,0.12,-0.000625,-0.000275,0.0007775,1742107596.0009978
0.00875,0.0225,0.12125,7.75e-05,0.0,-0.0001525,0.0175,-0.0325,0.11875,-0.0004425,-0.00052,-3e-05,1742107596.115125
0.00875,0.02125,0.12125,1.5e-05,4.5e-05,-9.25e-05,0.0175,-0.03375,0.12,-0.0007175,-0.0015875,0.0001975,1742107596.232446
0.01,0.02125,0.12125,-1.5e-05,1.5e-05,-4.5e-05,0.0125,-0.03125,0.125,0.00151,0.00299,6e-05,1742107596.342687
0.00875,0.02125,0.12125,3e-05,-1.5e-05,0.0,0.0275,-0.0475,0.10375,0.0057675,0.009430001,-0.00618,1742107596.4558132
0.00875,0.02125,0.12125,-0.0001375,0.0,-0.000245,0.02375,-0.0325,0.10625,-0.00856,-0.010895001,0.00508,1742107596.572605
0.01,0.0225,0.12125,1.5e-05,1.5e-05,0.0,0.0075,-0.02,0.13625,-0.0074775,-0.0072475,0.00322,1742107596.683952
0.00875,0.02125,0.12125,0.0,3e-05,-3e-05,0.01625,-0.025,0.12625,0.0069274995,0.018860001,-0.0043325,1742107596.797795
0.00875,0.02125,0.12125,-1.5e-05,1.5e-05,-1.5e-05,0.03,-0.04375,0.1125,0.0016025,0.0062725,-0.002685,1742107596.912721
0.00875,0.02125,0.12125,0.0,1.5e-05,-3e-05,0.0325,-0.03625,0.11625,0.0009775,0.0018925001,0.000825,1742107597.025686
0.00875,0.02125,0.12125,3e-05,3e-05,-3e-05,0.035,-0.035,0.115,0.0024249998,0.0036925,0.000245,1742107597.138696
0.00875,0.02125,0.12125,-7.75e-05,1.5e-05,-4.5e-05,0.03625,-0.0375,0.11625,0.001465,0.0025475,-0.0028225,1742107597.252925
0.00875,0.02125,0.12125,7.75e-05,0.0,-6e-05,0.03875,-0.04625,0.11,0.0006725,0.000855,-0.00035,1742107597.364789
0.00875,0.02125,0.12125,1.5e-05,4.5e-05,-6e-05,0.03875,-0.0375,0.11375,0.00033500002,0.0018150001,-0.0029449998,1742107597.478822
0.00875,0.02125,0.12125,9.25e-05,3e-05,-3e-05,0.04,-0.0475,0.1075,-0.000245,-0.000365,-0.000275,1742107597.5929952
0.00875,0.02125,0.12125,4.5e-05,3e-05,-3e-05,0.03375,-0.03875,0.11625,-0.00122,-0.0025775002,4.5e-05,1742107597.706903
0.00875,0.02125,0.12125,-3e-05,1.5e-05,-4.5e-05,0.03875,-0.04375,0.115,-0.0013725,-0.0012675,0.00154,1742107597.820831
0.01,0.02125,0.12125,7.75e-05,3e-05,-1.5e-05,0.0375,-0.0425,0.11125,-0.00058,-0.0020599999,0.0021825,1742107597.934907
0.00875,0.02125,0.12125,-3e-05,-1.5e-05,-4.5e-05,0.03625,-0.03375,0.11125,-0.00171,-0.0039825,0.0049125,1742107598.0528908
0.00875,0.02125,0.12125,6e-05,0.0,-3e-05,0.02625,-0.0425,0.12375,0.0028525,-0.0025175,-0.001405,1742107598.162872
0.00875,0.02125,0.12125,-0.000107500004,-1.5e-05,-6e-05,0.02875,-0.02625,0.11625,-0.003005,-0.0023800002,0.0046075,1742107598.2769349
0.00875,0.0225,0.12125,-0.0001525,-3e-05,0.0,0.01625,-0.0175,0.145,-0.00325,-0.009125,0.0054325,1742107598.392549
0.00875,0.0225,0.12125,-0.0001375,-1.5e-05,1.5e-05,0.0025,-0.03,0.14875,-0.0077975,-0.008485,0.0049125,1742107598.50497
0.00875,0.02125,0.12125,-0.0001825,3e-05,7.75e-05,0.0075,-0.0275,0.125,-0.0009625,0.0006725,0.001405,1742107598.618857
0.00875,0.02125,0.12125,3e-05,1.5e-05,-7.75e-05,0.01875,-0.03,0.1125,0.00055,0.0040125,0.0002125,1742107598.732646
0.00875,0.0225,0.12125,-4.5e-05,-1.5e-05,-7.75e-05,0.01875,-0.03,0.12125,-0.00033500002,0.000655,0.0003975,1742107598.845842
0.00875,0.0225,0.12125,0.0,1.5e-05,-4.5e-05,0.02125,-0.03125,0.1175,-0.0007325,0.00029,0.0002125,1742107598.959865
0.00875,0.02125,0.12125,-0.0001825,-3e-05,3e-05,0.02125,-0.03125,0.12,-0.0010675,-0.000885,-0.0006875,1742107599.073942
0.00875,0.0225,0.12125,-1.5e-05,0.0,-1.5e-05,0.0175,-0.03125,0.12625,-0.000945,-0.0018,-0.000825,1742107599.187922
0.00875,0.0225,0.12125,-1.5e-05,1.5e-05,-4.5e-05,0.02,-0.02875,0.12125,-0.00064,0.0018925001,-0.0020299999,1742107599.3018649
0.00875,0.0225,0.12125,-1.5e-05,1.5e-05,-1.5e-05,0.025,-0.02375,0.115,-0.00264,-0.0047600004,-0.002595,1742107599.41594
0.01,0.0225,0.12125,0.000107500004,1.5e-05,-0.0001825,0.01125,-0.03,0.14,0.00084,0.0024575,0.0007775,1742107599.5325902
0.00875,0.0225,0.12125,0.000535,0.0001375,-0.00016750001,0.025,-0.03375,0.1075,0.0042575,0.0042275,0.00023,1742107599.642786
0.00875,0.0225,0.12125,-9.25e-05,1.5e-05,-3e-05,0.02375,-0.03,0.11375,-0.0012675,-0.0011900001,0.0036,1742107599.7568371
0.00875,0.0225,0.12125,-3e-05,1.5e-05,1.5e-05,0.02375,-0.03125,0.11625,-0.000855,-0.0029000002,-0.0001825,1742107599.8731499
0.00875,0.0225,0.12125,-6e-05,0.0,-3e-05,0.02125,-0.02125,0.11375,-0.00116,-0.00232,-0.00566,1742107599.9849222
0.00875,0.0225,0.12125,0.0001825,1.5e-05,-9.25e-05,0.0175,-0.03625,0.1275,0.0018625,0.003525,0.0003975,1742107600.098645
0.00875,0.0225,0.12125,0.0001225,3e-05,-1.5e-05,0.01875,-0.03,0.1225,-4.5e-05,-4.5e-05,0.000535,1742107600.2118359
0.00875,0.02125,0.12125,7.75e-05,1.5e-05,-4.5e-05,0.02,-0.02875,0.12,7.75e-05,-0.0001525,0.000107500004,1742107600.3257768
0.01,0.0225,0.12125,3e-05,3e-05,-7.75e-05,0.01875,-0.03,0.11875,-3e-05,-0.0004425,0.0001825,1742107600.4398668
0.00875,0.0225,0.12125,0.0,0.0,-6e-05,0.015,-0.02875,0.13375,0.0025625,0.0037375,0.00232,1742107600.553719
0.00875,0.0225,0.12125,1.5e-05,4.5e-05,-6e-05,0.0275,-0.025,0.1175,-0.0030975002,0.0037850002,-0.0007175,1742107600.667828
0.01,0.0225,0.12125,9.25e-05,3e-05,-9.25e-05,0.02625,-0.02875,0.12,-0.00032,-0.0007775,0.0003975,1742107600.781756
0.00875,0.0225,0.12125,0.0,0.0,-9.25e-05,0.025,-0.03,0.12,0.0002125,-0.0012825,0.0010525,1742107600.895839
0.00875,0.02125,0.12125,9.25e-05,1.5e-05,-4.5e-05,0.025,-0.03,0.1175,0.00058,0.00048750002,0.00177,1742107601.0124822
0.00875,0.0225,0.12125,0.000107500004,4.5e-05,-1.5e-05,0.025,-0.02875,0.11625,-0.00032,-0.0012050001,-0.0009,1742107601.122852
0.00875,0.02125,0.12125,1.5e-05,1.5e-05,-4.5e-05,0.02125,-0.025,0.12,-0.00267,-0.0007025,-0.0077199996,1742107601.2368388
0.00875,0.0225,0.12125,9.25e-05,1.5e-05,-0.0001225,0.0175,-0.03,0.12,0.00052,0.0027325,0.0016625,1742107601.352704
0.00875,0.02125,0.12125,0.0001825,1.5e-05,-3e-05,0.02375,-0.02875,0.11625,0.0003825,-0.0002125,0.00116,1742107601.4636118
0.00875,0.02125,0.12125,0.000107500004,4.5e-05,-7.75e-05,0.02375,-0.02875,0.11875,0.00035,0.000655,3e-05,1742107601.5775092
0.00875,0.0225,0.12125,-7.75e-05,3e-05,-3e-05,0.02375,-0.0275,0.12,-0.0001225,0.000245,0.0,1742107601.690613
0.01125,0.01625,0.125,0.0016475001,0.0003825,0.0015725,0.02375,-0.02875,0.12,-0.000305,-4.5e-05,-0.000365,1742107601.804887
0.01,0.02125,0.12125,-0.0001975,0.000275,-4.5e-05,0.0225,-0.02875,0.12,0.00016750001,0.0001825,-0.0001975,1742107601.91868
0.01,0.02125,0.12125,0.0001525,-3e-05,-0.0001375,0.02375,-0.0275,0.12,4.5e-05,0.0007025,0.0001975,1742107602.032537
0.01,0.02125,0.12125,0.000107500004,1.5e-05,-7.75e-05,0.025,-0.03,0.11625,-0.0007025,-0.0007175,-0.0013425,1742107602.145822
0.00875,0.02125,0.12125,0.0001525,0.0,-3e-05,0.0225,-0.02625,0.13375,0.0019225,-0.0003825,0.00079250004,1742107602.259586
0.01,0.02125,0.12125,6e-05,1.5e-05,-6e-05,0.0275,-0.02375,0.12125,-0.0013575,0.0020899998,0.0010525,1742107602.373662
0.01,0.02125,0.12125,-7.75e-05,-4.5e-05,0.0,0.0275,-0.03,0.1175,-0.0001825,-0.0016625,0.00026,1742107602.487755
0.00875,0.0225,0.12125,-0.0001375,6e-05,-1.5e-05,0.02625,-0.02875,0.12,6e-05,-0.0012050001,-0.00122,1742107602.601738
0.00875,0.02125,0.12125,0.0,1.5e-05,-6e-05,0.02625,-0.0325,0.12,0.00232,0.0010075001,-0.0007175,1742107602.715591
0.01,0.02125,0.12125,4.5e-05,7.75e-05,-4.5e-05,0.0325,-0.03125,0.11625,-0.0018,0.00122,0.0021525,1742107602.8327649
0.01,0.0225,0.12125,0.00016750001,-3e-05,-3e-05,0.0325,-0.03375,0.1125,-0.0005025,-0.0013125,0.00026,1742107602.9437828
0.00875,0.02125,0.12125,1.5e-05,1.5e-05,-7.75e-05,0.03,-0.03125,0.11875,-0.0006725,-0.0012975,7.75e-05,1742107603.0577579
0.00875,0.02125,0.12125,4.5e-05,1.5e-05,-3e-05,0.03,-0.03125,0.11875,-0.000565,-0.000535,0.0001975,1742107603.175734
0.01,0.02125,0.12125,0.000107500004,3e-05,-3e-05,0.02875,-0.02875,0.11875,-0.0003825,-0.0001975,-9.25e-05,1742107603.2858372
0.00875,0.02125,0.12125,-3e-05,0.0,-4.5e-05,0.02875,-0.03125,0.11875,-9.25e-05,-0.000245,-0.0001375,1742107603.4006982
0.00875,0.02125,0.12125,7.75e-05,0.0,-0.000107500004,0.02875,-0.03,0.11875,0.000107500004,-0.0004275,0.0001375,1742107603.513675
0.00875,0.02125,0.12125,1.5e-05,1.5e-05,-3e-05,0.02875,-0.03,0.1175,3e-05,-0.00029,-9.25e-05,1742107603.627785
0.00875,0.02125,0.12125,4.5e-05,3e-05,-4.5e-05,0.02875,-0.02875,0.11875,-0.000275,-0.0007475,-0.000305,1742107603.741847
0.00875,0.02125,0.12125,0.000107500004,-1.5e-05,-4.5e-05,0.035,-0.02875,0.11,0.0007625,-0.00229,-0.003585,1742107603.8556101
0.01,0.02125,0.12125,6e-05,3e-05,-4.5e-05,0.0225,-0.02625,0.115,0.0009775,0.0015875,0.0025475,1742107603.971749
0.00875,0.02125,0.12125,1.5e-05,3e-05,-3e-05,0.0225,-0.025,0.12375,-0.0024725,-0.003875,0.0022125002,1742107604.083642
0.00875,0.02125,0.12125,4.5e-05,1.5e-05,-7.75e-05,0.02,-0.03375,0.12625,-0.0016625,0.0022125002,-0.0033725,1742107604.1976142
0.00875,0.02125,0.12125,0.0001375,1.5e-05,-7.75e-05,0.02125,-0.0275,0.11875,-0.001465,0.0016625,-0.00148,1742107604.312375
0.00875,0.02125,0.12125,0.000107500004,1.5e-05,-4.5e-05,0.0225,-0.02375,0.11875,-0.0030825,0.00045750002,-0.00177,1742107604.425667
0.00875,0.02125,0.12125,7.75e-05,0.0,-7.75e-05,0.02125,-0.03,0.12375,-0.000365,0.000305,-0.0013575,1742107604.539623
0.00875,0.02125,0.12125,6e-05,1.5e-05,-4.5e-05,0.02,-0.0275,0.12125,0.0001225,-3e-05,-0.00032,1742107604.655086
0.01,0.02125,0.12125,9.25e-05,1.5e-05,-7.75e-05,0.02125,-0.03,0.12125,-0.0002125,-0.0007475,0.00061,1742107604.767621
0.00875,0.02125,0.12125,3e-05,1.5e-05,-4.5e-05,0.02,-0.02625,0.12125,-0.00035,-0.0001975,4.5e-05,1742107604.881609
0.00875,0.02125,0.12125,-1.5e-05,1.5e-05,-4.5e-05,0.02125,-0.02875,0.1225,0.0012825,-0.00177,-0.00177,1742107604.99566
0.00875,0.02125,0.12125,3e-05,1.5e-05,-6e-05,0.0175,-0.02875,0.12125,0.0004275,0.000275,0.00032,1742107605.113515
0.00875,0.02125,0.12125,6e-05,-1.5e-05,-7.75e-05,0.01875,-0.03,0.12125,0.00055,0.0007025,0.0039224997,1742107605.2224488
0.00875,0.02125,0.12125,0.0,0.0,-7.75e-05,0.02375,-0.02,0.12,-3e-05,0.0009775,0.0060425,1742107605.335569
0.00875,0.02125,0.12125,3e-05,0.0,-1.5e-05,0.02375,-0.02125,0.12125,0.0001975,-0.000625,0.00331,1742107605.452827
0.00875,0.02125,0.12125,-4.5e-05,6e-05,4.5e-05,0.0225,-0.0325,0.12,0.000365,-0.0001225,-0.00033500002,1742107605.563636
0.00875,0.02125,0.12125,1.5e-05,1.5e-05,-6e-05,0.02125,-0.03,0.12,6e-05,-0.0002125,-0.0004275,1742107605.677588
0.00875,0.02125,0.12125,3e-05,0.0,-6e-05,0.02125,-0.02875,0.11875,-0.0006875,0.00016750001,-0.001785,1742107605.792415
0.00875,0.02125,0.12125,0.0,1.5e-05,-3e-05,0.02125,-0.0375,0.11875,6e-05,0.00296,-0.0047750003,1742107605.9055538
0.00875,0.02125,0.12125,0.0001375,1.5e-05,-7.75e-05,0.0225,-0.02375,0.115,7.75e-05,0.001755,-0.0054925,1742107606.0195231
0.00875,0.02125,0.12125,9.25e-05,-1.5e-05,-0.000107500004,0.0225,-0.02625,0.1225,-0.004745,0.001235,-0.0009,1742107606.133882
0.00875,0.02125,0.12125,6e-05,1.5e-05,-4.5e-05,0.0225,-0.035,0.11875,-0.0013875001,-0.0007475,0.0019675,1742107606.247587
0.00875,0.02125,0.12125,6e-05,3e-05,-7.75e-05,0.02375,-0.03,0.12,-0.000275,-0.00023,0.000275,1742107606.361598
0.00875,0.02125,0.12125,3e-05,1.5e-05,-1.5e-05,0.02375,-0.02875,0.12,0.0003825,4.5e-05,-0.0015875,1742107606.475626
0.00875,0.02125,0.12125,3e-05,3e-05,1.5e-05,0.025,-0.005,0.11625,-0.0027925,0.00331,-0.0068825004,1742107606.5925481
0.00875,0.02125,0.12125,0.0001225,1.5e-05,-7.75e-05,0.02625,-0.02375,0.12,-0.0029000002,0.000885,0.0013875001,1742107606.7033799
0.00875,0.02,0.12125,6e-05,1.5e-05,-9.25e-05,0.025,-0.03,0.11875,-0.00029,0.00035,-9.25e-05,1742107606.8175418
0.00875,0.02125,0.12125,4.5e-05,3e-05,-7.75e-05,0.02625,-0.02625,0.12,-0.00026,0.0033425,-0.0018925001,1742107606.9327722
0.01,0.02125,0.12125,-1.5e-05,1.5e-05,-1.5e-05,0.0275,-0.02625,0.11875,-0.00016750001,0.00331,-0.00299,1742107607.0455759
0.00875,0.02125,0.12125,0.0,1.5e-05,-1.5e-05,0.03,-0.0275,0.11875,-0.00151,-6e-05,0.0010375,1742107607.15956
0.00875,0.02125,0.12125,4.5e-05,1.5e-05,-3e-05,0.02875,-0.03125,0.11875,-0.00029,-0.0004125,-0.000245,1742107607.2736058
0.00875,0.02125,0.12125,7.75e-05,3e-05,-9.25e-05,0.02875,-0.03125,0.1175,-1.5e-05,-0.0001825,-6e-05,1742107607.38766
0.00875,0.02125,0.12125,4.5e-05,1.5e-05,-4.5e-05,0.0275,-0.03125,0.1175,-1.5e-05,-0.0001375,3e-05,1742107607.501599
0.00875,0.02125,0.12125,4.5e-05,0.0,-1.5e-05,0.0275,-0.03125,0.11875,-3e-05,-3e-05,-3e-05,1742107607.6156108
0.00875,0.02125,0.12125,4.5e-05,0.0,-6e-05,0.02875,-0.03125,0.11875,-9.25e-05,7.75e-05,0.0001975,1742107607.732011
0.00875,0.02125,0.12125,-1.5e-05,0.0,-6e-05,0.0275,-0.0325,0.1175,-0.000885,-0.00061,0.00087,1742107607.8436868
0.00875,0.02125,0.12125,-4.5e-05,1.5e-05,-1.5e-05,0.02375,-0.02625,0.12,0.000825,-0.0043325,0.004105,1742107607.9573288
0.00875,0.02125,0.12125,-7.75e-05,4.5e-05,1.5e-05,0.01875,-0.02875,0.11625,0.0021675,-0.0030375,-0.0013275,1742107608.07174
0.00875,0.02125,0.12125,-0.000305,1.5e-05,9.25e-05,0.01875,-0.02875,0.1225,-6e-05,-0.000945,-0.00029,1742107608.185754
0.00875,0.02125,0.12125,1.5e-05,6e-05,1.5e-05,0.01625,-0.03,0.12,0.00016750001,-0.000655,0.0001975,1742107608.2993338
0.00875,0.02125,0.12125,6e-05,1.5e-05,-4.5e-05,0.0175,-0.03125,0.12,0.0001825,-0.0010075001,0.000245,1742107608.412437
0.00875,0.02125,0.12125,6e-05,3e-05,-6e-05,0.00625,-0.02125,0.14,0.0001825,-0.0007775,0.001785,1742107608.5263228
0.00875,0.02125,0.1225,0.00023,7.75e-05,-9.25e-05,0.005,-0.01625,0.13375,-3e-05,-0.00023,0.0007775,1742107608.640446
0.00875,0.01875,0.12125,0.0001825,9.25e-05,-6e-05,0.00875,-0.025,0.12375,0.00116,0.00154,-7.75e-05,1742107608.754333
0.00875,0.02125,0.12125,0.0,1.5e-05,-3e-05,0.0125,-0.02875,0.11875,0.0036775,0.00508,0.0040749996,1742107608.8688781
0.00875,0.0225,0.12125,7.75e-05,1.5e-05,-0.0001225,0.0175,-0.00875,0.12375,0.0020150002,7.75e-05,-0.0027,1742107608.9813068
0.01,0.02125,0.12125,6e-05,0.0,-4.5e-05,0.0175,-0.03125,0.12,0.0001375,-0.0001375,-4.5e-05,1742107609.095575
0.00875,0.02125,0.12125,-4.5e-05,-1.5e-05,-6e-05,0.01625,-0.03,0.12125,0.000275,-4.5e-05,0.00116,1742107609.211025
0.00875,0.02125,0.12125,1.5e-05,3e-05,-0.0001225,0.01875,-0.015,0.12375,0.000365,-0.0004125,0.001435,1742107609.3233762
0.00875,0.02125,0.12125,0.0,1.5e-05,-3e-05,0.01625,-0.03125,0.12,0.0001525,-0.0007325,-0.002335,1742107609.437454
0.0075,0.02,0.12125,3e-05,1.5e-05,1.5e-05,0.01375,-0.03125,0.1225,0.001495,-0.00116,-0.0069875,1742107609.551858
0.00875,0.02125,0.12125,0.00023,3e-05,-4.5e-05,0.0125,-0.0325,0.135,0.0046075,-0.000245,-0.0036624998,1742107609.66549
0.01,0.02125,0.12125,9.25e-05,0.0,-6e-05,0.0125,-0.03125,0.12,0.0001975,-3e-05,0.00023,1742107609.779333
0.00875,0.02125,0.12125,7.75e-05,-1.5e-05,-9.25e-05,0.01,-0.03125,0.1225,-0.001235,3e-05,0.0007775,1742107609.8933911
0.00875,0.02125,0.12125,4.5e-05,1.5e-05,-4.5e-05,0.01375,-0.02625,0.1275,0.003815,0.0096125,0.0027,1742107610.0072892
0.00875,0.02125,0.12125,-1.5e-05,3e-05,-3e-05,0.02375,-0.02625,0.12375,0.004165,0.0168,-0.003175,1742107610.1203399
0.00875,0.02125,0.12125,-4.5e-05,0.0,-4.5e-05,0.0375,-0.045,0.09875,0.001525,0.002685,-0.0027325,1742107610.234337
0.00875,0.02125,0.12125,0.0,0.0,-6e-05,0.03875,-0.0375,0.085,-0.00821,-0.019790001,0.0032650002,1742107610.352567
0.00875,0.02125,0.12125,-1.5e-05,1.5e-05,-6e-05,0.005,-0.02125,0.14125,-0.0054175,-0.010284999,0.0010675,1742107610.462444
0.00875,0.02125,0.12125,9.25e-05,1.5e-05,-4.5e-05,0.00625,-0.03,0.13,0.004485,0.007125,0.0022425,1742107610.576278
0.00875,0.02125,0.12125,0.0001525,4.5e-05,-3e-05,0.02125,-0.03,0.10875,-0.0010525,-0.0034025,0.0016175,1742107610.690368
0.00875,0.02125,0.12125,1.5e-05,3e-05,-9.25e-05,0.01,-0.025,0.135,0.0004425,0.00061,0.00064,1742107610.8043149
0.00875,0.02125,0.12125,-4.5e-05,-1.5e-05,-7.75e-05,0.0275,-0.0275,0.10625,0.00473,0.0114750005,-0.0019675,1742107610.9183612
0.00875,0.02125,0.12125,-9.25e-05,0.0,-3e-05,0.02625,-0.02875,0.12,-0.0006875,-0.00174,-9.25e-05,1742107611.0324328
0.00875,0.02125,0.12125,1.5e-05,1.5e-05,-3e-05,0.025,-0.03125,0.11875,-0.001235,-0.0018,-0.0001375,1742107611.146542
0.00875,0.02125,0.12125,4.5e-05,3e-05,-6e-05,0.02375,-0.03,0.11875,-0.0004725,-0.00035,-0.0001525,1742107611.260462
0.00875,0.02125,0.12125,-6e-05,0.0,-6e-05,0.02375,-0.03,0.12,-0.000535,-0.000655,-0.0001825,1742107611.374449
0.00875,0.02125,0.12125,9.25e-05,3e-05,-4.5e-05,0.02375,-0.03,0.12,-0.00032,-0.00079250004,0.0001525,1742107611.489068
0.00875,0.02125,0.12125,-4.5e-05,0.0,-3e-05,0.0225,-0.03,0.12125,-0.0001225,-0.00026,7.75e-05,1742107611.60237
0.00875,0.02125,0.12125,-6e-05,-1.5e-05,-3e-05,0.0225,-0.02875,0.12,0.0,-3e-05,-4.5e-05,1742107611.716332
0.00875,0.02125,0.12125,-6e-05,-1.5e-05,-1.5e-05,0.0225,-0.02875,0.12,-6e-05,-3e-05,7.75e-05,1742107611.833065
0.00875,0.0225,0.12125,-0.000275,-7.75e-05,7.75e-05,0.0225,-0.02875,0.12,-0.0001975,-0.000275,4.5e-05,1742107611.944363
0.00875,0.0225,0.12125,0.000107500004,1.5e-05,-7.75e-05,0.0225,-0.02875,0.12,1.5e-05,3e-05,4.5e-05,1742107612.058145
0.00875,0.0225,0.12125,3e-05,1.5e-05,-9.25e-05,0.0225,-0.02875,0.12125,0.0001825,0.0004425,0.00055,1742107612.17116
0.00875,0.0225,0.12125,4.5e-05,3e-05,-7.75e-05,0.02375,-0.02875,0.11875,-0.0001975,0.0001825,-0.00045750002,1742107612.2843788
0.00875,0.02125,0.12125,6e-05,4.5e-05,-7.75e-05,0.0225,-0.0275,0.1225,0.000305,0.0010225,-0.000107500004,1742107612.398311
0.00875,0.0225,0.12125,6e-05,3e-05,-6e-05,0.02375,-0.03,0.12,-0.0001525,-0.0001975,0.0002125,1742107612.512436
0.00875,0.02125,0.12125,0.0001525,4.5e-05,-9.25e-05,0.02375,-0.02875,0.12,0.000305,0.0004275,0.00029,1742107612.626048
0.00875,0.0225,0.12125,3e-05,0.0,-1.5e-05,0.02375,-0.0275,0.12125,-0.000305,-4.5e-05,-0.0018775001,1742107612.739373
0.00875,0.02125,0.12125,3e-05,3e-05,-4.5e-05,0.025,-0.03,0.11875,3e-05,0.0020150002,-0.002105,1742107612.853215
0.00875,0.02125,0.12125,1.5e-05,1.5e-05,-6e-05,0.0275,-0.035,0.115,0.00026,-0.0001975,0.0012975,1742107612.967168
0.00875,0.0225,0.12125,3e-05,0.0,-4.5e-05,0.025,-0.02875,0.11625,-0.000275,-0.0046075,0.0052024997,1742107613.081275
0.00875,0.0225,0.12125,4.5e-05,3e-05,-6e-05,0.01875,-0.02875,0.12125,-0.0042275,-0.00685,-0.00319,1742107613.196542
0.00875,0.02125,0.12125,7.75e-05,3e-05,1.5e-05,0.0125,-0.0275,0.12625,-0.0010075001,-0.0025775002,-0.0024100002,1742107613.312
0.00875,0.0225,0.12125,9.25e-05,3e-05,-3e-05,0.0125,-0.02375,0.12125,-0.000535,-0.002655,-0.00113,1742107613.42336
0.00875,0.02125,0.12125,7.75e-05,1.5e-05,-6e-05,0.0075,-0.025,0.12375,-0.0030525,-0.0060875,-0.000565,1742107613.5373409
0.00875,0.02125,0.12125,7.75e-05,1.5e-05,-9.25e-05,0.0025,-0.02125,0.12625,0.0001825,-0.0013725,-0.00026,1742107613.654479
0.00875,0.02125,0.12125,0.0,3e-05,-4.5e-05,0.00375,-0.02125,0.1275,0.00389,0.0007175,-0.00032,1742107613.7652469
0.00875,0.02125,0.12125,-3e-05,0.0,-3e-05,0.0075,-0.025,0.1225,-0.0021975,9.25e-05,0.0021525,1742107613.8792
0.00875,0.0225,0.12125,1.5e-05,1.5e-05,-7.75e-05,0.00875,-0.025,0.12,0.000565,0.0016475001,7.75e-05,1742107613.993172
0.00875,0.0225,0.12125,-6e-05,0.0,-3e-05,0.005,-0.02125,0.13125,0.00116,0.004975,0.0020599999,1742107614.106081
0.00875,0.02125,0.12125,1.5e-05,3e-05,-1.5e-05,0.01625,-0.025,0.13125,0.0042875,0.0163125,0.00116,1742107614.219053
0.00875,0.0225,0.12125,-1.5e-05,0.0,-1.5e-05,0.03,-0.04,0.11625,0.0024249998,0.0054925,0.00059500005,1742107614.3323038
0.00875,0.02125,0.12125,1.5e-05,0.0,-4.5e-05,0.0325,-0.03375,0.1175,0.000305,3e-05,-0.0002125,1742107614.445179
0.00875,0.0225,0.12125,-4.5e-05,0.0,-7.75e-05,0.03125,-0.035,0.11875,0.0013275,-0.0027774998,-0.001495,1742107614.562112
0.00875,0.02125,0.12125,-1.5e-05,3e-05,-4.5e-05,0.03375,-0.0275,0.115,-0.0013575,0.00116,0.00151,1742107614.675664
0.00875,0.0225,0.12125,3e-05,1.5e-05,-3e-05,0.0275,-0.03625,0.115,0.00229,-0.0059825,-0.001495,1742107614.78723
0.00875,0.02125,0.12125,-1.5e-05,3e-05,-9.25e-05,0.015,-0.0275,0.1375,-0.006715,-0.009140001,0.0022274998,1742107614.901736
0.00875,0.02125,0.12125,0.0001975,0.0,-0.000107500004,0.01625,-0.03625,0.12625,-0.000275,0.00299,0.0013425,1742107615.015172
0.00875,0.02375,0.12125,0.0001225,3e-05,-0.000107500004,0.02375,-0.025,0.1175,0.004975,0.01857,-0.0016625,1742107615.129169
0.00875,0.02125,0.12125,9.25e-05,3e-05,0.0,0.03625,-0.03125,0.11,-0.001495,-0.0016775,0.000825,1742107615.2432342
0.00875,0.02125,0.12125,4.5e-05,3e-05,-7.75e-05,0.03375,-0.035,0.115,-0.00032,-0.00032,0.00026,1742107615.3572412
0.00875,0.0225,0.12125,3e-05,4.5e-05,-4.5e-05,0.03375,-0.035,0.11625,-0.00026,0.0001975,0.00023,1742107615.471188
0.00875,0.0225,0.12125,1.5e-05,1.5e-05,-4.5e-05,0.035,-0.0375,0.1175,0.00125,0.00091500004,0.0009625,1742107615.585022
0.00875,0.0225,0.12125,9.25e-05,1.5e-05,-4.5e-05,0.03625,-0.03125,0.1125,-0.00048750002,0.000365,0.0011900001,1742107615.6981819
0.00875,0.0225,0.12125,3e-05,1.5e-05,-9.25e-05,0.03375,-0.03375,0.11375,-0.0001525,0.0002125,0.00113,1742107615.812481
0.00875,0.0225,0.12125,-1.5e-05,0.0,-4.5e-05,0.035,-0.0325,0.11375,-0.00032,-0.0001225,0.0002125,1742107615.926191
0.00875,0.0225,0.12125,3e-05,1.5e-05,-6e-05,0.035,-0.03125,0.11625,-0.00035,-0.000107500004,-7.75e-05,1742107616.040236
0.00875,0.02125,0.12125,6e-05,1.5e-05,-1.5e-05,0.035,-0.0325,0.11625,-0.0004725,-0.00059500005,-3e-05,1742107616.1548831
0.00875,0.02125,0.12125,-6e-05,1.5e-05,-4.5e-05,0.03375,-0.0325,0.11625,0.0001825,-0.00032,0.000245,1742107616.268028
0.00875,0.02125,0.12125,4.5e-05,3e-05,-4.5e-05,0.03375,-0.03125,0.11625,0.000855,0.000107500004,0.00032,1742107616.380938
0.00875,0.0225,0.12125,0.000107500004,4.5e-05,-6e-05,0.03375,-0.0325,0.11625,0.0004425,-0.0013425,0.00055,1742107616.4940228
0.00875,0.02125,0.12125,7.75e-05,1.5e-05,-7.75e-05,0.03125,-0.03125,0.1175,0.0,-0.0021975,0.00052,1742107616.607989
0.00875,0.02125,0.12125,0.0,0.0,-4.5e-05,0.02875,-0.0325,0.12125,-0.00064,-0.001755,0.00061,1742107616.722194
0.00875,0.0225,0.12125,0.0,1.5e-05,-4.5e-05,0.0275,-0.03,0.1175,-0.00032,-0.0015875,0.00023,1742107616.83616
0.00875,0.0225,0.12125,-3e-05,3e-05,-3e-05,0.02875,-0.02375,0.12875,0.0036,-0.0021675,-0.0019225,1742107616.95266
0.00875,0.02125,0.12125,-1.5e-05,0.0,-4.5e-05,0.0225,-0.035,0.11875,-0.00026,0.0008075,0.00154,1742107617.063992
0.00875,0.0225,0.12125,1.5e-05,0.0,-7.75e-05,0.03,-0.0225,0.1175,0.002715,0.00917,1.5e-05,1742107617.1779258
0.00875,0.02125,0.12125,7.75e-05,4.5e-05,1.5e-05,0.035,-0.03375,0.10625,0.0003975,0.00059500005,-0.0009625,1742107617.2916749
0.00875,0.0225,0.12125,3e-05,3e-05,-0.000107500004,0.03125,-0.03625,0.10375,-0.0004125,-0.0113825,0.002105,1742107617.40515
0.00875,0.0225,0.12125,-1.5e-05,1.5e-05,-7.75e-05,0.02,-0.0275,0.12375,-0.0001225,-0.0066975,-0.0007775,1742107617.519277
0.00875,0.0225,0.12125,-9.25e-05,1.5e-05,-4.5e-05,0.01125,-0.03125,0.13375,-0.0018475,-0.0026099999,-0.0007025,1742107617.63408
0.00875,0.0225,0.12125,4.5e-05,4.5e-05,-3e-05,0.02,-0.0325,0.115,0.005265,0.0099174995,0.0018300001,1742107617.746943
0.00875,0.0225,0.12125,1.5e-05,3e-05,-6e-05,0.0275,-0.03125,0.1175,0.00229,0.0046225,0.002395,1742107617.859942
0.00875,0.0225,0.12125,1.5e-05,1.5e-05,-3e-05,0.02875,-0.03,0.115,-0.00142,-0.003005,0.0001225,1742107617.9731882
0.00875,0.0225,0.12125,4.5e-05,4.5e-05,-1.5e-05,0.02375,-0.02125,0.1175,-0.00531,-0.0050975,-0.008880001,1742107618.087253
0.00875,0.0225,0.12125,0.000107500004,3e-05,-6e-05,0.015,-0.0325,0.12125,0.0007775,0.0029749998,0.002365,1742107618.20093
0.00875,0.0225,0.12125,0.000107500004,1.5e-05,-0.000107500004,0.0225,-0.03,0.12,0.0004725,0.001725,0.0025325,1742107618.313925
0.00875,0.02125,0.12125,0.0001525,1.5e-05,-4.5e-05,0.025,-0.0275,0.1175,-0.0004125,4.5e-05,0.000305,1742107618.427069
0.00875,0.0225,0.12125,3e-05,1.5e-05,-1.5e-05,0.02125,-0.03375,0.12375,-0.00055,-0.0015725,-0.00052,1742107618.541215
0.00875,0.02125,0.12125,0.0,0.0,-7.75e-05,0.0225,-0.02625,0.10375,0.008042499,0.0077975,0.0018475,1742107618.655654
0.00875,0.0225,0.12125,-1.5e-05,1.5e-05,-1.5e-05,0.03125,-0.035,0.10875,-0.00029,0.0009775,0.00029,1742107618.767911
0.00875,0.02125,0.12125,7.75e-05,4.5e-05,-1.5e-05,0.03125,-0.0325,0.115,-0.00035,-0.0012675,0.0006725,1742107618.8810198
0.00875,0.0225,0.12125,7.75e-05,0.0,-6e-05,0.03,-0.03375,0.1175,-0.0018775001,-0.0013575,-0.000107500004,1742107618.995219
0.00875,0.0225,0.12125,7.75e-05,1.5e-05,-7.75e-05,0.0275,-0.0325,0.11875,-0.0018300001,-0.001785,-0.0010975,1742107619.113267
0.00875,0.02125,0.12125,7.75e-05,1.5e-05,-4.5e-05,0.02625,-0.0325,0.12,4.5e-05,-0.0001375,-1.5e-05,1742107619.223017
0.00875,0.0225,0.12125,6e-05,1.5e-05,-1.5e-05,0.0275,-0.0325,0.11875,0.0003975,-0.0001375,0.0007475,1742107619.336905
0.00875,0.02125,0.12125,1.5e-05,1.5e-05,-7.75e-05,0.0275,-0.0325,0.1175,0.0004425,0.00026,3e-05,1742107619.452526
0.00875,0.0225,0.12125,0.0,1.5e-05,-4.5e-05,0.0275,-0.0325,0.1175,3e-05,0.000107500004,-0.0001375,1742107619.562944
0.00875,0.0225,0.12125,-4.5e-05,0.0,-4.5e-05,0.0275,-0.0325,0.1175,-4.5e-05,-4.5e-05,-0.0001975,1742107619.6771562
0.00875,0.0225,0.12125,3e-05,0.0,-6e-05,0.0275,-0.0325,0.11875,-7.75e-05,-9.25e-05,0.0001525,1742107619.792187
0.00875,0.0225,0.12125,3e-05,1.5e-05,-6e-05,0.0275,-0.0325,0.12,0.000365,0.000655,0.0004275,1742107619.904809
0.00875,0.0225,0.12125,-3e-05,1.5e-05,-4.5e-05,0.0275,-0.03125,0.11875,-7.75e-05,-9.25e-05,-0.0001375,1742107620.018188
0.00875,0.0225,0.12125,1.5e-05,1.5e-05,-4.5e-05,0.0275,-0.0325,0.11875,-0.0001825,-0.00023,-0.0001375,1742107620.133813
0.00875,0.0225,0.12125,-6e-05,1.5e-05,-3e-05,0.0275,-0.03375,0.12125,0.00093,0.001175,0.00093,1742107620.246007
0.00875,0.0225,0.12125,-3e-05,0.0,-4.5e-05,0.0275,-0.035,0.11875,7.75e-05,-0.0001225,0.0009625,1742107620.3598678
0.00875,0.0225,0.12125,7.75e-05,1.5e-05,-9.25e-05,0.0275,-0.03125,0.11625,-0.0010975,-0.0020899998,0.00029,1742107620.4730399
0.00875,0.0225,0.12125,9.25e-05,3e-05,-4.5e-05,0.02625,-0.02875,0.1225,-0.0039975,-0.0044549997,-0.007965,1742107620.587032
0.00875,0.0225,0.12125,9.25e-05,4.5e-05,-4.5e-05,0.02,-0.02875,0.1175,0.001235,0.002305,0.00032,1742107620.700843
0.00875,0.0225,0.12125,4.5e-05,1.5e-05,-7.75e-05,0.02375,-0.0275,0.12,-0.0001525,-4.5e-05,0.00052,1742107620.813976
0.00875,0.0225,0.12125,9.25e-05,4.5e-05,-9.25e-05,0.02375,-0.02875,0.12,-0.00093,-0.00091500004,-0.00023,1742107620.931951
0.00875,0.0225,0.12125,7.75e-05,1.5e-05,-3e-05,0.0225,-0.02875,0.12,-0.001525,-0.00148,-0.0016025,1742107621.0420501
0.00875,0.0225,0.12125,3e-05,3e-05,-4.5e-05,0.0225,-0.0275,0.12125,-0.0012050001,-0.001175,-0.0030675002,1742107621.156227
0.00875,0.0225,0.12125,3e-05,1.5e-05,-9.25e-05,0.0175,-0.02875,0.1225,-0.0008075,-0.0003975,-0.0009775,1742107621.272544
0.00875,0.0225,0.12125,9.25e-05,1.5e-05,-6e-05,0.01875,-0.0275,0.1225,0.0008075,0.000625,-0.0024875,1742107621.383861
0.00875,0.0225,0.12125,6e-05,4.5e-05,-1.5e-05,0.01875,-0.0275,0.12125,0.001725,-0.0012975,-0.004745,1742107621.497986
0.00875,0.0225,0.12125,9.25e-05,-1.5e-05,-0.000107500004,0.01625,-0.03,0.12,0.0014500001,-0.0025175,-0.0048074997,1742107621.6130052
0.00875,0.0225,0.12125,0.00023,-3e-05,-0.0002125,0.01,-0.03625,0.1175,0.004365,-0.0065,-0.0063325,1742107621.726004
0.00875,0.02125,0.12125,0.000107500004,-1.5e-05,-6e-05,0.00625,-0.02625,0.12875,-0.0022574998,0.00415,-0.0029000002,1742107621.839944
0.0075,0.0225,0.12125,0.0001525,-7.75e-05,-0.00016750001,0.005,-0.03625,0.11125,-0.00116,-0.0027474998,-0.00264,1742107621.954039
0.0075,0.02125,0.12125,0.00048750002,1.5e-05,-1.5e-05,0.0025,-0.035,0.12625,-0.0037075,-0.005235,-0.0027925,1742107622.068675
0.01,0.02125,0.12125,0.00055,0.0001225,7.75e-05,-0.0075,-0.01375,0.12125,-0.0024100002,-0.00045750002,-0.0009775,1742107622.1821492
0.00875,0.01875,0.12,-0.000655,-0.00016750001,0.000565,-0.0025,-0.03,0.12875,-0.00079250004,0.0016175,-0.0006725,1742107622.2960699
0.00875,0.02125,0.12125,0.000245,3e-05,0.0005025,-0.005,-0.025,0.12375,3e-05,0.000107500004,-0.0010825,1742107622.412268
0.00625,0.02625,0.12125,-0.00093,-9.25e-05,0.000535,-0.0025,-0.02,0.12125,-0.000275,0.0004275,-0.00033500002,1742107622.524051
0.0075,0.025,0.11875,-0.0016925,-0.0010675,0.0031424998,-0.0025,-0.02,0.1225,0.0021199998,0.0013275,-0.00079250004,1742107622.637981
0.0075,0.01625,0.11875,0.0024725,-0.0019225,0.0076599997,-0.00375,-0.025,0.12125,0.0032650002,0.001435,-0.0016325001,1742107622.752394
0.0025,0.02375,0.1225,0.0034625002,-0.00026,0.0044549997,0.00375,-0.03125,0.11875,0.00055,0.00091500004,-0.0011900001,1742107622.865876
0.0025,0.0125,0.12125,0.002395,0.000305,0.0025775002,-0.00125,-0.02625,0.1225,0.00058,0.00023,-0.0011900001,1742107622.979855
0.0025,0.01375,0.1225,0.0028375,-0.00035,0.00125,0.00125,-0.03,0.1225,0.0001525,0.0004125,-0.00084,1742107623.093745
0.0,0.01625,0.1225,0.0013275,-0.0003825,0.00023,-0.0,-0.02875,0.1225,0.0004125,0.00023,-0.00026,1742107623.207974
-0.00125,0.02,0.12375,-0.0007175,-0.00055,-9.25e-05,0.0,-0.02875,0.1225,0.00059500005,0.00023,-0.0004125,1742107623.32179
0.0,0.01375,0.1225,0.00023,-0.0001525,-0.00026,-0.0,-0.03,0.1225,0.00029,3e-05,-0.0004275,1742107623.434869
-0.0,0.015,0.1225,9.25e-05,-0.0001225,-0.0001525,0.0,-0.03,0.12125,0.0001225,-9.25e-05,-0.000107500004,1742107623.551996
-0.0,0.01375,0.1225,0.00032,-4.5e-05,-0.00029,-0.0,-0.03,0.1225,-3e-05,-0.0001525,3e-05,1742107623.662956
-0.0,0.01375,0.1225,0.0001525,-0.0001525,-0.000305,0.00125,-0.0325,0.12125,-0.0008075,-0.00033500002,0.0003825,1742107623.776861
-0.0,0.01375,0.1225,-0.000275,1.5e-05,1.5e-05,-0.00125,-0.0275,0.1225,0.0001975,-7.75e-05,0.000855,1742107623.8911932
-0.00125,0.01625,0.1225,-0.0012975,0.0001225,0.0001525,0.00375,-0.03,0.12125,-9.25e-05,-1.5e-05,0.0013575,1742107624.00485
0.0,0.0125,0.1225,-0.00045750002,0.0001975,0.00032,-0.0,-0.02875,0.1225,0.00035,-0.0001975,0.0007325,1742107624.118865
0.0,0.0175,0.1225,-0.0001225,1.5e-05,3e-05,-0.0,-0.03,0.12125,0.000275,-0.00023,0.0007625,1742107624.232848
-0.0,0.015,0.1225,-0.000245,-9.25e-05,-0.0001375,0.0,-0.03,0.12125,-3e-05,-0.0003825,0.00058,1742107624.346865
-0.0,0.015,0.1225,-0.0001525,-0.0001225,-0.0003825,-0.0,-0.03,0.12125,0.00052,-0.0003825,0.000365,1742107624.460901
-0.00125,0.01875,0.1225,0.0004725,0.00016750001,-0.00048750002,0.0,-0.03,0.12125,0.0001975,-0.0002125,0.0001825,1742107624.574723
-0.0,0.015,0.1225,0.00016750001,6e-05,-0.000275,-0.0025,-0.03125,0.12125,0.00052,-0.00033500002,-4.5e-05,1742107624.688925
-0.0,0.01625,0.1225,0.0001975,6e-05,-0.00029,-0.0,-0.03,0.12125,-9.25e-05,-0.0001375,-0.0004125,1742107624.803068
0.0,0.01625,0.1225,0.0001825,4.5e-05,-0.0001825,-0.00125,-0.03,0.1225,6e-05,-0.0001975,-0.000245,1742107624.916936
-0.0,0.01625,0.1225,0.0003825,-6e-05,-0.000305,-0.00125,-0.03,0.12125,-0.00026,-0.00023,-0.00035,1742107625.032265
