L-AccX,L-AccY,L-AccZ,L-GyrX,L-GyrY,L-GyrZ,R-AccX,R-AccY,R-AccZ,R-GyrX,R-GyrY,R-GyrZ,timestamp
-0.0125,0.0125,0.12,0.001495,-0.001145,-0.0012050001,0.12125,-0.02625,0.005,-0.0045324997,-0.0016925,0.0032950002,1742107848.964045
-0.0125,0.01375,0.12125,0.0009775,0.0016925,0.0009925,0.12375,-0.01625,0.0075,-0.0069425,-0.00058,0.0047150003,1742107849.075555
-0.01125,0.01875,0.1225,-0.0021825,0.0010825,0.0008075,0.12375,-0.01125,0.00875,-0.0030975002,0.00026,0.0034625002,1742107849.177013
-0.00875,0.0225,0.12,-0.001755,0.00177,0.001145,0.1225,-0.00875,0.00625,-0.0018300001,-0.00026,0.0012975,1742107849.2961972
-0.00875,0.0525,0.12375,-0.04515,-0.0076,-0.015595,0.1225,-0.0125,0.0075,9.25e-05,-0.0007775,0.0007625,1742107849.4156458
-0.005,0.085,0.07375,-0.06256,-0.012680001,-0.0187225,0.1225,-0.0125,0.01,-0.0005025,0.0004125,0.00058,1742107849.518983
-0.01,0.1025,0.04875,-0.028245,-0.020370001,-0.009095,0.12375,0.0,0.00375,-0.0007175,0.00154,0.0003975,1742107849.63568
-0.0175,0.11875,0.0575,0.004195,-0.03914,-0.0040749996,0.12375,-0.01125,0.00625,0.00091500004,-0.00059500005,-0.00016750001,1742107849.755017
-0.005,0.12,0.0475,-0.01944,0.027282499,0.002915,0.1225,-0.01,0.00875,-0.0001975,-0.0001825,-0.00032,1742107849.860172
0.00375,0.1325,0.00125,-0.0066825,0.0057225,0.0012050001,0.12375,0.0025,0.005,-0.0007325,0.0020899998,-0.0003975,1742107849.974918
-0.01125,0.125,0.03375,0.017792499,-0.042175,-0.002685,0.12375,-0.01125,0.0075,0.0007175,-6e-05,-0.00016750001,1742107850.094364
-0.0025,0.11125,0.04625,-0.0101175,0.0224925,0.00409,0.1225,-0.01,0.00625,-0.000565,0.0003975,-0.00045750002,1742107850.202107
-0.0025,0.13125,0.00125,-0.00917,0.01152,0.0034625002,0.125,0.0,0.00375,-0.001145,0.00151,7.75e-05,1742107850.3158689
-0.01125,0.125,0.01875,0.011779999,-0.0358125,-0.00084,0.1225,-0.00875,0.00625,0.0006725,0.0001825,-0.00016750001,1742107850.434774
-0.00125,0.11125,0.035,-0.0146025,0.0168,0.0030525,0.12375,-0.01,0.00625,-3e-05,0.00058,-0.00026,1742107850.5430138
-0.00375,0.12375,0.005,-0.0139925005,0.0093375,0.0039975,0.12375,0.00375,0.005,-0.00232,0.001495,0.00045750002,1742107850.656821
-0.01375,0.1275,0.01,0.0084224995,-0.0372475,-0.0028074998,0.12375,-0.0075,0.005,0.0010525,0.000107500004,-9.25e-05,1742107850.775028
-0.01,0.12,0.03125,-0.011779999,0.01683,0.0036475,0.12375,-0.0075,0.00375,4.5e-05,0.0001825,-0.00026,1742107850.895799
-0.0075,0.12625,0.0,-0.0128175,0.012055,0.0018625,0.125,0.00625,0.0025,-0.00177,0.001725,0.00142,1742107850.997819
-0.00875,0.12375,-0.005,0.0143125,-0.0285025,-0.0039975,0.1225,-0.0075,0.005,0.00016750001,-0.0003975,-0.00048750002,1742107851.115703
0.00125,0.10125,0.0375,0.0001225,0.0169975,0.0010825,0.12375,-0.00625,0.005,-0.0001225,0.00023,-0.00016750001,1742107851.2356422
-0.00375,0.12,0.00625,-0.0086825,0.0133675,0.00087,0.12125,0.00625,0.00625,-0.0025175,0.0010375,0.002305,1742107851.338762
-0.005,0.125,-0.0,0.0128175,-0.018889999,-0.002885,0.1225,-0.00625,0.005,-0.0005025,-1.5e-05,-6e-05,1742107851.455596
0.00375,0.0975,0.04375,-0.00023,0.0233925,0.000365,0.12375,-0.005,0.005,0.000365,0.0001225,0.000107500004,1742107851.566625
-0.005,0.125,0.0075,-0.0057825,0.013505,0.0014500001,0.1225,0.00875,0.00375,-0.001525,0.001405,0.002,1742107851.678763
-0.005,0.125,-0.00375,0.012984999,-0.026014999,-0.000275,0.1225,-0.0075,0.00375,-0.00059500005,-0.00035,-0.000245,1742107851.795168
-0.0,0.0975,0.0425,-0.00528,0.021302499,0.00059500005,0.12375,-0.005,0.005,0.000107500004,-0.000275,0.0001825,1742107851.915879
-0.0025,0.12,0.0125,-0.003875,0.0148475,0.0021675,0.12,0.005,0.0075,-0.002045,0.0001975,0.0021975,1742107852.018772
-0.00875,0.13375,-0.0025,0.0104975,-0.021514999,-0.0009,0.12375,-0.005,0.0025,-0.0006875,-0.00052,-4.5e-05,1742107852.1365461
-0.0,0.09375,0.05125,0.0077199996,0.020537501,0.000365,0.12375,-0.00375,0.005,0.00029,-0.000107500004,0.00026,1742107852.256196
-0.00875,0.12375,0.00375,-0.0084375,0.01213,0.0018300001,0.12,-0.00125,0.00625,-0.00058,-0.000305,0.0025475,1742107852.360023
-0.0075,0.12875,-0.00625,0.0075075002,-0.016875,-0.00264,0.12375,-0.0075,0.00125,-0.0013575,-0.0002125,-0.0004125,1742107852.475766
-0.00875,0.0925,0.0425,0.01822,0.0260775,-0.0033425,0.12375,-0.00375,0.00375,6e-05,-7.75e-05,0.000365,1742107852.5951722
-0.005,0.1175,0.01375,-0.0038299998,0.0139475,-0.0007625,0.12,-0.0,0.00625,-0.002075,0.0002125,0.0024249998,1742107852.701836
-0.00625,0.12875,-0.01,0.0045625,-0.0136875,-0.00026,0.12375,-0.0075,0.0025,-0.00151,-0.00023,-0.00016750001,1742107852.8163
-0.00625,0.09875,0.04,0.01001,0.024459999,-0.00151,0.12375,-0.0025,0.0025,0.0001525,-0.0001525,0.0004425,1742107852.9355562
-0.00625,0.1175,0.015,-0.006745,0.012665,0.000365,0.125,-0.00875,0.00125,0.00091500004,-0.000275,-6e-05,1742107853.0440252
-0.005,0.1275,-0.00625,-0.0034625002,0.0013725,0.0012050001,0.125,-0.01,-0.00375,0.0030825,0.00064,-0.0015725,1742107853.1579049
-0.015,0.1325,0.01375,0.01056,-0.0384375,-0.001525,0.125,-0.005,-0.0,0.00026,-0.0007325,0.00016750001,1742107853.276248
-0.01,0.12625,0.03125,-0.012069999,0.021362498,0.0030375,0.1225,-0.005,0.005,-0.00033500002,-0.000565,-0.0003825,1742107853.396291
-0.01125,0.1275,-0.01375,-0.0046550003,0.009155,0.0025325,0.12625,0.0175,0.0025,-0.0055225003,0.0027325,0.002135,1742107853.499767
-0.01,0.12625,-0.0075,0.021255,-0.04808,-0.0027474998,0.12375,0.0025,0.0025,0.0019225,4.5e-05,-0.000365,1742107853.615957
-0.0125,0.12,0.04,-0.027084999,0.0366975,0.003555,0.12375,-0.005,0.005,0.0007475,-0.0005025,-0.00061,1742107853.736118
0.00125,0.11625,-0.02875,-0.0063925,0.0146475,-0.0043800003,0.11875,0.01,0.0075,-0.0031125,0.002135,0.0029000002,1742107853.840848
-0.00625,0.1225,-0.0075,0.0093225,-0.038955003,0.0039975,0.12375,-0.0025,0.00375,-0.002135,-0.0007025,-0.000275,1742107853.956183
0.00375,0.075,0.05625,-0.0044699996,0.036544997,6e-05,0.12375,-0.005,0.00375,0.00032,-9.25e-05,-9.25e-05,1742107854.0799968
-0.0075,0.12125,-0.0175,-0.008805,0.0249025,-0.0015575,0.12375,-0.01875,0.00375,0.0026099999,-0.0001375,0.0027325,1742107854.196518
-0.00125,0.125,-0.03625,0.00946,-0.017045,0.0010525,0.12375,-0.01,-0.005,0.00093,-0.0005025,-0.0007025,1742107854.296957
-0.05875,0.1325,0.1375,0.011445,0.021057501,-0.0074625,0.1225,-0.0025,0.005,-0.0003975,-0.00061,-0.0001825,1742107854.416854
-0.0125,0.1225,-0.0025,-0.0012975,0.0310825,-0.00116,0.125,-0.0175,-0.00125,0.002045,-0.0001375,0.0010375,1742107854.538464
0.00125,0.11875,-0.02875,0.002715,-0.0094,0.0036175,0.12625,-0.0075,-0.0075,0.0045925,0.000365,-0.0019075,1742107854.6387908
-0.045,0.13,0.04375,0.016495,-0.055435,-0.0009775,0.12375,-0.00625,0.00125,-0.0004725,-0.0006725,6e-05,1742107854.756905
-0.00375,0.12125,0.0125,-0.0095675,0.0325475,-0.00059500005,0.12375,-0.01,0.00625,-0.001525,-0.0007775,-0.00093,1742107854.876649
-0.00125,0.125,-0.0275,-0.00177,-0.0039825,0.0018475,0.125,0.00875,-0.00125,-1.5e-05,0.0019225,-0.0009925,1742107854.980881
-0.01125,0.135,-0.0025,0.01471,-0.0630025,0.0036624998,0.12375,-0.0075,0.00125,0.0016775,-0.000655,0.0001525,1742107855.0959759
-0.02125,0.1425,0.02875,-0.0322725,0.03804,-0.000365,0.1225,-0.00375,0.005,0.0001825,-0.000365,-0.0004275,1742107855.216598
-0.00125,0.12125,-0.0375,-0.00647,0.0107725,0.0018625,0.1225,0.0175,0.005,-0.003175,0.0025175,0.0018775001,1742107855.325978
-0.015,0.12375,-0.01,0.0154425,-0.0576625,0.0044549997,0.12375,-0.0025,0.00375,-0.00023,-0.00059500005,-0.0006725,1742107855.43698
-0.00875,0.0725,0.035,-0.028825,0.0405575,-7.75e-05,0.12375,-0.0025,0.005,0.000535,-0.00059500005,-0.0001225,1742107855.559299
-0.00125,0.12125,-0.02625,-0.011445,0.029129999,0.001755,0.125,-0.0175,0.0025,0.0039375,-0.0010375,0.0018150001,1742107855.676939
-0.0075,0.12875,-0.0325,0.012925,-0.021790002,-0.0001825,0.12375,-0.00875,-0.0025,0.001785,-0.0001975,-0.0015575,1742107855.778974
-0.05,0.12125,0.1325,0.03131,-0.0048525,-0.0019075,0.12375,-0.0025,0.005,-7.75e-05,-0.0002125,0.000107500004,1742107855.8969758
-0.01625,0.125,-0.00375,-0.00113,0.036422502,-0.0016625,0.1275,-0.01,0.00125,-0.00055,-0.0007025,-0.00058,1742107856.0178912
-0.00625,0.12,-0.03,0.0025775002,-0.0006725,0.0016025,0.125,0.01125,0.00125,-7.75e-05,0.0009775,-0.001405,1742107856.1207738
-0.02875,0.1375,-0.00875,0.0172575,-0.0842275,0.002335,0.12375,-0.0075,0.00375,0.000625,0.0001975,7.75e-05,1742107856.2368572
-0.0175,0.13125,0.01625,-0.0299225,0.0405875,0.0047150003,0.12375,-0.00125,0.0025,-0.0001825,0.0003975,-1.5e-05,1742107856.3562438
-0.01125,0.12125,-0.02125,-0.008195,0.0121625,0.004135,0.12375,0.01625,0.005,-0.00499,0.0021825,0.0012975,1742107856.463171
-0.02,0.1225,-0.0025,0.015105,-0.060425,0.004365,0.1225,0.00125,0.005,0.0007625,-1.5e-05,-9.25e-05,1742107856.580717
-0.025,0.12,0.03125,-0.033355,0.0426175,0.005325,0.12375,-0.0025,0.0025,0.0001525,0.0002125,-0.0001375,1742107856.696994
-0.00875,0.1225,-0.0225,-0.019195,0.0163125,0.0024875,0.12375,-0.00375,0.00375,0.0021199998,-1.5e-05,0.0020299999,1742107856.817158
-0.01625,0.125,-0.04625,0.006745,-0.03302,-0.0003825,0.12375,-0.0025,0.00125,-0.00232,-0.0007625,1.5e-05,1742107856.9177878
-0.02,0.0575,0.0675,0.0213775,0.054015,0.003175,0.12375,-0.0,0.00125,3e-05,-0.000107500004,-6e-05,1742107857.0391529
-0.02375,0.11125,-0.02375,0.0022274998,0.034805,-0.0030375,0.1225,-0.0125,-0.00125,0.0010975,-1.5e-05,0.0018775001,1742107857.156918
-0.01125,0.12,-0.04125,0.001755,-0.00998,0.00093,0.12375,-0.00125,-0.00125,-0.00055,-0.000245,-7.75e-05,1742107857.260014
-0.09,0.1525,0.15,0.0334325,0.0244,-0.0058449996,0.12375,0.00125,-0.0,-6e-05,0.0,0.00016750001,1742107857.376954
-0.02125,0.11875,-0.01875,0.01825,0.0314175,-0.0075525,0.1225,-0.00625,0.005,0.000305,3e-05,0.00061,1742107857.497216
-0.00375,0.115,-0.015,-0.0015875,-0.00142,0.0001225,0.125,-0.00125,-0.005,0.000565,0.00084,-4.5e-05,1742107857.600794
-0.06125,0.14,0.075,-0.0025025,-0.02803,-0.0037375,0.12375,0.00125,0.00125,-0.00023,-1.5e-05,0.00035,1742107857.717029
-0.0175,0.11125,-0.00125,-0.0109399995,0.0270225,-0.0015725,0.125,-0.00375,0.0025,-0.00148,-0.0007625,-0.0004725,1742107857.8371751
-0.02,0.12,-0.0325,-0.0022725,0.0040275003,0.0010225,0.12625,0.00625,-0.005,0.0008075,0.0007775,0.00045750002,1742107857.9569721
-0.01875,0.13,-0.0225,0.0015725,-0.06569,0.0095525,0.12375,0.0,0.0,-0.000275,0.0006725,0.00059500005,1742107858.0599492
-0.02875,0.13625,-0.0,-0.01384,0.0269175,-0.0031125,0.12375,0.005,-0.00125,-0.00026,4.5e-05,0.0012825,1742107858.177378
-0.015,0.1225,-0.02625,-0.0057225,0.0090625,-0.0024575,0.1225,0.015,-0.0025,-0.0007175,0.0022725,0.0022274998,1742107858.297376
-0.01875,0.11375,-0.025,0.018934999,-0.05182,0.007385,0.12375,0.01,-0.00125,0.0009925,-0.0003825,0.001525,1742107858.397579
-0.02375,0.1325,0.00625,-0.0251,0.02176,0.0002125,0.12375,0.01,-0.0025,0.0006725,-0.0004725,0.0019225,1742107858.5184808
-0.015,0.125,-0.03625,-0.001725,0.0069125,-0.0012675,0.11875,0.01,0.00375,-0.0001225,-0.0003825,0.003875,1742107858.636864
-0.01625,0.1175,-0.04375,0.0164025,-0.03012,0.0021525,0.12375,0.02125,-0.0,-0.000655,-0.001145,0.0012050001,1742107858.738692
-0.00125,0.0725,0.0325,0.0054925,0.04959,-0.0065774997,0.1225,0.0175,0.00125,0.00093,-0.00029,-0.00032,1742107858.85698
-0.00375,0.12625,-0.0375,-0.009582501,0.02002,-0.002135,0.12375,0.00125,-0.00125,0.00059500005,0.0,0.0015725,1742107858.977012
-0.015,0.125,-0.0475,0.005585,-0.01561,0.0009625,0.12375,0.0175,-0.00375,-0.000245,-0.00087,-0.000245,1742107859.080914
-0.0575,0.14625,0.1425,0.0270075,0.0012975,-0.002625,0.1225,0.01625,0.0,0.00029,-1.5e-05,-0.0004125,1742107859.1974258
-0.0225,0.12125,-0.02,0.00801,0.028382499,-0.0066675,0.12,0.00625,0.00375,0.00023,0.0001525,0.00064,1742107859.3175051
-0.01,0.11875,-0.035,0.0069724997,-0.0101925,0.00093,0.12375,0.015,-0.00625,0.0012050001,0.0003825,-0.0004425,1742107859.420573
-0.09,0.14625,0.13875,0.028565,-0.0310525,0.0040749996,0.1225,0.01375,-0.00125,-0.000275,-1.5e-05,-0.00016750001,1742107859.539814
-0.03,0.13125,-0.00875,0.0024875,0.030625,-0.0051125004,0.12625,0.00875,0.0025,-0.0016925,-0.0007625,-0.0006725,1742107859.6577861
-0.005,0.11875,-0.02625,0.0010975,0.0018475,-0.001145,0.125,0.02,-0.0075,0.0022725,0.001115,-0.0004275,1742107859.777984
-0.01125,0.1225,-0.0125,0.013305,-0.077010006,0.008805,0.1225,0.0125,-0.0,0.0001525,0.000245,3e-05,1742107859.877687
-0.0275,0.14,0.00625,-0.02336,0.0317525,-0.00299,0.1225,0.01625,-0.00125,0.0001825,-0.00032,-0.000365,1742107859.998016
-0.01375,0.12625,-0.025,-0.0043175,0.0074625,-0.0025475,0.12125,0.03375,0.00375,-0.0028074998,0.00084,0.002365,1742107860.1175659
-0.015,0.12125,-0.01,0.0210875,-0.042755,0.0037850002,0.1225,0.0175,0.00375,0.0007325,-0.000535,-0.0003825,1742107860.217878
-0.01125,0.105,0.01,-0.02861,0.036575,0.0018300001,0.1225,0.015,-0.0,0.0004425,-7.75e-05,-0.000565,1742107860.338449
-0.00875,0.12125,-0.02375,0.001175,0.019057501,-0.00032,0.1225,0.01,-0.00125,-0.0004275,-0.0004275,0.0022125002,1742107860.458988
-0.0125,0.12625,-0.02625,0.01892,-0.030792499,0.000365,0.1225,0.01375,-0.0025,-0.0011900001,-0.0010975,-0.00087,1742107860.560925
-0.03625,0.1025,0.1075,0.028959999,0.0555275,-0.0072925,0.1225,0.01875,0.00125,-9.25e-05,-4.5e-05,3e-05,1742107860.6794949
-0.0225,0.11875,-0.01625,1.5e-05,0.029709999,-0.001725,0.11875,0.00375,-0.005,0.0020299999,-0.0001375,0.0019075,1742107860.801301
-0.0075,0.13,-0.02875,0.01004,-0.01384,-0.0012825,0.12375,0.00875,-0.0075,0.000655,-0.0007475,-0.00122,1742107860.900645
-0.0575,0.1275,0.14125,0.0429525,0.0057525,0.0007175,0.1225,0.0175,0.00125,-0.0001525,-0.000107500004,0.0004725,1742107861.014612
-0.025,0.12125,0.00375,-0.0037525,0.029692499,-0.0063775,0.12125,0.0175,0.00125,0.000305,-3e-05,-0.0001225,1742107861.13987
-0.00625,0.1175,-0.0075,-0.00267,0.0072925,-0.000107500004,0.12375,0.03375,-0.0,-0.002715,0.002105,0.0016625,1742107861.2426171
-0.015,0.12375,-0.0075,0.0154275,-0.06166,0.007735,0.12375,0.01875,0.00125,0.0018925001,-0.000625,0.00059500005,1742107861.358346
-0.01625,0.11875,0.02125,-0.0466625,0.022782499,0.003585,0.12875,0.01625,-0.00125,0.00032,-0.000305,0.001725,1742107861.481956
-0.01125,0.12375,-0.0125,-0.010955,0.0133675,0.000855,0.1175,0.025,0.00375,-0.0007325,-0.0030525,0.00023,1742107861.584654
-0.01125,0.12375,-0.02375,0.0002125,-0.00528,0.00354,0.11875,0.01625,-0.0025,0.0020150002,0.00026,0.0007325,1742107861.701888
-0.0975,0.175,0.125,0.0193025,-0.022979999,-0.0022574998,0.12125,0.02375,0.00125,0.001435,-0.0005025,-0.001235,1742107861.821574
-0.02125,0.125,0.00375,0.0039375,0.0279075,-0.00441,0.11625,0.02375,0.00625,-0.0012675,-0.0009,-0.0021825,1742107861.9413319
-0.01375,0.11375,-0.02,-0.0007475,0.005585,0.000855,0.12625,0.01875,0.0025,-0.0010075001,0.0009625,-0.00035,1742107862.040352
-0.025,0.12625,-0.0125,0.020004999,-0.067962505,0.007995,0.12,0.02125,0.00625,9.25e-05,-0.0007625,-0.0007625,1742107862.1597672
-0.03125,0.1375,0.02,-0.0249325,0.027955,0.0013725,0.12125,0.01625,0.00375,0.00055,1.5e-05,-0.00029,1742107862.267435
-0.02,0.12375,-0.01,-0.011185001,0.0107875,0.00093,0.12625,0.0125,0.00625,-0.0024725,0.00142,0.00029,1742107862.3804789
-0.02625,0.1175,-0.03375,0.013702501,-0.05957,0.005935,0.1225,0.02375,0.00375,-0.000275,-0.00055,0.00084,1742107862.4935548
-0.02625,0.11625,0.01125,-0.037720002,0.0223225,-0.0004725,0.1225,0.0175,0.00375,0.00064,-7.75e-05,0.00045750002,1742107862.6187131
-0.0175,0.1225,-0.01125,-0.0215,0.019455,-0.00171,0.12875,0.00375,0.0075,0.0002125,0.0001525,-0.0001825,1742107862.720373
-0.01875,0.12125,-0.05375,0.0234675,-0.0384975,0.00113,0.12125,0.0275,0.0,-0.00084,-0.00064,0.0019675,1742107862.84195
-0.0125,0.065,0.07375,0.0343625,0.0449225,-0.0024875,0.12,0.02125,0.00375,0.000655,0.0003825,-0.0007175,1742107862.9594429
-0.02625,0.12125,-0.02,-0.01802,0.0305325,-0.0004125,0.1175,0.02,0.0075,-0.00142,-0.0025775002,-0.0029000002,1742107863.0610402
-0.0125,0.12,-0.02625,-0.0064850003,0.0032650002,-0.0005025,0.12125,0.01375,0.00125,0.0010375,0.001465,0.0009,1742107863.179539
-0.11625,0.15125,0.12625,0.023895001,-0.064515,0.0057975003,0.1225,0.0175,0.0075,-0.000107500004,0.000365,-0.0010675,1742107863.3008509
-0.02,0.12875,0.02,-0.0056775,0.05037,-0.008255,0.1225,0.01625,-0.00125,6e-05,0.0006725,0.00045750002,1742107863.399549
-0.01125,0.1175,-0.03,-0.0051125004,0.0146625005,-0.0076149995,0.125,0.0175,0.00625,-0.0030375,0.0018,0.0007775,1742107863.51984
-0.00875,0.11375,-0.01625,0.017212499,-0.070769995,0.0051725,0.12125,0.02625,0.00375,0.0007325,-0.0012825,0.00058,1742107863.638251
-0.01875,0.10625,0.04625,-0.0401925,0.0364525,0.0038,0.1225,0.015,0.0,0.0008075,0.00064,-0.0007325,1742107863.739703
-0.015,0.1275,-0.04875,-0.0125275,0.0208125,-0.0009925,0.12125,0.0075,0.01125,9.25e-05,-0.00052,-0.0022425,1742107863.8612401
0.005,0.11625,-0.03625,0.01117,-0.0296775,0.0045324997,0.1225,0.01875,-0.00875,0.0007475,0.000535,0.0022425,1742107863.978445
-0.01125,0.0625,0.1275,0.0413825,0.0367725,-0.00647,0.12125,0.02375,0.0025,0.0012825,0.0007025,-0.000107500004,1742107864.082228
-0.0225,0.125,-0.0225,-0.0193025,0.03337,0.00116,0.1175,0.01125,0.005,0.00113,0.00016750001,-0.0027325,1742107864.201508
-0.0075,0.12125,-0.055,0.0094449995,-0.024092501,0.000565,0.12375,0.0175,-0.00625,0.00016750001,0.00033500002,0.00154,1742107864.304332
-0.055,0.1125,0.1675,0.0511775,0.031632498,-0.00142,0.12,0.0225,0.0025,0.000365,0.00058,-0.0001975,1742107864.420386
-0.01625,0.11125,0.015,-0.0031275,0.03746,-0.0045625,0.1225,0.01875,-0.0,0.0007625,3e-05,-0.0006725,1742107864.540544
-0.005,0.1175,-0.01875,-0.0057525,0.0072775004,0.0004425,0.12625,0.02125,0.0075,-0.0043325,0.00177,-0.000535,1742107864.643418
-0.01,0.12375,0.0,0.01326,-0.085525,0.0069274995,0.12125,0.0225,-0.00125,0.0007175,-0.000655,1.5e-05,1742107864.760397
-0.02375,0.1425,0.03625,-0.04222,0.026185,9.25e-05,0.1225,0.0175,-0.0,0.0010375,0.000565,-0.0005025,1742107864.8805718
-0.00875,0.11375,-0.00375,-0.019425,0.022385,-0.00023,0.13,0.00375,0.0025,-0.0003975,-0.00048750002,0.0001525,1742107864.98341
-0.01,0.11,-0.03125,0.023192499,-0.054810002,0.004365,0.1225,0.02125,-0.0075,-0.000535,0.00029,0.0012675,1742107865.100388
-0.01125,0.1075,0.04,-0.0503225,0.0289925,-0.002715,0.12125,0.02125,0.00125,0.0012975,0.0005025,-0.0009,1742107865.221919
0.00875,0.09125,-0.01125,-0.0128325,0.019395001,0.0025475,0.1175,0.0075,0.00375,0.0022274998,-0.00055,-0.0025025,1742107865.323404
-0.005,0.12875,-0.04125,0.008117501,-0.025954999,0.0039525,0.125,0.0125,-0.01,0.000365,0.00154,0.0015575,1742107865.440304
-0.015,0.07875,0.0875,0.0390925,0.0309,-0.0016025,0.12,0.01875,0.00125,0.0009,-0.0004425,-0.0001375,1742107865.5616598
-0.0175,0.10625,0.00375,0.01474,0.0293425,-0.002365,0.11625,0.01375,0.00125,-0.0002125,-0.0013425,-0.0016925,1742107865.664424
-0.01,0.125,-0.01125,-0.0077675,-0.0034625002,0.0046075,0.1275,0.0175,-0.00375,0.00045750002,0.0013275,0.001175,1742107865.7818098
-0.09125,0.17625,0.1,0.0139625,-0.0567175,0.002335,0.12125,0.0175,0.0025,0.001235,-0.000625,0.0005025,1742107865.899812
-0.0175,0.1225,0.0275,-0.0045324997,0.035919998,-0.00125,0.1225,0.0175,-0.00125,0.00058,-0.00061,-0.0003825,1742107866.004483
-0.01625,0.1175,-0.01375,-0.010895001,0.016112499,0.00302,0.12625,0.015,0.0025,-0.0019075,0.0013275,0.00029,1742107866.118908
-0.01875,0.1175,-0.01875,0.007965,-0.066405,0.00113,0.12125,0.0225,0.0,0.000305,-0.00125,-0.0001525,1742107866.240602
-0.025,0.14125,0.025,-0.0210275,0.0338125,0.0019075,0.1225,0.015,0.00125,0.0009925,0.0002125,-0.00059500005,1742107866.360964
-0.0075,0.12375,-0.01,-0.0178675,0.01416,-0.004485,0.12125,0.00375,0.00125,0.0018475,-0.0006875,-0.00087,1742107866.460669
-0.0,0.10625,-0.03625,0.01439,-0.0402525,0.00328,0.1225,0.00875,-0.01125,0.00052,0.000825,0.00171,1742107866.5825448
-0.0025,0.0425,0.085,0.0288075,0.051925,0.0019824998,0.12125,0.01875,0.00375,9.25e-05,9.25e-05,-0.000107500004,1742107866.685168
-0.00125,0.11125,0.0025,-0.0119325,0.0251,0.00331,0.12,0.015,-0.0025,-0.0002125,-0.000655,-0.0006875,1742107866.802254
-0.00875,0.12875,-0.01125,-0.010314999,0.00154,0.0072175004,0.12875,0.01625,0.0025,-0.00093,0.00151,0.000825,1742107866.921838
-0.11375,0.17,0.13,0.0076,-0.0870675,0.00351,0.12125,0.01875,0.00125,0.0005025,-0.00154,0.0007625,1742107867.0422819
-0.02375,0.1425,0.0275,-0.004105,0.035735,-0.0018625,0.12125,0.01625,0.00125,0.0007775,4.5e-05,-0.0004125,1742107867.139225
-0.01375,0.12,-0.0025,-0.00586,0.01143,-7.75e-05,0.12875,0.0025,-0.0,0.00087,0.0001825,-0.0010225,1742107867.260303
-0.0175,0.115,-0.03375,0.012207501,-0.062225,0.00322,0.12375,0.02125,-0.0075,-0.0003975,-0.00055,0.0018925001,1742107867.3808599
-0.01375,0.07875,0.05,-0.0168,0.0290525,0.0022425,0.12125,0.01625,0.00375,0.0003975,1.5e-05,0.0001375,1742107867.480582
-0.0075,0.10625,-0.0,-0.023102501,0.0274975,-4.5e-05,0.12,0.0175,-0.00125,-0.000275,-0.00052,-0.0012050001,1742107867.5984871
-0.01125,0.12625,-0.02125,0.0037075,-0.009965,0.005295,0.1275,0.0175,0.0025,-0.000945,0.0018775001,0.001115,1742107867.7190242
-0.1325,0.15625,0.20375,0.0146625005,-0.07470749,0.0057375003,0.12,0.0175,0.00375,0.000625,-0.0013425,0.0001825,1742107867.8201659
-0.02625,0.12625,0.025,-0.0031424998,0.0455475,-0.0024875,0.1225,0.015,0.0025,0.00032,3e-05,-0.0003825,1742107867.939666
-0.01625,0.1225,-0.01,-0.008880001,0.0075525,0.0033725,0.1275,0.0125,0.00625,-0.0015575,0.000565,0.00035,1742107868.058996
-0.01875,0.1325,-0.0125,0.0042425,-0.10263,-0.000885,0.12125,0.025,0.00125,-0.00023,-0.00151,0.000625,1742107868.160245
-0.03875,0.11625,0.0525,-0.0325175,0.0504,0.0092475,0.1225,0.0175,-0.0,0.0010375,0.000275,3e-05,1742107868.2821
-0.0175,0.13,-0.01375,-0.017655,0.0081475,0.0013425,0.12875,0.00625,0.0075,-0.0004275,0.0001825,-0.0003825,1742107868.40167
-0.01875,0.11875,-0.00625,0.007035,-0.084015,-0.00174,0.1225,0.025,-0.00125,-6e-05,-0.00125,0.0009775,1742107868.501375
-0.03,0.125,0.035,-0.0340725,0.0325,0.00293,0.1225,0.01625,0.0025,0.00079250004,0.00033500002,-0.000365,1742107868.61878
-0.01375,0.12375,0.00375,-0.013915,0.0063775,0.00032,0.12625,0.00625,0.005,0.0007025,-0.00026,-0.0018775001,1742107868.739187
-0.02125,0.11875,-0.00875,0.0093225,-0.044465,0.0010075001,0.1225,0.01875,-0.00625,-0.000655,0.0001525,0.0012825,1742107868.858227
-0.02125,0.0975,0.0275,-0.0099325,0.030030001,0.000535,0.1225,0.0175,0.00375,0.0004275,0.00023,-9.25e-05,1742107868.962325
-0.0125,0.11,0.0125,-0.01143,0.013595,-0.0004125,0.1175,0.02125,0.0,-0.0010075001,-0.001495,-0.0020599999,1742107869.069258
-0.02125,0.11875,-0.01375,-0.0047750003,-0.007125,0.0021525,0.12625,0.01625,-0.00125,0.0001825,0.00084,0.0016475001,1742107869.1832068
-0.045,0.12125,0.105,0.0278475,0.0243525,0.0,0.12125,0.0175,0.00375,0.00048750002,-0.00079250004,0.00016750001,1742107869.299068
-0.02875,0.12,0.00875,0.0037525,0.0243375,-0.002885,0.1225,0.01625,0.00125,0.0004275,-0.00016750001,1.5e-05,1742107869.420344
-0.01875,0.1175,-0.0,-0.0021975,0.0060125,-0.0001525,0.12625,0.0075,0.00375,-0.00035,0.0002125,-0.0001375,1742107869.5231209
-0.0275,0.12375,-0.00625,0.009675,-0.05391,0.0014500001,0.1225,0.02375,-0.0025,-0.00052,0.0,0.0010225,1742107869.6402628
-0.03125,0.13125,0.0075,-0.03038,0.0246125,-0.0010975,0.1225,0.0175,0.00375,0.0007775,-0.000305,-0.0001375,1742107869.7608871
-0.015,0.115,-0.00125,-0.0175925,0.016875,-0.0006725,0.11875,0.01625,0.00375,-0.001145,-0.001175,-0.0016925,1742107869.8632698
-0.0175,0.1275,-0.03375,-0.0015875,-0.02008,0.0021975,0.12375,0.01875,-0.005,0.000565,0.00079250004,0.001495,1742107869.980737
-0.0225,0.095,0.065,0.02823,0.04451,-0.0034949998,0.12125,0.01875,0.005,0.0003825,-0.0001825,-0.0001225,1742107870.090278
-0.02625,0.1175,-0.01,0.0009775,0.026337499,-0.001725,0.1175,0.01875,0.00125,-0.0007475,-0.0016325001,-0.00177,1742107870.219521
-0.015,0.12,-0.02125,-0.0013575,-0.019745002,0.0004125,0.125,0.0175,-0.0,-4.5e-05,0.0016775,0.0012675,1742107870.319426
-0.04875,0.13,0.1225,0.0328525,0.019715,0.00032,0.12,0.01875,0.00375,0.00091500004,-0.0007775,0.0001525,1742107870.440573
-0.03125,0.12,0.0025,0.00705,0.0351725,-0.001405,0.1225,0.0175,0.0025,0.000365,0.00033500002,-0.0004425,1742107870.545088
-0.02,0.11625,-0.005,0.00154,0.0025025,-0.000365,0.12625,0.015,0.005,-0.0010975,0.0007025,0.0004275,1742107870.6592488
-0.02125,0.1225,0.00625,0.0051275003,-0.07364,0.0018150001,0.12125,0.02375,0.00375,0.0004125,-0.00091500004,1.5e-05,1742107870.7804859
-0.025,0.12875,0.02375,-0.00879,0.03508,0.00296,0.1225,0.01625,0.0,0.00058,0.0004725,-0.0004425,1742107870.884073
-0.01375,0.1175,0.01125,-0.0101025,-0.0057975003,0.0009625,0.12375,0.01125,0.00625,-0.00032,-0.000365,-0.0013725,1742107870.999506
-0.0225,0.12875,-0.0075,-0.002045,-0.03421,-0.00534,0.1225,0.02,-0.005,-0.00061,4.5e-05,0.001115,1742107871.118269
-0.0225,0.105,0.03625,-0.005035,0.021102501,-0.0025625,0.12125,0.02,0.00125,0.000535,0.0004725,-0.000275,1742107871.240591
-0.02125,0.1225,0.01,-0.008575,0.019715,-0.0013575,0.12125,0.015,0.0025,0.0001525,3e-05,-0.000535,1742107871.3406699
-0.0125,0.12375,-0.02875,0.0004125,-0.007935,-0.0004425,0.125,0.02,-0.0,-0.0007475,0.0014500001,0.0007175,1742107871.461968
-0.07625,0.13375,0.155,0.025222499,-0.0078575,0.0022725,0.12125,0.02,0.0025,0.00048750002,-0.00023,-0.000107500004,1742107871.563067
-0.0225,0.12375,0.01,-0.00917,0.034912497,0.0009925,0.1225,0.01625,0.00125,-0.0004425,0.00061,-0.00035,1742107871.677092
-0.01375,0.125,-0.02,0.00528,0.0039224997,0.0016175,0.1275,0.0075,0.0025,-0.0019375,0.0016175,-0.000305,1742107871.7995808
-0.0275,0.12375,0.03,0.016432501,-0.064072505,0.00348,0.1225,0.01875,-0.00125,-0.00293,0.00299,0.0016775,1742107871.9040809
-0.03875,0.12625,0.02625,-0.03447,0.0419625,0.006775,0.1225,0.02125,-0.01125,-0.000655,0.0045925,3e-05,1742107872.02241
-0.0175,0.13125,-0.0175,-0.007645,0.0078425,0.00052,0.1225,0.015,-0.01,-0.0007175,-0.0010375,-0.001725,1742107872.140182
-0.02625,0.115,0.00125,0.01146,-0.0544125,-0.000855,0.1225,0.01875,-0.01375,-0.0001825,0.0004125,0.0020299999,1742107872.261122
-0.01625,0.09375,0.045,0.001435,0.03508,-0.0034475,0.12,0.02125,-0.01,-0.0002125,0.00035,-0.000107500004,1742107872.3611982
-0.02625,0.12375,-0.0075,-0.0083775,0.021302499,-0.001785,0.12125,0.02,-0.00875,-0.0013575,0.00331,-0.001115,1742107872.48222
-0.00875,0.115,0.0,0.0038599998,-0.0055075004,-0.00087,0.1525,0.00625,-0.01625,-0.0026099999,0.012802499,-0.0071875,1742107872.588206
-0.0875,0.14875,0.11375,0.0012975,-0.051315,0.0047750003,0.12,0.0125,-0.03125,-0.0015875,0.0024725,-1.5e-05,1742107872.702175
-0.0175,0.1275,0.0275,-0.0065300004,0.0328075,0.00467,0.12,0.01,-0.0275,-0.0004125,-0.0007625,-0.00033500002,1742107872.8221471
-0.02125,0.12125,-0.01,0.00525,0.0001825,-0.001115,0.12375,0.005,-0.02125,0.0004425,-0.002075,-0.0018,1742107872.941346
-0.02375,0.1175,0.01125,0.0045775,-0.061005,0.0030975002,0.11875,0.01375,-0.0275,-0.00055,-0.000565,0.0012975,1742107873.044199
-0.0275,0.1225,0.04125,-0.022645,0.0307475,0.0064850003,0.12,0.0125,-0.025,0.0007025,-0.0007025,-0.00061,1742107873.160964
-0.0225,0.12375,-0.00375,-0.0048825,0.0096275,-0.0013125,0.11875,0.0125,-0.0225,-0.0007175,-0.002045,-0.0012050001,1742107873.281228
-0.0125,0.12,-0.0175,-0.00035,-0.02513,-0.001405,0.1225,0.0125,-0.02625,-0.0024100002,0.0013725,0.0020150002,1742107873.4016361
-0.03875,0.10875,0.105,0.047455,0.026535,-0.00267,0.12,0.015,-0.02,0.0010825,-0.0022574998,0.000275,1742107873.50099
-0.0325,0.1175,0.015,-0.0119475005,0.0281525,-0.00331,0.12,0.01125,-0.0225,0.0010075001,0.000275,-0.0001975,1742107873.618696
-0.00375,0.12625,-0.02875,0.005585,-0.0134275,-0.0037850002,0.125,0.0125,-0.025,-0.0010825,0.002395,0.000825,1742107873.739145
-0.075,0.14625,0.15,0.014527501,-0.01587,0.00125,0.12,0.015,-0.02,0.00035,-0.00087,3e-05,1742107873.8582861
-0.0325,0.1225,0.015,-0.0028225,0.026795,-0.00232,0.12,0.0125,-0.02125,0.000655,-0.000245,-4.5e-05,1742107873.961552
-0.01375,0.115,0.00875,0.0003975,0.0066675,0.0016325001,0.1275,-0.0025,-0.02,-0.0001225,0.0001975,-0.00093,1742107874.08206
-0.01625,0.1325,0.035,0.0063925,-0.089112505,-0.0005025,0.12125,0.02,-0.025,-0.00029,-0.0007325,0.00055,1742107874.184111
-0.03,0.125,0.03375,-0.0177775,0.036895,0.0007475,0.12125,0.01125,-0.02,0.0006725,6e-05,-0.00079250004,1742107874.301343
-0.01,0.10125,0.00625,-0.0057975003,0.0152125,0.002075,0.11875,0.01125,-0.02,-0.00079250004,-0.0010675,-0.0005025,1742107874.420234
-0.01625,0.12875,-0.01375,-0.0025625,-0.0136425,0.0027625,0.12625,0.0125,-0.02125,-0.00058,0.00267,0.0015875,1742107874.540488
-0.0525,0.1275,0.16125,0.0346075,-0.0044549997,0.002,0.11875,0.01375,-0.0175,0.0004725,-0.0018150001,-7.75e-05,1742107874.640077
-0.03375,0.1325,-0.0,0.0033725,0.035035,-0.00827,0.12,0.0125,-0.02125,0.000855,-0.0004425,-0.0001375,1742107874.758989
-0.00125,0.10625,-0.02125,-0.0009775,-0.0030375,-0.0030375,0.12625,0.0075,-0.0175,-0.0033575,0.0025175,0.0006875,1742107874.868025
-0.1225,0.18875,0.2175,0.0494225,-0.00731,-0.00612,0.12,0.01875,-0.02375,-0.00087,-0.0010225,0.0007025,1742107874.982079
-0.0325,0.1525,0.03625,0.088485,0.06369,-0.0004125,0.12125,0.01,-0.02125,0.000535,-0.00033500002,-0.0013725,1742107875.096102
0.01125,-0.0,0.0925,0.1084125,-0.01912,0.032470003,0.1225,0.0075,-0.02125,-0.0004275,-9.25e-05,-0.00016750001,1742107875.22066
-0.0225,0.01875,0.13,0.01381,-0.0083625,0.012069999,0.12,0.01125,-0.02125,-0.00059500005,-0.000107500004,-0.00055,1742107875.33938
