L-AccX,L-AccY,L-AccZ,L-GyrX,L-GyrY,L-GyrZ,R-AccX,R-AccY,R-AccZ,R-GyrX,R-GyrY,R-GyrZ,timestamp
0.0025,0.01125,0.135,-0.0030525,-0.0084224995,-7.75e-05,0.00125,-0.03125,0.12625,0.0072175004,-0.0034625002,-0.002885,1742107742.425379
-0.00125,0.0125,0.11875,-0.0028525,-0.0072475,0.0001525,-0.0075,-0.04,0.1425,0.014145001,0.0018475,0.0010075001,1742107742.5382001
-0.01625,0.0125,0.11375,-0.001405,-0.026765,0.0036475,0.0075,-0.04875,0.1175,0.0074,0.016082501,0.0107275,1742107742.652056
-0.04625,0.01125,0.11375,-0.0037525,-0.028565,0.005065,0.025,-0.03625,0.1,0.0047750003,0.0089425,0.0110925,1742107742.768758
-0.065,0.02,0.11,0.0012050001,-0.0037225,0.0046550003,0.03875,-0.03375,0.1025,6e-05,-0.00293,0.006835,1742107742.878174
-0.07,0.0175,0.1325,-0.0021825,0.0305625,0.00232,0.0325,-0.02625,0.13125,-0.002915,-0.0016625,0.003905,1742107742.9922738
-0.02375,0.01625,0.11625,-0.0025175,0.0293575,0.0034025,0.03375,-0.03,0.1175,-0.0056149997,0.0037525,0.00064,1742107743.108425
0.00125,0.0125,0.105,0.0018300001,-0.0160525,-0.001785,0.03625,-0.0375,0.10875,-0.0032950002,0.0009,0.0014500001,1742107743.220206
-0.05125,0.00875,0.13125,0.0068825004,-0.03366,-0.001235,0.03875,-0.0425,0.15875,0.0089724995,0.01953,0.0048525,1742107743.334045
-0.03875,0.01,0.14625,-0.015045,0.080199994,-0.0024100002,0.04625,-0.02875,0.1125,-0.005905,0.0002125,0.0013875001,1742107743.447903
0.025,0.03,0.0975,-0.010314999,-0.0010525,-0.004685,0.045,-0.02125,0.10875,-0.002885,0.00026,0.0016475001,1742107743.5610292
-0.03125,0.005,0.10625,0.008239999,-0.0685725,0.002045,0.04125,-0.0225,0.12125,-0.00508,-0.00583,4.5e-05,1742107743.67427
-0.07125,0.0125,0.175,-0.009292499,0.069657505,0.0009775,0.04125,-0.015,0.1125,-0.001175,0.0011900001,0.000275,1742107743.788857
0.025,0.00875,0.03875,-0.004945,-0.0098425,-4.5e-05,0.0475,-0.01625,0.10875,-0.0012050001,-0.000275,0.001145,1742107743.902147
-0.0225,0.0025,0.10125,0.024139998,-0.07756,0.006515,0.0425,-0.015,0.115,-0.001405,-0.0055075004,-0.000107500004,1742107744.016351
-0.07625,0.01125,0.17875,-0.008225,0.049285,-0.0034625002,0.03875,-0.00625,0.10125,0.0034949998,-0.0044549997,-0.00084,1742107744.1301398
0.04375,0.0125,0.00125,0.0165875,0.0154275,-0.00354,0.0475,-0.015,0.11,0.0004275,0.0012975,0.0013725,1742107744.249113
-0.01,-0.0025,0.09,0.03331,-0.088745005,0.00978,0.04375,-0.01625,0.1125,-0.00035,-0.0034025,-0.0001375,1742107744.3572989
-0.07875,0.0125,0.18375,-0.014085,0.042435,-0.0075075002,0.04625,-0.01,0.09625,0.0069575,-0.00232,0.00029,1742107744.4710531
0.0375,0.03625,0.04,0.00293,0.03,-0.0018475,0.045,-0.01375,0.11375,0.0001825,0.0015875,0.00174,1742107744.587969
0.0175,0.005,0.095,0.02942,-0.0653225,0.005035,0.04625,-0.01125,0.11,-0.0003825,-0.0010225,-0.0003825,1742107744.6982021
-0.06125,0.015,0.15625,-0.01683,0.0039825,-0.007965,0.0375,-0.02375,0.13625,-0.00299,-0.0007325,0.00058,1742107744.812159
-0.005,0.01125,0.115,-0.0096275,0.068405,0.0006725,0.04375,-0.01125,0.11625,0.000305,0.00032,0.00048750002,1742107744.928944
0.025,0.02125,0.07875,0.0127725,-0.038925,-0.004365,0.045,-0.01,0.115,-6e-05,-0.0001225,-0.00055,1742107745.039283
-0.09,-0.005,0.18375,-0.008195,-0.0039975,-0.0058125,0.0375,-0.02,0.13875,-0.0019675,0.00473,0.00154,1742107745.1530728
-0.02375,0.005,0.1225,-0.0245975,0.079835,-0.0039375,0.045,-0.0075,0.11625,-0.0004275,-0.00093,-0.0001825,1742107745.269736
0.01875,0.03125,0.085,0.014007499,-0.038542498,-0.0036175,0.0425,-0.01125,0.1175,0.000275,-0.0008075,0.0001225,1742107745.3812249
-0.08,-0.0225,0.175,9.25e-05,-0.026795,-0.0068675,0.0375,-0.01125,0.14125,-0.0024575,0.0054925,0.0006875,1742107745.4950342
-0.02125,-0.005,0.1275,-0.011229999,0.08638,0.0007175,0.04625,-0.00875,0.11375,-0.000625,-0.0012050001,6e-05,1742107745.609303
0.02125,0.0075,0.0875,-0.0022274998,-0.0326375,0.0024875,0.04125,-0.01,0.1225,-0.0007625,-0.000825,9.25e-05,1742107745.729721
-0.0725,-0.02375,0.1225,0.0034025,-0.084122494,0.00937,0.04375,-0.01,0.115,-0.0006875,-0.00148,-0.000365,1742107745.837165
-0.085,-0.02,0.14125,-0.014085,0.0700075,-0.0026099999,0.0375,-0.0,0.10625,-0.0007175,-0.00377,-0.00093,1742107745.9511528
0.0275,0.015,0.03625,0.0048074997,0.011275,0.0018300001,0.0425,-0.01125,0.1175,-0.000655,0.0001975,-0.0001975,1742107746.065078
-0.03875,-0.025,0.095,0.020965,-0.087235,0.003815,0.0425,-0.00875,0.115,-0.0001225,-0.00055,-0.00048750002,1742107746.179171
-0.115,-0.0225,0.17,-0.0107125,0.0566875,-0.0056,0.04,-0.0075,0.1125,-0.00058,-0.00154,-0.00048750002,1742107746.293123
0.0075,0.01,0.0725,-0.0037850002,0.0364075,0.0045475,0.04375,-0.01,0.11625,-0.0001375,0.00052,-0.0001825,1742107746.4097202
-0.02625,-0.01625,0.0875,0.024825001,-0.0774375,0.002335,0.045,-0.01,0.11375,0.00032,-0.0001975,-0.000275,1742107746.52107
-0.12,-0.02375,0.175,-0.00357,0.032822497,-0.005935,0.04625,-0.0075,0.0925,0.000565,0.0068675,0.0024100002,1742107746.634859
-0.00625,0.01625,0.07875,-0.02002,0.07521,0.0056149997,0.04625,-0.0125,0.11625,-0.00033500002,0.0012050001,-0.001175,1742107746.750123
0.00375,0.00875,0.0975,0.020920001,-0.041334998,-0.00789,0.04625,-0.01125,0.115,0.00033500002,-0.0002125,0.0001525,1742107746.8619509
-0.10125,0.0,0.16875,0.009475,-0.0379175,-1.5e-05,0.04375,-0.01625,0.145,0.0037225,0.008909999,0.0010225,1742107746.9758341
-0.02875,-0.00125,0.11125,-0.022155,0.087417506,-0.0007475,0.05,-0.01,0.11375,0.0004425,-0.00033500002,-0.000245,1742107747.089277
0.01375,0.0125,0.0825,0.0050500003,-0.0440525,-0.002395,0.04625,-0.01,0.11875,1.5e-05,-0.0007625,4.5e-05,1742107747.203499
-0.105,-0.00375,0.14,0.0023800002,-0.0715025,0.0095225,0.0475,-0.01,0.115,-0.000245,-0.002075,-0.000275,1742107747.3171399
-0.09,-0.015,0.1425,-0.0121775,0.0766,-0.010452501,0.04375,-0.0025,0.10125,-0.000945,-0.0042125,-0.0014500001,1742107747.4311209
0.035,-0.02125,0.03625,0.014007499,4.5e-05,-0.0007625,0.04625,-0.0125,0.115,-0.00058,-0.000855,0.00016750001,1742107747.5450602
-0.02625,-0.015,0.09,0.022675,-0.08429,0.0038,0.0475,-0.01,0.115,-6e-05,-0.00048750002,-9.25e-05,1742107747.659199
-0.125,-0.02875,0.18,-0.0080875,0.046555,-0.013274999,0.05125,0.00625,0.07625,-0.0051875,0.00084,0.00264,1742107747.772869
0.0275,0.03625,0.03375,0.002105,0.0596,-0.00023,0.0475,-0.0125,0.115,0.0004425,-0.0022725,-0.0001825,1742107747.89067
0.0175,0.00125,0.08375,0.027787501,-0.06694,0.002595,0.04625,-0.00875,0.12,-0.0001225,0.0001975,-0.0001525,1742107747.999987
-0.1225,-0.0025,0.15125,0.006745,-0.049147498,0.0077825,0.0475,-0.01125,0.11625,-0.0004725,-0.00059500005,-0.00032,1742107748.114181
-0.0525,-0.0025,0.11375,-0.021637501,0.1041725,-0.0022574998,0.04875,-0.0075,0.115,0.00029,0.0003825,0.00048750002,1742107748.2311711
0.0275,0.00625,0.05125,-0.00084,-0.0168,-0.0006875,0.0475,-0.01,0.11625,-0.000535,-0.0004275,-0.00052,1742107748.3500469
-0.08,-0.00875,0.1175,0.012725,-0.1029675,0.0013875001,0.0475,-0.01,0.115,-0.0004125,-9.25e-05,-0.00035,1742107748.4561028
-0.10625,-0.015,0.1575,-0.020965,0.088685,-0.0186775,0.05,0.0025,0.0925,-0.0016025,-0.0016475001,-0.0010375,1742107748.575114
0.055,0.00125,0.01,0.0188,0.0202475,-0.00229,0.05,-0.01,0.11375,-0.0006725,-0.0025175,-0.0001225,1742107748.684064
0.01625,0.00625,0.0825,0.029114999,-0.07573,0.0072475,0.0475,-0.00875,0.12,-0.00045750002,0.00084,-0.0004425,1742107748.797994
-0.11,-0.01625,0.17125,-0.009582501,-0.0142675,-0.01126,0.05,-0.00875,0.1175,0.0001375,0.00079250004,0.00016750001,1742107748.911823
-0.0175,0.00625,0.1,-0.013,0.0973825,-0.0019675,0.05125,-0.005,0.1125,-7.75e-05,0.0010675,-0.00029,1742107749.0334961
0.0425,0.0,0.05375,0.008605,-0.0334925,0.003555,0.05125,-0.01,0.11625,0.00016750001,4.5e-05,0.0001375,1742107749.138807
-0.09625,-0.0175,0.155,0.0124200005,-0.0733025,0.004975,0.05125,-0.0075,0.1125,0.0003975,-0.0013125,0.00016750001,1742107749.251931
-0.06875,-0.015,0.14125,-0.02266,0.0859525,-0.00911,0.04875,-0.0075,0.11625,0.00032,9.25e-05,-0.0001975,1742107749.371695
0.02875,-0.0025,0.0625,-0.003815,0.0121625,0.0020150002,0.04875,-0.00875,0.11375,-0.000365,0.00026,-0.0007475,1742107749.4799922
-0.02,-0.01625,0.0875,0.018492501,-0.080657504,0.008195,0.05,-0.00875,0.11125,0.00032,-0.00033500002,-0.0001525,1742107749.594004
-0.1275,-0.025,0.19,-0.0081775,0.041564997,-0.01126,0.04875,-0.01375,0.1175,-0.0001525,0.002685,0.000625,1742107749.710738
0.01375,-0.00125,0.07375,-0.009675,0.073075,0.00525,0.04875,-0.0075,0.11375,-7.75e-05,-7.75e-05,-0.00048750002,1742107749.8221052
0.0275,0.015,0.07375,0.01474,-0.05513,-0.00048750002,0.05,-0.00875,0.115,0.000365,0.0001825,-4.5e-05,1742107749.935922
-0.115,-0.02,0.16125,0.0141,-0.052735,0.003875,0.04875,-0.00875,0.11625,-6e-05,-0.0011900001,4.5e-05,1742107750.054541
-0.07625,-0.0225,0.135,-0.0107125,0.0626375,-0.0084525,0.05,-0.0075,0.11375,0.00035,0.00055,-0.0001825,1742107750.171412
0.02625,-0.0025,0.07625,-0.0024249998,0.033645,0.0051275003,0.0475,-0.01125,0.11375,-0.00016750001,-0.00064,-0.000305,1742107750.278069
0.0125,-0.0025,0.0675,0.015502499,-0.0699925,-0.0010525,0.04875,-0.0075,0.11625,-6e-05,-0.00079250004,-0.000245,1742107750.392388
-0.11125,-0.0075,0.16625,-0.0046550003,-0.0055075004,-0.0066225,0.04875,-0.00875,0.11375,0.0004725,-0.00091500004,-0.0004725,1742107750.513416
-0.0475,-0.00375,0.12375,-0.0148325,0.0620275,-0.01181,0.045,-0.00875,0.1175,-0.0001525,-0.0007775,-0.0007175,1742107750.620129
0.0375,-0.0,0.06,0.0056149997,0.0045775,0.0021825,0.04625,-0.01,0.1175,-0.000365,0.00048750002,-9.25e-05,1742107750.7338738
-0.02,-0.01,0.08625,0.024292499,-0.087005,0.01291,0.0475,-0.01,0.11375,-1.5e-05,-0.0001225,-0.000245,1742107750.8513658
-0.11625,-0.0175,0.1675,-0.00389,0.0081325,-0.003525,0.04625,-0.01125,0.1175,0.0002125,0.000245,0.0001975,1742107750.9616861
-0.02125,0.0025,0.09625,-0.0087275,0.0676425,-0.00612,0.0475,-0.00875,0.11375,-0.0001225,0.0003825,0.0001825,1742107751.076176
0.03625,0.0,0.06,0.0054325,-0.021317499,0.000625,0.0475,-0.00875,0.1175,-1.5e-05,7.75e-05,0.000107500004,1742107751.1924422
-0.095,-0.00125,0.145,0.017715,-0.06366,0.0116425,0.0475,-0.01,0.115,-7.75e-05,-4.5e-05,0.00016750001,1742107751.301911
-0.09,-0.015,0.15625,-0.012802499,0.0658275,-0.017165001,0.04875,-0.01,0.11375,4.5e-05,0.00035,0.0004725,1742107751.415658
0.04125,-0.015,0.05875,0.0048975,0.0266425,0.0014500001,0.0475,-0.00625,0.11625,-0.0005025,-0.00035,-9.25e-05,1742107751.534143
0.0075,-0.00875,0.07875,0.019469999,-0.074005,0.010375,0.04875,-0.01,0.11625,-0.0004275,0.000945,-0.000305,1742107751.643594
-0.08875,-0.01625,0.1675,0.0018150001,0.005295,-0.0069274995,0.04875,-0.01,0.1175,-0.00016750001,0.0001825,0.00016750001,1742107751.7567942
-0.0175,-0.00625,0.11125,-0.013274999,0.0644675,-0.0106975,0.05,-0.00875,0.1125,0.00061,0.0003825,0.00064,1742107751.872517
0.03875,-0.0225,0.06375,0.0021975,-0.0140375,0.00673,0.05,-0.00625,0.1175,9.25e-05,-0.00058,0.0007625,1742107751.992668
-0.06625,-0.015,0.12125,0.02823,-0.077544995,0.0234675,0.04875,-0.00875,0.11625,-0.0001525,0.0007625,-0.00055,1742107752.097868
-0.1175,-0.03125,0.185,-0.017335,0.063095,-0.032455,0.05,-0.0075,0.1075,-0.0034475,0.002135,0.0006725,1742107752.213015
0.0475,-0.03625,0.04875,0.00528,0.059692502,0.00331,0.05375,-0.005,0.1075,-9.25e-05,-0.0009925,0.0001975,1742107752.33182
0.03625,0.02,0.05625,0.024825001,-0.06018,0.011215,0.04875,-0.00875,0.12,-0.000565,-0.0012975,-0.00064,1742107752.440012
-0.08125,-0.015,0.15625,-0.013625,-0.039077498,-0.0155475,0.05125,-0.00875,0.11375,7.75e-05,0.0007625,-1.5e-05,1742107752.555203
-0.09,-0.04,0.17375,-0.0183725,0.0658425,-0.0229025,0.05125,-0.00875,0.11375,-6e-05,-0.00026,3e-05,1742107752.6719518
0.04625,-0.01875,0.04125,0.0007025,0.0301975,0.008880001,0.0475,-0.00875,0.11625,1.5e-05,-0.00084,0.000305,1742107752.7818408
-0.00875,0.015,0.07125,0.022444999,-0.08345,0.01303,0.05,-0.00875,0.11375,-0.0001975,0.00059500005,-0.000365,1742107752.895891
-0.13875,-0.01375,0.1975,-0.0093525,0.010255001,-0.019469999,0.05125,-0.01,0.11375,0.0016775,0.001115,-4.5e-05,1742107753.013916
-0.00875,-0.02375,0.095,0.0021199998,0.099395,0.00531,0.04875,-0.00625,0.1175,-1.5e-05,-0.00113,0.00055,1742107753.132776
0.04625,0.0175,0.0525,-0.000535,-0.022935,0.0038299998,0.04875,-0.01,0.11625,-0.00035,0.00055,-0.0003975,1742107753.237876
-0.06875,-0.005,0.1375,0.0137950005,-0.070342496,0.0074299998,0.05125,-0.0075,0.11,-0.0001825,-0.00023,-0.00016750001,1742107753.3522491
-0.08125,-0.015,0.16875,-0.016327498,0.0718225,-0.02266,0.04875,-0.01,0.11375,-3e-05,-0.0005025,0.0004125,1742107753.47229
0.0525,-0.01,0.04875,-0.0039375,0.029129999,0.0042275,0.04875,-0.00875,0.11625,-0.0007775,3e-05,-0.00026,1742107753.5799072
0.02375,-0.0,0.06,0.021790002,-0.091415,0.0093075,0.05125,-0.0075,0.11125,-0.0001975,0.0005025,3e-05,1742107753.693681
-0.11375,-0.00375,0.17375,0.00087,-0.01001,-0.0008075,0.04875,-0.01,0.11625,-1.5e-05,-0.0011900001,-3e-05,1742107753.812979
-0.04125,-0.00875,0.13125,-0.0196375,0.103377506,-0.0081475,0.05,-0.01,0.11375,0.0001975,0.000305,0.00023,1742107753.9205701
0.0425,0.015,0.03625,0.0007775,0.0001525,0.0023800002,0.0475,-0.01,0.1175,-0.0007325,-1.5e-05,-7.75e-05,1742107754.0352352
-0.02875,-0.02125,0.10375,0.01825,-0.096955,0.0087275,0.05,-0.00625,0.11125,7.75e-05,-0.0001225,3e-05,1742107754.152261
-0.11,-0.0175,0.17625,-0.008515,0.055985,-0.008835,0.04875,-0.01625,0.11875,0.0007325,0.0006725,0.001235,1742107754.26163
0.02375,-0.00125,0.0775,-0.01323,0.0520925,0.00142,0.0475,-0.00875,0.115,-7.75e-05,-0.0002125,-0.0001225,1742107754.374926
0.04375,0.00375,0.06125,0.01625,-0.0549625,0.00302,0.04875,-0.0075,0.11625,-0.0002125,0.0007025,-0.0002125,1742107754.493518
-0.1125,-0.01875,0.16625,0.013015,-0.071792506,0.008605,0.04875,-0.01,0.11125,0.0004125,-0.0025325,0.0004275,1742107754.6128378
-0.06875,-0.01,0.13875,-0.0214075,0.096985,-0.01471,0.04875,-0.01,0.1175,0.0012975,-0.00064,-0.0001375,1742107754.716782
0.0475,-0.00125,0.02,0.000245,-0.00058,0.0,0.04625,-0.00875,0.11875,-0.0004725,-4.5e-05,-0.000275,1742107754.833545
-0.035,-0.015,0.09375,0.022735002,-0.1012725,0.0122375,0.04875,-0.00875,0.11125,1.5e-05,-0.0008075,-9.25e-05,1742107754.953079
-0.11,-0.0125,0.16375,-0.01027,0.0361025,-0.0102075,0.045,-0.00875,0.12125,0.000365,-0.00122,-0.0001225,1742107755.0587468
0.01125,0.0075,0.08,-0.0127725,0.0743725,0.0058125,0.04625,-0.00875,0.115,1.5e-05,0.0008075,-7.75e-05,1742107755.173673
0.02875,0.0175,0.06,0.017760001,-0.057435002,-0.0009625,0.0475,-0.00875,0.115,-0.000245,0.0007475,-0.000275,1742107755.293302
-0.12625,-0.04125,0.16,0.0096424995,-0.072294995,0.00714,0.045,-0.0075,0.115,0.0001975,-0.0022574998,0.00035,1742107755.400675
-0.08,-0.0125,0.1325,-0.0186,0.10797,-0.0065450002,0.04875,-0.0075,0.1125,0.00033500002,-0.00023,-0.0007325,1742107755.514803
0.05375,0.00625,-0.00375,0.0010225,-0.0079499995,-0.003235,0.04625,-0.00875,0.1175,-0.0004275,-0.00113,0.000107500004,1742107755.633725
-0.03375,-0.02,0.1,0.02591,-0.1009525,0.0078425,0.04875,-0.00625,0.11125,7.75e-05,-0.0007625,3e-05,1742107755.753006
-0.1,-0.0075,0.15,-0.0071575,0.0207975,-0.0051275003,0.0425,-0.01125,0.12625,0.00061,0.00087,0.00032,1742107755.85658
-0.00625,0.0125,0.10375,-0.02916,0.0856475,0.00116,0.0475,-0.00875,0.11375,-6e-05,0.000625,-9.25e-05,1742107755.9730718
0.0275,0.015,0.0625,0.01303,-0.051117502,-0.0036925,0.0475,-0.0075,0.11625,-1.5e-05,6e-05,-9.25e-05,1742107756.092265
-0.11625,-0.0175,0.1375,0.013015,-0.083587505,0.0115975,0.045,-0.0075,0.11625,0.000275,-0.0019824998,1.5e-05,1742107756.198587
-0.08375,-0.01875,0.1275,-0.021850001,0.094574995,-0.0095225,0.0475,-0.00875,0.11625,0.0003975,0.0019075,-4.5e-05,1742107756.313642
0.0325,-0.00875,0.0525,0.0042725,0.006225,0.0040125,0.0475,-0.0075,0.115,-0.00048750002,-0.000855,-0.0003975,1742107756.433099
-0.03,-0.01375,0.07875,0.033217497,-0.08996499,0.0036775,0.04875,-0.0075,0.1125,0.0002125,-0.00035,3e-05,1742107756.540545
-0.1575,0.0,0.1725,-0.0039675,0.0384375,-0.0110925,0.0425,-0.0125,0.13375,-1.5e-05,0.00296,0.00058,1742107756.654699
-0.02625,0.01125,0.08875,-0.022950001,0.09163,0.00554,0.0475,-0.01,0.1125,1.5e-05,0.0007175,-0.000245,1742107756.773021
0.02375,0.02,0.07125,0.0148175005,-0.0608375,-0.0061025,0.0475,-0.0075,0.11625,0.00016750001,0.0002125,0.0001975,1742107756.8824918
-0.13375,-0.005,0.15875,0.0057825,-0.0650475,0.005035,0.045,-0.01,0.115,-0.0004275,-0.002655,-3e-05,1742107756.995789
-0.08,-0.02125,0.12375,-0.0107875,0.077225,-0.0112924995,0.045,-0.00875,0.10625,-0.0001375,-0.0041199997,-0.0009925,1742107757.112829
0.03625,0.0275,0.02375,0.0151225,0.0081625,0.0007025,0.045,-0.01,0.1175,-0.00055,-0.00116,6e-05,1742107757.2330172
-0.015,-0.01,0.0775,0.03273,-0.088425,0.0011900001,0.04625,-0.00875,0.11375,4.5e-05,4.5e-05,0.000107500004,1742107757.337601
-0.12625,-0.0225,0.15375,-0.0048225,0.017715,-0.001785,0.0325,-0.01625,0.17125,0.0025475,0.0154125,0.00064,1742107757.452677
-0.0575,-0.01,0.11625,-0.0451825,0.114365,0.0028675,0.0625,-0.00625,0.11125,-0.0031275,0.0003825,-0.0009,1742107757.565714
0.02625,0.0325,0.08875,-0.019592501,-0.0140675,-0.0039975,0.045,-0.00875,0.12125,-1.5e-05,-0.002075,0.00035,1742107757.679724
-0.05375,-0.00625,0.09,0.019592501,-0.10051,-0.0034949998,0.05,-0.0075,0.11,6e-05,-0.0021525,0.0001225,1742107757.793631
-0.11625,-0.01375,0.15875,-0.012542499,0.057724997,-0.0083925,0.05,0.005,0.08625,0.0008075,-3e-05,0.0002125,1742107757.9130208
0.02375,0.04625,0.04625,0.0104975,0.0579675,0.007125,0.04875,-0.01,0.1125,-0.00033500002,-0.0010075001,-9.25e-05,1742107758.021685
0.015,0.0125,0.0775,0.03885,-0.0738825,-0.0051424997,0.04875,-0.00625,0.115,0.000107500004,0.0002125,6e-05,1742107758.135374
-0.14375,-0.01625,0.175,0.0072625,-0.0496975,0.0036,0.04625,-0.00625,0.1175,-0.0009775,-0.0053875,-0.000655,1742107758.253322
-0.06875,-0.00625,0.1225,-0.020615,0.099870004,-0.0059975,0.05125,-0.01125,0.10375,-0.0030675002,-0.00052,-0.000565,1742107758.363607
0.0425,-0.025,0.04375,0.017975,0.002305,0.0010825,0.04875,-0.0075,0.115,-0.0005025,-0.0020599999,-0.000107500004,1742107758.4766872
-0.015,-0.00375,0.08125,0.03447,-0.09694,0.000107500004,0.04875,-0.0075,0.1125,1.5e-05,-0.0015875,-0.000275,1742107758.5922382
-0.11125,-0.01125,0.16,-0.00293,-0.0044400003,-0.0086975,0.03375,-0.01,0.15,0.00171,0.00441,0.0004425,1742107758.712894
-0.03875,0.00125,0.1175,-0.02954,0.1053775,-0.0027325,0.0575,-0.00375,0.11,-0.0016025,0.0016625,-0.0007325,1742107758.817591
0.03375,0.00375,0.07,-0.0137625,-0.0202175,-0.000825,0.04625,-0.00625,0.12,-0.0003825,-0.0016925,0.00032,1742107758.932904
-0.05625,-0.02,0.1125,0.016692499,-0.095580004,0.002045,0.05,-0.0075,0.11125,-0.0001975,-0.001465,-0.00048750002,1742107759.055837
-0.09875,-0.00375,0.15875,-0.009734999,0.055907503,-0.009675,0.0475,0.00125,0.095,-0.0048975,0.0076599997,0.0025175,1742107759.159422
0.02875,0.00625,0.07,-0.0093375,0.0661475,-0.0012825,0.05,-0.00875,0.11125,0.00045750002,-0.0011900001,0.000245,1742107759.272753
0.02625,0.02,0.0925,0.02156,-0.051315,0.0062399996,0.0475,-0.00625,0.11875,-0.00029,-0.001115,-0.0001375,1742107759.3933172
-0.10125,-0.01625,0.1575,-0.00151,-0.048584998,-0.0009625,0.0475,-0.005,0.115,-0.000885,-0.0046075,-0.000625,1742107759.50068
-0.0625,-0.00875,0.13625,-0.01596,0.0883625,-0.0074625,0.05125,-0.00625,0.1125,-0.001465,0.0011900001,6e-05,1742107759.614486
0.02875,-0.0025,0.0425,0.0056149997,-0.017212499,-0.0003825,0.05,-0.00625,0.115,-0.0004725,-0.0009925,0.000107500004,1742107759.732911
-0.0325,-0.025,0.0975,0.0207975,-0.088775,0.008850001,0.05,-0.0075,0.11,1.5e-05,-0.0016025,0.0001225,1742107759.852272
-0.10875,-0.01875,0.13875,-0.0028375,0.011855,0.0044699996,0.02625,-0.01625,0.1775,0.00415,0.01236,0.0016775,1742107759.956414
-0.045,-0.00875,0.12625,-0.038099997,0.105545,-0.0071575,0.06625,0.0,0.105,-0.009415,0.00171,-0.0007625,1742107760.076781
0.02125,0.0175,0.09625,-0.0042275,-0.0210125,-0.002365,0.05125,-0.00625,0.1175,-0.0001975,-0.0048825,0.00055,1742107760.1934688
-0.035,-0.01625,0.1125,0.0133825,-0.078705005,0.0019375,0.05,-0.005,0.1125,-6e-05,-0.005035,1.5e-05,1742107760.298599
-0.08125,-0.0125,0.145,-0.0013125,0.0298925,-0.0015725,0.045,0.00625,0.11875,0.002595,0.0069724997,0.001435,1742107760.413242
0.00125,0.00125,0.0925,-0.01027,0.038605,0.0055225003,0.04875,-0.00375,0.11375,-0.000855,0.00148,-0.00055,1742107760.535009
0.00125,0.00375,0.1025,0.015885001,-0.038895,0.0024575,0.04875,-0.00375,0.11625,-0.00032,-0.00023,-0.00023,1742107760.63968
-0.10625,-0.01625,0.15125,0.0034475,-0.034455,0.0013125,0.0475,-0.005,0.1175,-0.0012825,-0.00322,-0.0007475,1742107760.753561
-0.08125,-0.0225,0.1275,-0.0064075,0.05046,-0.0104674995,0.04875,0.005,0.09,0.00016750001,-0.0012050001,-0.001465,1742107760.873064
0.01625,0.02125,0.06375,-0.0181875,0.05127,0.0045625,0.04625,-0.00625,0.115,0.000275,3e-05,-0.000305,1742107760.981524
0.00375,0.0,0.08,0.0231475,-0.060425,-0.000885,0.04625,-0.00125,0.1175,-0.00029,-0.000107500004,-0.0001375,1742107761.095613
-0.1175,-0.02375,0.15,0.0036925,-0.0331725,-0.0001825,0.04,-0.0075,0.12875,-6e-05,0.0018150001,0.00035,1742107761.212822
-0.0875,-0.0125,0.13375,-0.02394,0.098037496,-0.000945,0.06,0.0,0.10375,-0.0040125,-0.0033425,-0.00151,1742107761.33298
0.0425,0.00625,0.03625,-0.0074925,-0.016479999,-0.0042425,0.0475,-0.00625,0.12125,-0.00154,-0.0029000002,0.000625,1742107761.4374988
-0.0275,-0.0275,0.1025,0.0198675,-0.090942495,-0.002685,0.05,-0.0,0.11125,0.00016750001,-0.0005025,-6e-05,1742107761.55566
-0.10625,-0.02,0.155,0.000655,0.02916,0.0022125002,0.05,-0.01125,0.10625,0.001435,0.0093075,0.002365,1742107761.673125
0.0,0.01375,0.095,-0.032822497,0.082305,0.0066975,0.05125,-0.00375,0.115,0.0009775,-0.00091500004,4.5e-05,1742107761.7784362
0.02625,0.02,0.08125,0.020920001,-0.0384825,-0.0009,0.05,-0.00125,0.11625,0.0001225,-0.0006725,9.25e-05,1742107761.89328
-0.09625,-0.0225,0.15,0.014405,-0.063095,0.001725,0.05125,-0.00375,0.11125,-0.00061,-0.00441,-0.00059500005,1742107762.013847
-0.05625,-0.01375,0.13375,-0.0234075,0.082185,-0.0016925,0.0525,-0.0025,0.115,-0.0001375,-0.001115,-0.0007625,1742107762.1206138
0.0325,-0.0125,0.04,0.016145,-0.017365,0.0016175,0.05,-0.00375,0.11625,-0.0003825,-0.001145,3e-05,1742107762.234506
-0.02625,-0.0075,0.0825,0.027755,-0.07846,0.0022725,0.05,-0.0025,0.11125,-0.0001375,-0.000885,-0.00035,1742107762.3523998
-0.12125,-0.03625,0.1475,-0.0021825,-0.0010225,-0.0060725003,0.04625,-0.00375,0.1175,-0.0002125,-0.00299,-0.00032,1742107762.463393
-0.065,-0.02375,0.1275,-0.0338275,0.102919996,-0.009262499,0.05125,-0.0025,0.10875,-0.0007625,-0.0019525,-0.0012975,1742107762.576885
0.03875,-0.00625,0.035,0.00045750002,-0.011657501,0.0007025,0.04875,-0.005,0.1175,-0.00048750002,-0.0016325001,0.0004725,1742107762.693238
-0.0275,-0.01,0.085,0.0305025,-0.09439,-0.0048525,0.04875,-0.00375,0.1125,0.00023,-0.00052,9.25e-05,1742107762.8128252
-0.12125,-0.03375,0.14875,-0.0060275,0.011185001,-0.0086825,0.03875,-0.02,0.1775,0.0058899997,0.022444999,0.0014500001,1742107762.918313
-0.04625,-0.02,0.11125,-0.045165002,0.1313325,0.0122225,0.0625,-0.00375,0.10875,-0.0025175,-0.0016775,-0.00055,1742107763.035242
0.035,0.0375,0.08625,-0.0095675,-0.0134725,-0.001405,0.04625,-0.0025,0.125,0.0001225,-0.0039525,0.00079250004,1742107763.153323
-0.06625,-0.02625,0.09375,0.020477502,-0.1100925,-0.0075075002,0.0525,-0.0025,0.10875,0.0001825,-0.0016775,-0.00032,1742107763.259433
-0.12625,-0.02,0.15875,-0.0064250003,0.0395975,-0.0055549997,0.055,0.01,0.08,-0.0019075,0.008485,0.0025625,1742107763.373514
0.02125,0.055,0.04,0.0027774998,0.0742175,0.01799,0.0475,-0.00625,0.11375,0.00061,-0.0012825,0.00032,1742107763.4931939
0.0225,0.02375,0.0725,0.0381925,-0.061767504,-0.0093075,0.0475,-0.00125,0.12,-4.5e-05,-0.00113,-0.0002125,1742107763.60055
-0.1325,-0.01375,0.17125,0.00328,-0.054167498,-0.00325,0.045,-0.0025,0.11625,-0.00023,-0.0055549997,-0.0003825,1742107763.714485
-0.07375,-0.02,0.13375,-0.0148325,0.0871575,-0.000885,0.05,-0.00625,0.09875,-0.0019525,-0.0019075,-0.0013125,1742107763.833556
0.045,-0.01375,0.03625,0.0037375,-0.0034025,0.0043025,0.05,-0.00375,0.11625,-0.0007625,-0.00354,0.00033500002,1742107763.943222
-0.015,-0.03375,0.08375,0.038605,-0.08786,-0.0077975,0.0475,-0.0025,0.11375,0.00058,-0.0027,-0.0005025,1742107764.05644
-0.12,-0.0325,0.16375,-0.001525,0.00235,-0.0076,0.03,-0.0,0.15,0.001495,0.000855,-0.000565,1742107764.173644
-0.04875,-0.03375,0.13375,-0.018477501,0.10324,-0.0021199998,0.0625,-0.005,0.10375,-0.00293,-0.0011900001,-0.0011900001,1742107764.293024
0.0325,-0.0025,0.09,-0.02626,-0.010545,-0.0004425,0.0475,-0.00375,0.12125,-0.0004425,-0.0033875,0.00116,1742107764.397429
-0.04875,-0.02375,0.0875,0.018004999,-0.1060475,-0.01233,0.0475,-0.0025,0.11625,0.000245,-0.0003975,-0.0004275,1742107764.514515
-0.1125,-0.0275,0.1575,-0.0064850003,0.035155,-0.0054925,0.05125,-0.00125,0.10375,0.001235,0.011765,0.0018775001,1742107764.6336372
-0.02125,0.00625,0.09625,-0.0242625,0.10707,0.022247499,0.04875,-0.005,0.1175,0.00142,-0.0014500001,0.0004275,1742107764.738291
0.0075,0.02625,0.08875,0.015075,-0.052535,-0.0078724995,0.04625,-0.0025,0.12,0.00033500002,-7.75e-05,6e-05,1742107764.853154
-0.10375,-0.01,0.14625,0.007005,-0.058029998,0.0001525,0.04875,-0.0025,0.115,-0.0004275,-0.0030675002,-0.0003825,1742107764.9731982
-0.0825,-0.01875,0.12875,-0.0007475,0.0494525,-0.0024575,0.04375,-0.0025,0.10125,0.0025775002,-0.0003975,-0.000535,1742107765.080426
0.025,0.0225,0.06375,0.0040425,0.030030001,0.0117025,0.04625,-0.00375,0.11375,0.000107500004,-0.000275,-6e-05,1742107765.194369
-0.005,0.01375,0.0925,0.026899999,-0.05838,-0.0006875,0.04625,-0.00375,0.11625,-9.25e-05,-0.00171,-0.0005025,1742107765.3134751
-0.12125,-0.02125,0.1575,-0.001785,-0.0071575,-0.0113525,0.03875,-0.00125,0.12125,-0.0005025,-0.0049274997,-0.0004425,1742107765.423451
-0.07,-0.0225,0.13125,-0.0208125,0.0822,-0.0092775,0.05125,-0.01125,0.11375,-0.0016025,0.0027,-7.75e-05,1742107765.536366
0.0175,-0.00125,0.0775,0.0045775,-0.0154875005,0.00293,0.04625,-0.00375,0.1175,-0.0003825,-0.001175,0.00061,1742107765.653897
-0.05375,-0.0175,0.09875,0.01529,-0.08345,-0.0074925,0.04625,-0.00375,0.115,-0.0001375,-0.0003825,-0.00033500002,1742107765.773779
-0.11,-0.01625,0.12875,-0.005235,0.021285,-0.0024249998,0.045,-0.00875,0.13,0.00035,0.012802499,0.0020150002,1742107765.878069
-0.02,0.00875,0.095,-0.01944,0.091277495,0.01831,0.05,-0.00875,0.1125,0.0012825,0.00061,0.0004275,1742107765.9938629
0.005,0.03125,0.0875,0.01564,-0.0464325,-0.008485,0.04625,-0.00125,0.11875,-0.00029,-0.0016775,-0.0001525,1742107766.113193
-0.11125,-0.00625,0.145,0.0045625,-0.063080005,-0.000565,0.04625,-0.0025,0.11375,-1.5e-05,-0.003815,-0.0001825,1742107766.2183812
-0.08625,-0.01375,0.13625,-0.00612,0.0611425,-0.003815,0.04625,0.0025,0.09875,-0.000245,-0.0007025,-0.000945,1742107766.3339531
0.03625,0.01125,0.04125,0.0077975,0.029435,0.0058125,0.0475,-0.00375,0.115,-0.00032,-0.001725,0.00026,1742107766.453054
-0.02375,-0.015,0.08625,0.017272498,-0.08447251,-0.0011900001,0.0475,-0.0025,0.11625,-0.00016750001,-0.00055,-0.000655,1742107766.560374
-0.12125,-0.02375,0.15125,-0.005235,0.014375,-0.0034949998,0.03625,-0.01,0.155,0.00331,0.0054325,0.0009775,1742107766.67405
-0.03125,-0.00375,0.105,-0.028959999,0.0944525,-0.0049274997,0.05625,-0.0025,0.11125,-0.0006875,-0.00023,-0.0009625,1742107766.7936718
0.02375,0.0125,0.09,0.003005,-0.0240025,-0.0063024997,0.0475,-0.0025,0.12,3e-05,-0.00113,0.0004125,1742107766.901194
-0.07125,-0.00375,0.1175,0.0036324998,-0.080567494,0.0011900001,0.05,-0.00375,0.1125,0.000107500004,-0.0007775,-0.0001525,1742107767.015311
-0.095,-0.00125,0.13125,-0.0010675,0.026825001,-0.00441,0.045,-0.00625,0.13875,0.00151,0.0068675,0.0010225,1742107767.13386
-0.0225,0.00125,0.1025,-0.017715,0.0859225,0.0075075002,0.04875,-0.00625,0.1125,0.00029,-0.00059500005,6e-05,1742107767.252589
0.0125,0.01875,0.0775,0.017165001,-0.052735,-0.00029,0.04625,-0.00125,0.11875,-0.0004275,-0.0001975,-0.0004425,1742107767.3564029
-0.1125,0.005,0.14875,0.004745,-0.048630003,-0.002395,0.04875,-0.00375,0.11375,-3e-05,-0.0021199998,7.75e-05,1742107767.473165
-0.09375,-0.01125,0.135,-0.000825,0.0402975,-0.008850001,0.04625,0.00125,0.10375,0.00023,0.0019525,9.25e-05,1742107767.592067
0.01375,0.01125,0.075,0.013625,0.045045,0.0157625,0.0475,-0.0025,0.11375,6e-05,-0.0009,0.000305,1742107767.697201
-0.0175,-0.0025,0.0925,0.018432502,-0.0643925,-0.001785,0.0475,-0.00375,0.11625,-0.0001375,-0.000535,-0.00061,1742107767.813798
-0.11625,-0.02,0.15625,-0.0018300001,-0.0024100002,-0.0077825,0.04375,-0.0025,0.12375,0.0002125,-0.000825,0.0002125,1742107767.93282
-0.04,-0.0075,0.10625,-0.01326,0.08438,0.002595,0.04875,-0.00375,0.11375,0.00045750002,0.0007175,-0.0001525,1742107768.039202
0.015,0.015,0.0775,0.0056775,-0.0338125,0.0016625,0.04625,-0.0025,0.11875,-0.00029,-0.00052,-0.0004725,1742107768.1540968
-0.0925,-0.0075,0.135,0.00348,-0.0605175,0.0029749998,0.0475,-0.0025,0.11375,0.000245,-0.0020299999,0.0001525,1742107768.27343
-0.08125,-0.0025,0.13,0.00061,0.0325775,-0.006835,0.04375,-0.00125,0.10875,-0.000825,0.0010075001,0.0001825,1742107768.38121
0.01,0.00375,0.0775,-0.001145,0.0355075,0.0076,0.04625,-0.00375,0.115,-0.00026,-0.0001225,-1.5e-05,1742107768.49531
-0.00375,0.005,0.0825,0.019805001,-0.0653225,0.00052,0.0475,-0.00375,0.115,-0.00055,-4.5e-05,-0.0006725,1742107768.613255
-0.1125,-0.0225,0.15125,-0.0033875,0.0043175,-0.0086199995,0.045,-0.0025,0.11625,3e-05,-0.0007025,0.00029,1742107768.733463
-0.05,-0.01,0.12,-0.016844999,0.08426,-0.0001825,0.055,-0.0025,0.11375,-0.0020150002,-1.5e-05,-0.0007475,1742107768.8362901
0.01875,0.00625,0.08125,-0.00052,-0.020934999,0.00235,0.04625,-0.00125,0.12,-0.00016750001,-0.0012050001,0.00061,1742107768.9531121
-0.0475,-0.02125,0.105,0.00299,-0.079239994,-0.00087,0.04875,-0.0025,0.11125,0.0,-0.0006875,-0.0004125,1742107769.064224
-0.1075,-0.00625,0.12375,-0.00052,0.0198375,0.003875,0.04375,-0.005,0.12125,0.00055,-0.0001525,0.0005025,1742107769.178067
-0.02625,-0.0025,0.095,-0.019805001,0.068145,0.0032650002,0.04625,-0.00375,0.11625,0.000305,0.0016175,3e-05,1742107769.293532
0.01125,0.00625,0.0775,0.0022125002,-0.043212503,-0.0044549997,0.04625,-0.00125,0.1175,-0.0004425,-0.000855,-0.00045750002,1742107769.413423
-0.09625,-0.0,0.12375,0.0079499995,-0.0429525,0.0090325,0.04625,-0.0025,0.11375,-0.000107500004,-0.00235,0.000305,1742107769.5181792
-0.1,-0.0025,0.1425,-0.0042575,0.045135,-0.009095,0.045,-0.00375,0.11,-0.0013125,0.0024249998,0.00079250004,1742107769.633857
0.01625,0.015,0.06125,-0.0081625,0.045027502,0.0025325,0.04375,-0.005,0.11375,3e-05,0.0005025,9.25e-05,1742107769.752735
-0.01,0.005,0.095,0.017760001,-0.056595,0.0037225,0.04375,-0.00125,0.11875,-0.0001225,-0.000365,-0.000365,1742107769.859325
-0.11625,0.0025,0.1675,0.0060275,-0.004945,-0.0034325,0.045,-0.01375,0.135,0.00325,0.015915,0.002685,1742107769.9732401
-0.01375,-0.0025,0.09375,-0.0224925,0.0775,0.0020150002,0.04875,-0.00625,0.115,0.00023,-0.00142,-0.000625,1742107770.092322
0.01875,0.01125,0.095,0.016815001,-0.03415,0.00045750002,0.045,-0.0025,0.12125,0.0001225,-0.0004275,0.0003975,1742107770.2001112
-0.09875,-0.00875,0.1375,0.004945,-0.064972505,0.008042499,0.04875,-0.0025,0.1125,-0.0004725,-0.0021675,-0.00045750002,1742107770.314383
-0.0825,-0.00625,0.135,-0.0134275,0.076095,-0.0107125,0.04625,0.0025,0.1075,-0.0001525,-0.0015575,-0.000855,1742107770.433245
0.0325,0.00875,0.03875,0.0081325,0.0008075,-0.0012975,0.04625,-0.00375,0.11625,-0.0006875,-0.00151,-1.5e-05,1742107770.542181
-0.02875,-0.01,0.09375,0.018004999,-0.079482496,0.0061950004,0.0475,-0.00375,0.11125,0.0001825,0.000245,-0.00023,1742107770.655997
-0.11125,-0.0225,0.15625,-0.0028675,0.02365,-0.0071575,0.04125,-0.01,0.1475,0.0043800003,0.0086375,0.0010525,1742107770.7726989
-0.01125,-0.005,0.095,-0.019072501,0.0785375,0.0006875,0.05,-0.0025,0.11625,0.000107500004,-0.0002125,-0.000245,1742107770.8834682
0.01625,0.01125,0.09375,0.0140225,-0.030915001,0.00087,0.045,-0.00125,0.12125,-6e-05,-4.5e-05,4.5e-05,1742107770.9971032
-0.085,-0.01125,0.13375,0.004135,-0.0644525,0.00618,0.0475,-0.00125,0.11375,0.0001525,-0.0013725,0.0001375,1742107771.113319
-0.08875,-0.00625,0.14125,-0.0018625,0.051544998,-0.0081625,0.04625,-0.00125,0.1125,-0.00016750001,0.0009775,4.5e-05,1742107771.233758
0.0075,0.00375,0.08,-0.0081025,0.034392502,0.0034475,0.045,-0.00375,0.11625,-7.75e-05,-0.0003975,4.5e-05,1742107771.339091
-0.01125,-0.00125,0.09,0.016755,-0.066315,0.0063775,0.04625,-0.0025,0.11375,-0.000107500004,-0.000245,-0.00033500002,1742107771.453183
-0.115,-0.01875,0.15375,-7.75e-05,0.0042425,-0.001785,0.04,-0.0025,0.13,0.0004425,-0.00029,0.00023,1742107771.5766249
-0.02875,-0.00625,0.095,-0.01619,0.0767525,-0.0012675,0.04625,-0.005,0.11625,0.0001225,0.0004425,-0.000245,1742107771.681003
0.01125,0.00625,0.08,0.014405,-0.041245,0.0013725,0.04625,-0.00125,0.1175,-0.0003975,-0.000107500004,-0.0003825,1742107771.7951949
-0.10875,-0.0075,0.14875,0.0074925,-0.038865,0.0074775,0.04625,-0.0025,0.11625,0.00035,-0.00171,0.00026,1742107771.912619
-0.06875,-0.00875,0.1275,-0.006515,0.05867,-0.0125575,0.045,0.00375,0.10875,-0.0007625,0.0025025,0.000365,1742107772.022877
0.015,0.00125,0.085,-0.0019525,0.030442499,0.0012825,0.0475,-0.0025,0.11375,-0.000365,-0.000625,6e-05,1742107772.136102
-0.02125,0.0,0.0875,0.0116725,-0.0650175,0.00029,0.0475,-0.00375,0.11625,-0.000275,0.0002125,-0.00048750002,1742107772.253317
-0.1175,-0.02,0.155,-0.0022274998,0.0025475,-0.0072025,0.04,0.005,0.13875,0.00293,0.00409,-0.0004275,1742107772.3732421
-0.04125,0.0,0.1125,-0.0040425,0.0980975,0.0111225005,0.05625,-0.0025,0.1125,-0.002595,-0.00091500004,-0.0007325,1742107772.47718
0.0225,0.0125,0.08875,-0.0117025,-0.034302503,-0.0043175,0.04625,-0.0,0.12125,-3e-05,-0.002305,0.0007775,1742107772.5925179
-0.07,-0.01375,0.11625,0.0003825,-0.07904,-0.0027774998,0.0475,-0.0025,0.11375,6e-05,-0.0008075,-0.000245,1742107772.71365
-0.09875,-0.0125,0.1375,0.0020299999,0.038865,-0.004365,0.04625,-0.0125,0.12,-0.001145,0.0066225,0.0014500001,1742107772.819026
0.0025,0.0075,0.09,-0.00052,0.0676575,0.0081475,0.04625,-0.00625,0.115,-7.75e-05,-0.0013875001,7.75e-05,1742107772.933082
0.01125,0.0025,0.085,0.01497,-0.0553125,-0.0030675002,0.04625,-0.0,0.11875,-0.00016750001,-0.00079250004,-0.0001375,1742107773.055986
-0.1225,-0.01125,0.1625,0.00351,-0.03769,0.0068825004,0.045,-0.0025,0.1175,-0.0001375,-0.00154,-9.25e-05,1742107773.161207
-0.06625,-0.00875,0.12375,-0.0160525,0.0856175,-0.011229999,0.04875,-0.0075,0.11,-7.75e-05,-0.00029,-0.00059500005,1742107773.275198
0.01875,-0.0075,0.07125,0.00293,-0.0224,0.0009925,0.045,-0.00125,0.12,-0.0003975,-0.0011900001,0.000275,1742107773.3930838
-0.04625,-0.02,0.10875,0.0066374997,-0.0827025,0.0048825,0.0475,-0.0025,0.1125,9.25e-05,-0.000365,-0.0001525,1742107773.503005
-0.0925,-0.005,0.13,-0.001235,0.0276325,0.0004125,0.045,-0.0175,0.12875,0.0048375,0.0121775,0.0009,1742107773.616832
-0.00875,-0.00375,0.105,-0.0252525,0.0788425,0.0046075,0.05,-0.00625,0.115,0.0007175,-0.0012825,-0.0001975,1742107773.7332108
0.015,0.00625,0.08625,0.0204925,-0.043855,-0.0028074998,0.04625,0.0,0.12,4.5e-05,-0.00059500005,4.5e-05,1742107773.8525178
-0.09875,-0.005,0.145,0.00348,-0.049805,0.0051125004,0.04875,-0.0025,0.11375,3e-05,-0.0018925001,3e-05,1742107773.956944
-0.08,-0.01625,0.1375,-0.01358,0.078660004,-0.008485,0.0475,-0.00125,0.10375,-0.000565,-0.0038,-0.0009775,1742107774.0767
0.02625,-0.00875,0.0575,0.004395,-0.0086975,0.0012050001,0.04625,-0.00375,0.11875,-0.0004125,-0.0009925,0.00023,1742107774.193622
-0.0375,-0.005,0.09125,0.018875,-0.082137495,0.0007025,0.0475,-0.0025,0.11125,-0.0001375,0.00029,-0.000275,1742107774.299032
-0.1075,-0.03,0.14,-0.00499,0.0149525,-0.0081775,0.03625,-0.00125,0.16125,0.0077825,0.0118725,-0.000535,1742107774.413431
-0.0325,-0.015,0.11,-0.029235,0.10675,0.00711,0.05875,-0.0025,0.11125,-0.00235,-0.0009775,-0.000625,1742107774.5350242
0.0275,0.02375,0.08625,0.00351,-0.02777,0.0018925001,0.045,0.0,0.1225,0.0001225,-0.0022125002,0.00079250004,1742107774.64083
-0.08625,-0.02,0.1225,0.0063175,-0.0835725,0.00151,0.04875,-0.00375,0.11125,0.0001525,-0.0010225,-9.25e-05,1742107774.7539918
-0.09375,-0.01125,0.12875,-0.00113,0.040085,-0.0061950004,0.04875,0.0,0.1025,0.0004425,0.0087575,0.0012675,1742107774.873067
0.02,0.02625,0.06125,-0.0114125,0.06993,0.0133825,0.04625,-0.00625,0.115,1.5e-05,-0.0011900001,0.0001225,1742107774.980952
0.00875,0.01125,0.07875,0.0248425,-0.069657505,-0.0028525,0.04625,0.00125,0.12,-7.75e-05,-0.00016750001,-0.00032,1742107775.095008
-0.13,-0.02125,0.1675,0.0004275,-0.024475,-0.0060425,0.04875,-0.00375,0.12,3e-05,-0.0013275,4.5e-05,1742107775.21357
-0.04625,-0.02,0.125,-0.017685,0.103410006,0.00322,0.055,-0.0025,0.105,-0.0027325,-0.0038299998,-0.00177,1742107775.333152
0.01625,0.01875,0.07375,-0.012085,-0.018662501,0.0010225,0.04875,-0.0025,0.1175,-0.00033500002,-0.002365,0.0009,1742107775.437013
-0.05,-0.015,0.10125,0.010545,-0.085725,-0.00801,0.0475,-0.00125,0.11375,-9.25e-05,-0.0009625,-0.00033500002,1742107775.555777
-0.09875,-0.02,0.165,-0.0139925005,0.062759995,-0.01152,0.05,0.00125,0.095,-0.0007775,0.0016325001,0.0001975,1742107775.6725912
0.04,0.03125,0.0175,0.008239999,0.034927502,0.00801,0.04625,-0.00375,0.115,0.0,-0.000945,7.75e-05,1742107775.7779672
0.00125,0.005,0.10625,0.02269,-0.060990002,-0.004135,0.04625,0.0,0.11875,-0.00029,-0.00113,-0.0001825,1742107775.893594
-0.09875,-0.00625,0.145,0.004105,-0.0294025,0.0012975,0.045,-0.0025,0.1175,-0.0004125,-0.0039825,-0.00079250004,1742107776.014137
-0.05875,-0.01375,0.12625,-0.016755,0.0832825,-0.00763,0.05,-0.00125,0.1025,0.0012675,-0.0013575,-0.0012050001,1742107776.1199338
0.03,-0.00625,0.0625,0.0051574996,-0.0045775,0.002105,0.0475,-0.005,0.1175,-0.00052,-0.00177,0.00023,1742107776.233906
-0.03125,-0.00375,0.09125,0.0234675,-0.0788425,9.25e-05,0.0475,-0.00125,0.11375,-9.25e-05,9.25e-05,-0.0003825,1742107776.352268
-0.12125,-0.0225,0.17125,-0.0036,0.031555,-0.0113525,0.04625,-0.00875,0.14125,0.0019075,0.00946,0.001115,1742107776.4617548
-0.00125,0.00875,0.0875,-0.020615,0.0827475,0.0095375,0.04875,-0.00375,0.11375,0.0004275,0.0004275,0.0,1742107776.577131
0.00625,0.02125,0.09625,0.024872499,-0.0491325,-0.0034949998,0.04625,-0.00125,0.12,1.5e-05,-0.0004425,0.000107500004,1742107776.693221
-0.0975,-0.0025,0.14,0.00032,-0.055862498,0.0044400003,0.0475,-0.00125,0.115,-0.00064,-0.0036175,-0.0004275,1742107776.8122802
-0.0825,-0.00875,0.13125,-0.005585,0.06929,-0.01236,0.045,0.00125,0.11,0.0007025,0.002685,0.000305,1742107776.9155881
0.0275,0.01625,0.05875,0.0045175,0.021712499,0.0054775,0.04625,-0.0025,0.115,-0.00016750001,-0.00084,-1.5e-05,1742107777.034601
-0.03375,-0.00875,0.0925,0.020537501,-0.0812075,0.0016925,0.0475,-0.0025,0.115,-0.0001375,-0.000535,-0.00058,1742107777.153215
-0.11375,-0.01875,0.155,-0.001755,0.0198525,-0.00377,0.04375,-0.0025,0.12125,0.0001825,-0.000945,9.25e-05,1742107777.256835
-0.0275,-0.01,0.10375,-0.022629999,0.090574995,0.0008075,0.0525,-0.0,0.11375,-0.0010675,0.0012975,6e-05,1742107777.3733382
0.01625,0.02375,0.08125,0.0068675,-0.035720002,-0.00293,0.04625,-0.00125,0.12,-0.0001375,-0.0016325001,0.0004125,1742107777.493443
-0.0775,-0.01,0.12625,-0.000565,-0.075592496,0.0028675,0.04625,-0.00125,0.11375,-0.000245,-0.0016025,-0.000245,1742107777.59902
-0.0875,-0.0075,0.13375,-0.003585,0.0588525,-0.0087425,0.04625,0.00125,0.10375,0.000107500004,0.0036,0.00033500002,1742107777.713634
0.0275,0.02,0.0575,0.00737,0.0314475,0.00502,0.045,-0.00375,0.115,-6e-05,-0.0003825,0.0001825,1742107777.833285
0.005,0.00125,0.09875,0.0216225,-0.0564875,0.0015875,0.0475,-0.0,0.11625,-0.00032,0.00016750001,-0.0004125,1742107777.939939
-0.10625,-0.01375,0.15375,0.0040275003,-0.021317499,0.006805,0.04625,-0.0025,0.115,-0.0004425,-0.00377,-0.000275,1742107778.055983
-0.05125,-0.0075,0.1175,-0.0148325,0.0845325,-0.0121,0.045,-0.00375,0.1175,0.0008075,0.0019075,0.000245,1742107778.172977
0.02125,-0.01125,0.0725,0.00293,-0.0152275,0.00035,0.04625,-0.00125,0.11625,-0.00058,-0.00116,-0.0001375,1742107778.2820108
-0.05625,-0.015,0.11375,0.0065450002,-0.0798025,0.0112924995,0.04625,-0.0025,0.1125,0.0001225,-0.001495,-0.00029,1742107778.3958242
-0.09875,-0.01625,0.14625,-0.0042575,0.05107,-0.01625,0.045,0.00125,0.1075,-0.0005025,0.00354,0.0010375,1742107778.5139918
0.02125,0.00125,0.0625,-0.0027925,0.029725,0.002395,0.045,-0.0025,0.11625,-0.0001975,-6e-05,0.0001825,1742107778.6330528
-0.00875,-0.0075,0.0875,0.019685,-0.0785375,0.0077199996,0.04625,-0.0025,0.11625,-0.00023,0.0001975,-0.000625,1742107778.737798
-0.11625,-0.02625,0.15125,-0.0010825,0.0024100002,-0.00566,0.0425,-0.00125,0.12,-9.25e-05,-0.002335,-4.5e-05,1742107778.852022
-0.0425,-0.01,0.11375,-0.015625,0.08101,-0.005005,0.045,-0.00375,0.1175,0.0002125,0.002655,0.0001525,1742107778.972518
0.0175,0.00875,0.075,0.0012675,-0.01091,0.0021525,0.045,-0.00125,0.11625,-0.00045750002,-0.0004125,-0.00033500002,1742107779.078903
-0.05375,-0.0075,0.1025,0.010665,-0.0755625,0.0069274995,0.04625,-0.00375,0.1125,0.00045750002,-0.00055,0.0002125,1742107779.193592
-0.10375,-0.0175,0.14,-0.0036475,0.02266,-0.0068975003,0.04,-0.00125,0.12875,0.000565,4.5e-05,-0.00026,1742107779.3132641
-0.01625,-0.00875,0.09875,-0.017455,0.07393,0.0025175,0.0475,-0.00375,0.115,-0.00023,0.001405,-0.0001975,1742107779.420814
0.02125,0.015,0.08375,0.0124200005,-0.0338125,0.0005025,0.045,0.0,0.12,-0.0003825,-0.00032,-0.0001975,1742107779.535163
-0.0975,-0.0075,0.13625,0.0042875,-0.076935,0.0089425,0.04625,-0.0025,0.1125,0.0,-0.0018775001,0.00016750001,1742107779.653225
-0.0875,0.005,0.12875,0.00048750002,0.0414725,-0.0092175,0.0425,-0.0075,0.13125,0.0013725,0.00467,0.0007775,1742107779.77282
0.01125,0.00625,0.08625,-0.01233,0.0576925,0.0048525,0.045,-0.005,0.11375,4.5e-05,-0.00029,0.0001225,1742107779.876713
0.00875,0.00875,0.0775,0.02417,-0.0625,-0.00093,0.04375,-0.0025,0.12,-0.0001975,0.00016750001,-0.000565,1742107779.993372
-0.12125,-0.00625,0.15625,0.00171,-0.037765,-0.001175,0.045,-0.00125,0.11625,9.25e-05,-0.001495,0.0001975,1742107780.112861
-0.06875,-0.01875,0.12875,-0.0069125,0.0793925,-0.01062,0.045,-0.0,0.10125,0.00061,-0.0019225,-0.0007025,1742107780.218822
0.0275,0.01,0.04125,0.01097,-0.0039375,0.0016475001,0.04375,-0.00375,0.1175,-9.25e-05,-0.0008075,4.5e-05,1742107780.332831
-0.03375,-0.00625,0.09,0.017930001,-0.082627505,-0.00113,0.04625,-0.0025,0.11375,6e-05,0.000275,-0.000305,1742107780.452667
-0.10625,-0.03125,0.14,-0.007005,0.02066,-0.008239999,0.04125,-0.0025,0.12125,-0.0001375,-0.001495,-0.0001825,1742107780.560939
-0.03125,-0.015,0.11,-0.020920001,0.090285,0.0041799997,0.04625,-0.0025,0.11625,-1.5e-05,0.00058,-0.0001525,1742107780.674787
0.01625,0.01,0.07125,0.0039825,-0.0374,-0.000565,0.04375,-0.00125,0.1175,-0.000245,3e-05,-0.00023,1742107780.793111
-0.0875,-0.01625,0.11875,0.0071575,-0.068207495,-0.00058,0.045,-0.0025,0.115,3e-05,-0.0010075001,3e-05,1742107780.9034722
-0.09625,0.0,0.13625,-0.000825,0.0462025,-0.0093075,0.04625,0.0,0.125,-0.00026,0.0060275,-0.0001225,1742107781.016714
0.005,0.0175,0.08375,-0.0045925,0.048384998,0.007965,0.0425,-0.00375,0.115,0.0003975,-0.00048750002,0.000305,1742107781.1334898
0.00375,0.015,0.09125,0.023682501,-0.057862498,-0.0011900001,0.04375,-0.0,0.12,-3e-05,0.000885,-0.000245,1742107781.2533472
-0.11875,-0.005,0.15125,0.0011900001,-0.044755,0.00016750001,0.045,-0.00125,0.1175,0.0,-0.0016475001,0.0001375,1742107781.358766
-0.0775,-0.0025,0.1325,-0.0114125,0.0824725,-0.0122675,0.04375,-0.0,0.1125,-0.000655,-0.0004275,-0.0009775,1742107781.472917
0.0225,0.0125,0.055,0.0012675,0.0038,-0.0007475,0.04375,-0.00125,0.1175,-0.000107500004,-0.00084,0.00035,1742107781.592072
-0.035,-0.0,0.08875,0.021790002,-0.078475,0.00563,0.04625,-0.0025,0.11375,3e-05,0.000885,-0.00029,1742107781.700663
-0.1275,-0.01,0.1625,0.001785,0.02652,-0.00978,0.0425,-0.00625,0.14125,0.0013575,0.01056,0.00116,1742107781.814507
-0.01375,0.005,0.0925,-0.023055,0.0965875,0.0052175,0.0475,-0.00375,0.11625,0.000305,-0.0004125,-1.5e-05,1742107781.932489
0.015,-0.0025,0.0975,0.0217275,-0.0496375,0.0024725,0.045,0.00125,0.12125,3e-05,0.00032,0.0001525,1742107782.0414321
-0.1025,0.01125,0.15375,0.0069274995,-0.0374,0.0098875,0.0475,-0.0025,0.11375,-0.0001825,-0.00142,-0.00026,1742107782.154819
-0.04125,-0.00125,0.1125,-0.015319999,0.080382496,-0.0072475,0.045,-0.0025,0.11875,0.00048750002,0.000305,0.00032,1742107782.273401
0.0175,0.00125,0.075,0.0015575,-0.013564999,-0.00055,0.045,-0.00125,0.11875,-0.0001375,-0.0004725,-0.0001225,1742107782.39302
-0.055,-0.0175,0.1125,0.0089875,-0.0780175,0.0075225,0.04625,-0.00125,0.11375,0.000275,-0.0007025,3e-05,1742107782.496585
-0.09,-0.01,0.13375,-0.0021975,0.024125,-0.00467,0.04125,-0.00125,0.125,0.000245,-0.0007775,0.00026,1742107782.613036
-0.01625,-0.0075,0.1025,-0.018555,0.072845004,0.0007025,0.055,0.0225,0.10375,0.009505,-0.002625,-0.0063625,1742107782.7335439
0.00875,0.0225,0.08875,0.017165001,-0.035217497,0.0005025,0.03,-0.0075,0.1025,-0.0099325,-0.02118,-0.022475,1742107782.838719
-0.07375,-0.00875,0.125,0.0021199998,-0.0641175,-0.000885,-0.00375,-0.02625,0.12625,-0.0092325,-0.02916,-0.019775,1742107782.952967
-0.075,-0.0175,0.10125,0.0001375,0.013152501,-0.0024425,-0.0275,-0.03125,0.1425,-0.0018,-0.008835,-0.00122,1742107783.0669298
-0.0575,-0.00875,0.09875,0.0011900001,-0.0025025,0.003235,-0.0175,-0.01375,0.13,-0.0008075,0.0036775,0.0007625,1742107783.1806479
