L-AccX,L-AccY,L-AccZ,L-GyrX,L-GyrY,L-GyrZ,R-AccX,R-AccY,R-AccZ,R-GyrX,R-GyrY,R-GyrZ,timestamp
0.0875,0.0675,0.05,0.0022725,0.0063175,-0.0019375,-0.035,-0.045,0.115,-0.0013575,0.00122,-0.001175,1742107698.238487
0.09,0.06375,0.04875,0.0016625,-0.0007175,-0.001115,-0.06625,-0.05375,0.15375,-0.0024575,-0.0054175,0.0065300004,1742107698.3526678
0.08,0.06875,0.065,0.00093,-0.01654,0.0027474998,-0.04625,-0.04875,0.10625,0.027725,0.0172875,0.0266425,1742107698.459841
0.04125,0.0725,0.105,0.016617501,-0.03514,-0.00769,-0.06375,-0.10625,0.19,0.0098425,0.07524,0.0234975,1742107698.57837
0.02375,0.01,0.15375,-0.0240175,-0.004745,-0.022582501,0.12875,-0.13875,-0.03,-0.053724997,0.125335,-0.0302125,1742107698.694429
0.00625,0.0775,-0.0025,0.054015,0.13986251,0.043685,0.12375,-0.05125,-0.03875,0.08142,-0.054215,0.009475,1742107698.802121
0.09375,0.11375,-0.085,-0.042099997,-0.026899999,-0.0199275,-0.02875,-0.095,0.1625,0.0267325,-0.0821075,0.0281225,1742107698.9159412
0.06375,0.005,0.055,-0.041245,-0.1451725,-0.0081625,-0.03625,-0.18625,-0.0325,-0.191985,0.15475501,-0.058625,1742107699.035895
0.01875,0.10375,0.12,0.066010006,0.175065,0.05806,0.105,-0.055,-0.075,0.118775,-0.0549625,0.009734999,1742107699.153216
0.09625,0.12625,-0.1075,-0.068145,-0.030335,-0.0166775,0.01,-0.1075,0.095,0.0041799997,-0.115525,0.014725001,1742107699.257805
0.05375,0.04125,0.06625,-0.02617,-0.123519994,-0.023225,-0.01125,-0.11875,0.0725,-0.13032499,0.1594075,-0.06804,1742107699.373906
-0.015,0.01625,0.185,0.041,0.1165475,0.067765,0.11125,-0.0375,-0.07,0.119292505,-0.0163125,0.0137950005,1742107699.4932852
0.10875,0.155,-0.01375,-0.0405875,0.0157775,-0.0047150003,0.05625,-0.1225,0.0225,0.0343475,-0.132065,0.000245,1742107699.599885
0.1,0.05875,0.025,-0.046447497,-0.072525,-0.023315001,-0.00875,-0.0825,0.18125,-0.0062399996,0.0712575,-0.0301675,1742107699.714047
0.0075,0.02,0.17,0.0055075004,-0.034957502,0.0139325,0.0725,-0.14875,-0.00625,-0.0771325,0.098205,-0.007355,1742107699.834053
-0.01125,0.22875,0.03125,0.0585775,0.12994501,0.0507975,0.11,-0.0725,-0.06625,0.0720525,-0.099015,0.0083925,1742107699.9419641
0.0825,0.09625,-0.065,-0.013595,-0.039735,-0.0375975,-0.0425,-0.075,0.2525,0.0216675,-0.0225075,0.0095525,1742107700.0563688
0.0675,-0.05,0.12625,-0.022475,-0.10849,-0.019105,0.0175,-0.24125,-0.02375,-0.07306,0.1371925,-0.058975,1742107700.173456
-0.005,0.105,0.09625,0.0034475,0.12936501,0.05922,0.11125,-0.0025,-0.05,0.0633075,-0.059157502,0.020995,1742107700.2926478
0.06,0.17125,-0.06,-0.07956,-0.0124200005,-0.0396875,0.0325,-0.10875,0.11875,0.00235,-0.08632,0.007385,1742107700.397721
0.0775,-0.01,0.09875,-0.015975,-0.1104725,-0.0231175,0.00875,-0.1275,0.07375,-0.0895075,0.120925,-0.043442503,1742107700.5143611
0.03625,0.02125,0.135,0.027435,0.096007496,0.0477,0.0925,-0.0575,-0.05875,0.0733025,-0.0113075,0.02159,1742107700.633217
0.05625,0.21,0.00875,-0.01065,0.019592501,0.00763,0.03625,-0.10375,0.01375,0.040282503,-0.1520375,0.0115825,1742107700.739736
0.0775,0.065,-0.01,-0.0028375,-0.0647125,-0.038375,-0.03125,-0.04125,0.20875,0.015975,0.1018225,-0.004685,1742107700.852864
0.02,0.015,0.1975,-0.010255001,-0.0255275,-0.0026099999,0.0975,-0.175,-0.0175,-0.1151725,0.098785006,-0.028245,1742107700.972878
0.01125,0.165,0.04375,0.061462503,0.116165,0.05661,0.11,-0.085,-0.055,0.086762495,-0.09056,0.0092175,1742107701.080906
0.07625,0.1425,-0.0725,-0.049912497,-0.0317225,-0.03125,-0.01125,-0.0675,0.21875,0.012345,-0.0234975,0.00528,1742107701.1948612
0.07625,-0.0225,0.1,-0.011535,-0.090865,-0.02008,-0.0075,-0.15125,0.045,-0.116607495,0.1363825,-0.0579675,1742107701.3133178
0.02,0.0325,0.14,-0.008712499,0.0808875,0.035645,0.1,-0.06625,-0.07875,0.07611,-0.0184025,0.01712,1742107701.433627
0.07375,0.2,0.00375,-0.001465,0.046462502,0.0028375,0.0675,-0.06875,0.0075,0.028944999,-0.13899249,0.0142525,1742107701.536694
0.09125,0.07125,-0.03625,-0.0292975,-0.062377498,-0.0334925,-0.04125,-0.04,0.2425,0.0034625002,0.0528875,-0.015395001,1742107701.654289
-0.015,-0.00125,0.1725,-0.0104975,-0.076615,0.0038599998,0.0625,-0.1925,-0.02375,-0.1393275,0.12262,-0.050995,1742107701.774506
-0.01625,0.1925,0.02375,0.1029825,0.1698,0.0835125,0.12875,-0.08625,-0.075,0.1139075,-0.0678875,0.02121,1742107701.8789701
0.09375,0.10625,-0.07625,-0.10794,-0.035095003,-0.035705,0.00875,-0.06125,0.12125,-0.021317499,-0.094620004,0.0066525,1742107701.9945002
0.065,0.01,0.075,0.0047925,-0.0998075,-0.0005025,-0.035,-0.10125,0.1,-0.073487505,0.152055,-0.0611425,1742107702.11391
-0.0025,0.065,0.15125,0.0154275,0.115845,0.061265,0.08375,-0.07375,-0.0625,0.068330005,0.002305,0.0196525,1742107702.220902
0.05,0.18375,-0.02875,-0.0443125,0.002655,-0.0199425,0.0725,-0.075,-0.0025,0.058257498,-0.114930004,0.00882,1742107702.3347719
0.095,0.025,0.04375,-0.02591,-0.094375,-0.0370025,-0.0025,-0.08375,0.2125,0.0029749998,0.04866,-0.02153,1742107702.4543538
0.01625,0.04625,0.15875,-0.00531,-0.024445,0.0150150005,0.14375,-0.14125,-0.03625,-0.0924375,0.066345,-0.0193025,1742107702.5629928
0.0025,0.1525,0.0625,0.0446175,0.1110225,0.046630003,0.1075,-0.09375,-0.0475,0.09932,-0.082825,0.016617501,1742107702.6768682
0.08375,0.1175,-0.055,-0.0534825,-0.0464025,-0.02977,0.015,-0.04875,0.18,-0.0033725,-0.0420525,0.00714,1742107702.794762
0.05375,0.0125,0.1275,-0.0051725,-0.0732425,-0.0171975,-0.02625,-0.19125,-0.0375,-0.1614525,0.13475,-0.0632175,1742107702.915117
0.00375,0.07125,0.10625,0.056855,0.1443025,0.050307497,0.125,-0.0475,-0.11625,0.1178275,-0.0293575,0.0331125,1742107703.01886
0.04625,0.145,-0.18,-0.0422975,-0.02089,-0.0301675,0.07375,-0.0,0.11375,0.0281975,-0.077515,0.0134275,1742107703.135711
0.11625,-0.08,0.08375,-0.022444999,-0.096145,-0.017700002,0.0775,-0.11875,0.1,-0.035155,0.09401,-0.0243225,1742107703.255614
0.04,0.085,0.14125,0.0187075,0.1192325,0.0317075,0.12375,-0.1275,-0.07625,-0.006775,0.033875,0.0057225,1742107703.360876
0.05,0.19,-0.17375,-0.02823,0.028855,-0.0186775,0.14,-0.03625,-0.0275,0.05899,-0.0924525,0.01155,1742107703.475468
0.1,-0.01125,-0.045,-0.008835,-0.0719,-0.028335,0.01375,-0.09375,0.20875,0.0270375,0.024459999,-0.01294,1742107703.5946
0.065,0.005,0.1325,-0.0357975,-0.07470749,0.008880001,0.11,-0.15625,-0.00625,-0.099089995,0.0817575,-0.048005,1742107703.7158332
0.01375,0.145,-0.00625,0.078370005,0.101592496,0.0628825,0.095,-0.0325,-0.0575,0.0779425,-0.052185003,0.022675,1742107703.816751
0.07875,0.11,-0.1225,-0.0567775,-0.041580003,-0.031004999,0.03625,-0.075,0.13,0.0099325,-0.10019,0.0019225,1742107703.935861
0.09,-0.005,0.13875,-0.029205,-0.109910004,0.008285,-0.01875,-0.17375,0.06875,-0.052155,0.134155,-0.04068,1742107704.0448508
0.07125,0.0825,0.04,0.038085,0.096955,0.046982497,0.075,-0.08625,-0.0525,0.089555,-0.008515,0.0384675,1742107704.158765
0.08125,0.105,-0.135,-0.0550225,-0.016265,-0.0307475,0.07375,-0.08,0.06,0.0384225,-0.12732,0.0024425,1742107704.276611
0.11375,-0.00875,0.075,-0.03009,-0.0938275,-0.0036,-0.0175,-0.10625,0.145,-0.051544998,0.1501925,-0.047957502,1742107704.396211
0.03875,0.0675,0.115,-0.0096275,0.0773475,0.0285025,0.07625,-0.07875,-0.04375,0.1065225,-0.0037850002,0.0284575,1742107704.500736
0.025,0.24875,-0.10125,-0.033919998,0.016555,-0.017792499,0.08,-0.05875,0.01375,0.0233,-0.1266625,0.0113975,1742107704.616182
0.08625,0.03125,-0.02125,-0.00975,-0.070695,-0.030639999,0.00125,-0.06375,0.19375,-0.0137325,0.09105001,-0.0373225,1742107704.7366662
0.0325,0.0375,0.1625,-0.021102501,-0.039474998,0.00531,0.105,-0.04875,0.0525,-0.0469525,0.0393675,-0.0040749996,1742107704.8417
0.015,0.2325,0.025,0.102845,0.09753501,0.05211,0.09875,-0.09625,-0.01125,0.0532225,-0.112182505,0.015395001,1742107704.956882
0.0875,0.09625,-0.0725,-0.0635525,-0.04654,-0.034302503,-0.015,-0.06875,0.25875,0.001435,-0.013505,-0.0116875,1742107705.0803158
0.0825,0.01,0.11875,0.0004275,-0.092805,0.0037375,0.05125,-0.21375,-0.035,-0.1705475,0.157975,-0.058715,1742107705.1969721
0.0275,0.13,0.06875,0.1000675,0.142685,0.06363,0.11375,-0.0575,-0.085,0.1207275,-0.0561675,-0.0010825,1742107705.297844
0.07875,0.135,-0.08125,-0.0894325,-0.0225675,-0.030045,0.035,-0.0825,0.06875,-3e-05,-0.13736,0.013825,1742107705.417391
0.09125,0.0075,0.0825,-0.0243825,-0.113235004,-0.01973,-0.0575,-0.115,0.055,-0.13301,0.160355,-0.08107,1742107705.539168
0.0275,0.03,0.15625,0.042815,0.112427495,0.075972505,0.095,-0.0625,-0.05125,0.1272275,-0.032775,0.029129999,1742107705.639732
0.03375,0.215,0.0025,-0.0735025,0.0027925,-0.021455,0.03375,-0.09875,0.035,0.043,-0.1292725,0.0408325,1742107705.7574332
0.11125,-0.01,0.0325,-0.0374,-0.0773175,-0.051087502,-0.01375,-0.10875,0.11625,-0.078522496,0.1555625,-0.046447497,1742107705.877603
0.055,0.03125,0.17,-0.020629998,0.031432502,0.0104075,0.08375,-0.0575,-0.01,0.0214375,0.02623,0.01271,1742107705.981667
0.1025,0.18375,0.0575,0.069015,0.053237498,0.041045,0.1175,-0.04875,-0.03,0.0785675,-0.087815,0.0032950002,1742107706.0970628
0.10125,0.06875,-0.0275,-0.04416,-0.0290975,-0.03447,0.05625,-0.04625,0.11875,0.0115975,-0.052977502,0.0073249997,1742107706.217813
0.09875,-0.02,0.065,-0.0343475,-0.072127506,-0.046067502,0.01375,-0.1125,0.0275,-0.1903075,0.1369925,-0.056534998,1742107706.337609
0.0675,0.0225,0.12375,0.053177502,0.10994,0.0405425,0.14375,-0.04125,-0.09,0.12178,-0.039352503,0.0111225005,1742107706.437909
0.0775,0.1725,0.00125,-0.08844,-0.0069425,-0.0046225,0.09,-0.07625,0.03625,0.033065,-0.1077725,-0.0010075001,1742107706.5605671
0.1325,0.005,0.0075,-0.0549925,-0.072845004,-0.0148475,0.03375,-0.09875,0.09125,-0.1286175,0.1340325,-0.05864,1742107706.6781702
0.0825,0.07125,0.13,0.00949,0.0363475,0.0323475,0.1025,-0.0125,-0.03625,0.089462504,0.0075675,0.01039,1742107706.779527
0.09625,0.15875,0.06875,-0.031785,0.01477,0.0031424998,0.10875,-0.06,-0.03125,0.030639999,-0.0829475,-0.00949,1742107706.898519
0.1,0.06125,0.005,-0.0056,-0.053467497,-0.027145,-0.0225,-0.06625,0.19875,-0.003235,-0.090835,0.0058449996,1742107707.01984
0.04125,0.035,0.12875,-0.0281525,-0.111449994,-0.01419,-0.04,-0.095,0.03,-0.078675,0.183715,-0.0703575,1742107707.121761
-0.0025,0.0575,0.0825,0.05275,0.17361501,0.091217496,0.13125,-0.07625,-0.09125,0.140015,-0.04538,0.020615,1742107707.2392352
0.07875,0.14625,-0.045,-0.0827175,-0.0198525,-0.031785,0.02625,-0.0875,0.0375,-0.02159,-0.13414,0.005035,1742107707.360502
0.07875,0.02375,0.06,-0.034057498,-0.10968,-0.028565,0.00875,-0.025,0.1275,-0.054015,0.148865,-0.05954,1742107707.479237
0.02875,0.03,0.155,0.04718,0.0791025,0.0624075,0.11375,-0.075,-0.03125,0.123427495,-0.01291,0.023515,1742107707.582377
0.07125,0.12875,0.025,-0.0549925,-0.000855,-0.01114,0.07,-0.07875,0.0075,0.0207225,-0.12738,0.0001975,1742107707.7025778
0.105,0.04875,0.01625,-0.0398875,-0.0806425,-0.023285,-0.05625,-0.0425,0.24375,-0.0009625,0.026672501,-0.023697501,1742107707.804785
0.03375,0.04875,0.14375,-0.0069575,-0.0655375,6e-05,0.03125,-0.17375,0.015,-0.13649,0.1328575,-0.0623175,1742107707.918748
0.00875,0.11,0.065,0.0965725,0.1687325,0.08986,0.135,-0.0675,-0.09375,0.13780251,-0.072495006,0.014375,1742107708.0401652
0.1,0.11375,-0.0575,-0.115127504,-0.037415,-0.0296775,0.015,-0.06375,0.12,-0.0160525,-0.0794675,0.0061950004,1742107708.1585522
0.075,0.0525,0.085,-0.024185,-0.0841825,-0.021117501,0.0125,-0.11875,0.0775,-0.1266475,0.1557475,-0.07277,1742107708.260562
0.04,0.03625,0.105,0.090224996,0.105895,0.0661,0.1125,-0.03625,-0.11125,0.12651001,-0.007415,0.02423,1742107708.3807821
0.07,0.1225,0.0225,-0.0234525,0.02336,-0.002625,0.07375,-0.075,-0.01875,0.048295,-0.1354375,0.0099949995,1742107708.500764
0.09625,0.06875,0.00875,-0.037965,-0.08139,-0.0347125,-0.06,-0.05625,0.3025,-0.0054475004,0.0060875,-0.01506,1742107708.6026618
0.0075,0.0425,0.13875,-0.01056,-0.093415,-0.0110775,0.0225,-0.18,0.05125,-0.16047749,0.1289825,-0.0800925,1742107708.722535
0.0125,0.0875,0.0675,0.1110525,0.177765,0.1085975,0.15375,-0.0575,-0.0875,0.1614375,-0.0782175,0.0292825,1742107708.8401642
0.06375,0.12,-0.00625,-0.116790004,-0.020705,-0.02942,0.01375,-0.0,0.185,-0.0346975,-0.08667,-0.0013725,1742107708.9446568
0.06,0.09,0.0525,-0.037765,-0.1147775,-0.0331575,-0.01125,-0.09,0.07875,-0.112595,0.1481775,-0.0930325,1742107709.0606668
-0.0025,0.03125,0.1625,0.0372475,0.0744175,0.07013,0.09,-0.04875,-0.03125,0.104035005,0.0025475,0.020629998,1742107709.1800761
0.06375,0.09375,0.1125,0.0334025,0.056884997,0.0452125,0.0875,-0.11,-0.01,0.0544275,-0.141175,0.0187825,1742107709.3004138
0.0825,0.1025,0.00375,-0.074555,-0.060195,-0.0379325,-0.045,-0.04625,0.26375,0.00142,0.0295575,-0.0189525,1742107709.400576
0.05,0.03,0.10625,-0.014405,-0.067627504,-0.01442,0.04625,-0.1475,0.0725,-0.1283425,0.129165,-0.074645,1742107709.514564
0.01875,0.10625,0.10125,0.09369,0.13633749,0.084107496,0.12625,-0.06875,-0.035,0.107527494,-0.06993,0.017685,1742107709.628566
0.095,0.10625,-0.02,-0.100632496,-0.040695,-0.03415,0.0175,-0.0325,0.09625,-0.0119775,-0.1225125,0.00882,1742107709.743775
0.0525,0.08,0.05375,-0.03122,-0.1063375,-0.02124,0.02,-0.04875,0.09125,-0.07846,0.13855,-0.0791325,1742107709.8645408
0.00375,0.0775,0.135,0.0640875,0.098115,0.0800625,0.09625,-0.05,0.02375,0.111405,-0.00537,0.026672501,1742107709.9839869
0.085,0.02875,0.12,-0.0130475,0.024125,0.0086675,0.06625,-0.12125,0.00875,0.0608075,-0.122527495,0.0246125,1742107710.084451
0.09125,0.09375,0.01875,-0.080474995,-0.089462504,-0.0485225,-0.01125,-0.055,0.1825,-0.0245675,0.108765,-0.044602502,1742107710.201949
0.0475,0.055,0.1225,0.016755,0.032287497,0.02269,0.10125,-0.06625,0.06875,-0.048995,0.046935,-0.009902501,1742107710.3239648
0.05875,0.11375,0.09625,0.0947725,0.08258,0.033065,0.10125,-0.05625,-0.01875,0.0581675,-0.0425575,0.0228875,1742107710.444072
0.09625,0.1,-0.015,-0.065095,-0.0384375,-0.0338275,0.05375,-0.04,0.14875,0.014007499,-0.054015,0.00116,1742107710.541332
0.1025,0.015,0.07875,-0.0517275,-0.058365002,-0.031815,0.03,-0.12125,0.04875,-0.12580751,0.111115,-0.0514375,1742107710.6617558
0.08875,0.06,0.05375,0.11804251,0.0803975,0.059982497,0.1125,-0.01625,-0.06625,0.12811251,-0.012925,0.00827,1742107710.781104
0.09375,0.07375,0.0425,-0.0150150005,0.0323175,-0.0051275003,0.09625,-0.10625,0.04375,0.045027502,-0.1083225,0.0066975,1742107710.882463
0.115,0.0325,-0.01375,-0.0602575,-0.052642502,-0.0173175,0.06875,-0.08,0.02875,-0.16642751,0.10379,-0.044845,1742107710.996572
0.10875,-0.015,0.0775,0.0677175,0.052490003,0.031845,0.11,-0.05,-0.05625,0.09259,-0.020172501,0.007005,1742107711.110482
0.09125,0.10625,0.0325,0.00508,-0.0025025,0.0086199995,0.0675,-0.055,-0.01,0.0310675,-0.124877505,0.0064250003,1742107711.224538
0.1025,0.08125,-0.0125,-0.076905,-0.0755475,-0.032715,0.00875,-0.06375,0.21375,-0.0027925,0.047395002,-0.01471,1742107711.34374
0.05625,-0.02625,0.1125,-0.0075075002,-0.07373001,-0.0083325,0.03125,-0.14625,0.0175,-0.1213675,0.11695749,-0.044372503,1742107711.4633641
0.0225,0.06875,0.0625,0.1307975,0.184035,0.0992725,0.1275,-0.0475,-0.06875,0.1163025,-0.060227502,0.0162975,1742107711.583104
0.0925,0.13625,-0.07,-0.106995,-0.04567,-0.03125,0.02125,-0.0425,0.095,-0.0105275,-0.12911999,0.0076599997,1742107711.680463
0.045,0.03,0.095,-0.010345,-0.1110375,-0.02008,0.00625,-0.08375,0.105,-0.084,0.16336,-0.07393,1742107711.8020768
0.02125,0.0775,0.155,0.0240025,0.1160425,0.07315,0.11,-0.06375,-0.0675,0.14746001,-0.0119175,0.016235001,1742107711.908565
0.0575,0.125,0.08875,0.00917,0.0538475,0.01262,0.06875,-0.07,-0.0075,0.03955,-0.1427925,0.00232,1742107712.024627
0.0925,0.0825,-0.035,-0.04724,-0.0762625,-0.0372,-0.0325,-0.06375,0.19375,-0.0078275,0.0756375,-0.031432502,1742107712.145047
0.03875,0.0075,0.125,-0.00435,-0.068985,-0.0125124995,0.10625,-0.09,0.04375,-0.0956125,0.071427494,-0.0275125,1742107712.25047
0.07375,0.04,0.075,0.0944675,0.14337249,0.06958,0.1275,-0.05625,-0.06,0.1279,-0.0930175,0.03241,1742107712.3647559
0.1025,0.07875,-0.1,-0.1315625,-0.0638725,-0.0239575,-0.035,-0.0375,0.19375,0.0029749998,-0.1157675,0.0010975,1742107712.484321
0.06125,0.0725,0.03625,0.0160525,-0.1039575,-0.0001525,-0.0075,-0.1025,0.0725,-0.093765,0.1891025,-0.08754,1742107712.604626
0.03875,0.0675,0.13,0.025115,0.06453,0.0594325,0.10125,-0.03375,-0.05625,0.099655,0.0102075,0.016112499,1742107712.7063649
0.07125,0.0925,0.09125,0.0074475002,0.05748,0.0336,0.09125,-0.055,-0.01375,0.0703125,-0.13411,0.008117501,1742107712.8204238
0.10125,0.0725,-0.00125,-0.0508575,-0.0720975,-0.0244,-0.04625,-0.07125,0.3175,0.0021975,-0.0037075,-0.015502499,1742107712.941306
0.0475,0.0625,0.10375,0.0234525,-0.0504,0.01744,0.05,-0.2025,-0.045,-0.16772501,0.12735,-0.053772498,1742107713.0613241
0.06125,0.095,0.0825,0.108735,0.1466675,0.061645,0.135,-0.07125,-0.0625,0.13688749,-0.07524,0.021302499,1742107713.1624691
0.09875,0.11625,-0.0225,-0.0718375,-0.0549625,-0.02861,-0.0175,-0.02375,0.145,0.0065,-0.140595,0.0013275,1742107713.2764611
0.04625,0.0575,0.0525,0.0057075,-0.118637495,-0.0180975,-0.03625,-0.09625,0.08375,-0.0879525,0.198455,-0.08104,1742107713.39058
0.005,0.07,0.1475,0.0033875,0.066665,0.0414725,0.115,0.0325,-0.04375,0.1333,-0.0129700005,0.016432501,1742107713.5042958
0.04125,0.16125,0.0425,0.04918,0.1062325,0.01892,0.015,-0.12,-0.01,0.037675,-0.1766825,0.0243075,1742107713.623038
0.1125,0.07375,-0.05625,-0.0836325,-0.0732275,-0.0118875,-0.0775,-0.07375,0.21375,-0.0025325,0.1248475,-0.025285,1742107713.744069
0.0525,0.07625,0.11375,0.0181125,-0.081222504,0.000825,0.13375,-0.10125,0.04,-0.16330001,0.120697506,-0.044357497,1742107713.864001
0.0325,0.11,0.08125,0.116532505,0.17659,0.06375,0.125,-0.075,-0.04375,0.1319725,-0.096907504,0.01039,1742107713.961717
0.08125,0.11375,-0.03125,-0.081282504,-0.0287775,-0.017455,-0.0075,-0.01625,0.14125,0.00116,-0.13153,0.010955,1742107714.081598
0.08,0.02875,0.0625,-0.0214225,-0.085465,-0.044845,-0.0375,-0.1225,0.0075,-0.1083525,0.20716749,-0.0854175,1742107714.2016141
0.0475,-0.01875,0.16625,-0.0198375,0.0048525,0.00566,0.1,-0.00875,-0.05125,0.1386725,-0.0143425,0.0148475,1742107714.302467
0.0625,0.19125,0.08125,0.21850501,0.044585,0.053925,0.06875,-0.0825,0.02125,0.069442496,-0.1517175,0.0122825,1742107714.416289
0.1325,0.0825,-0.0325,-0.13975501,-0.07115249,-0.066589996,0.0325,-0.0825,0.17,-0.0029749998,0.0926825,-0.021879999,1742107714.530347
0.0175,0.025,0.17125,-0.0310375,-0.0667575,-0.0248875,0.19875,-0.07875,0.0375,-0.085692495,0.08725,-0.01004,1742107714.644316
0.0375,0.11875,0.09875,0.1823875,0.1407325,0.10443,0.1325,-0.065,-0.035,0.0920875,-0.077010006,-0.0069575,1742107714.7642639
0.09375,0.0975,-0.0575,-0.11467,-0.015457501,-0.0093225,0.01875,-0.0375,0.06625,-0.0104375,-0.14716999,0.006165,1742107714.883334
0.1125,0.0275,0.0225,-0.034255,-0.11151,-0.0225225,-0.0275,-0.0525,0.09875,-0.048462503,0.197235,-0.044097498,1742107715.00421
0.025,0.07,0.15375,0.0113225,0.01152,0.027084999,0.10375,-0.035,-0.035,0.058305,0.01892,0.0098125,1742107715.100984
0.04625,0.13125,0.0425,0.0957175,0.1136325,0.039535,0.11125,-0.0025,-0.04125,0.09886251,-0.14053251,0.0051725,1742107715.22184
0.1075,0.0825,-0.0525,-0.1021125,-0.053695,-0.02066,-0.07375,-0.105,0.345,0.016097499,-0.04924,-0.0061350004,1742107715.341374
0.1025,0.0375,0.05625,-0.05136,-0.1029825,-0.0352925,-0.04875,-0.145,-0.0175,-0.127395,0.19430499,-0.0611125,1742107715.442521
-0.02,0.06875,0.09125,0.11116,0.17935249,0.0883175,0.145,0.0175,-0.1475,0.1042025,-0.050612498,-0.0048375,1742107715.556322
0.085,0.15125,-0.01625,-0.0534975,0.030989999,0.0024425,0.03125,-0.1775,0.0025,-0.0115975,-0.15150501,0.007965,1742107715.670337
0.10125,0.0525,-0.03375,-0.0367275,-0.074264996,-0.0120075,-0.0275,-0.02,0.18625,-0.0420225,0.1357575,-0.0419925,1742107715.784462
0.0675,0.04375,0.11125,0.002395,-0.06723,-0.005005,0.07875,-0.09375,0.04,0.010024999,0.082015,0.0044400003,1742107715.9028459
0.09375,0.04125,0.0975,0.0742175,0.127425,0.041215,0.1125,0.03625,-0.08,0.04219,-0.046875,0.0030675002,1742107716.0229409
0.0925,0.09375,-0.075,-0.056275003,-0.0046550003,-0.009705,0.0325,-0.0925,-0.025,0.03859,-0.18383749,0.0173025,1742107716.143243
0.11,0.0325,0.01,-0.046875,-0.089645,-0.0143275,-0.02625,-0.055,0.16,-0.049927503,0.15094,-0.05014,1742107716.24117
0.0475,0.02125,0.15,-0.0098575,-0.0926525,-0.00357,0.13,-0.0675,-0.015,0.0358425,0.046295,0.0072775004,1742107716.360066
0.035,0.065,0.0725,0.1147,0.170945,0.060715,0.1725,0.0275,-0.07875,0.112959996,-0.106995,-0.0160225,1742107716.480685
0.09375,0.1075,-0.07125,-0.0885775,-0.00708,0.000625,-0.015,-0.01125,0.15625,0.0108025,-0.12738,-0.0027325,1742107716.580404
0.12125,0.02375,0.03,-0.03479,-0.09172,-0.0044699996,-0.05875,-0.0875,0.1,-0.096725,0.193145,-0.1015025,1742107716.694348
0.0125,0.06875,0.18,0.020875,-0.008315,0.069915004,0.1225,-0.02375,-0.0975,0.113845,-0.00171,0.01181,1742107716.8082602
0.02625,0.135,0.04375,0.04622,0.1333325,0.03273,0.07625,-0.13125,-0.0525,0.042770002,-0.1493675,-0.00946,1742107716.923339
0.105,0.08125,-0.06,-0.085480005,-0.05011,-0.013564999,-0.06,-0.08125,0.31875,-0.017975,0.0528575,-0.0413675,1742107717.042746
0.06375,0.015,0.0325,-0.02925,-0.1318675,0.007125,0.11625,-0.10625,0.0425,-0.105332494,0.1446225,-0.0372325,1742107717.1634371
0.03125,0.03,0.1225,0.088287495,0.14032,0.084487505,0.12125,0.03125,-0.09,0.100005,-0.057755,-0.018477501,1742107717.2642639
0.08125,0.12125,-0.01375,-0.050307497,0.0390625,-0.01294,-0.035,-0.0525,0.04625,-0.0146175,-0.2020275,0.021637501,1742107717.381289
0.1125,0.0025,-0.045,-0.099747494,-0.08928,0.0054475004,-0.00375,-0.0775,0.09625,-0.075195,0.181625,-0.059830002,1742107717.5015109
0.0325,0.07375,0.11,0.058045,-0.057419997,0.05899,0.12625,-0.0625,0.02625,0.0086525,0.05336,0.0057225,1742107717.6213639
0.01875,0.0675,0.1225,0.05362,0.17274499,0.059295,0.125,-0.0525,-0.07875,0.121690005,-0.13172999,-0.0055549997,1742107717.7194
0.10625,0.06625,-0.07375,-0.1346125,-0.038865,-0.01152,-0.02875,-0.08125,0.22875,0.0083925,-0.073212504,-0.0222925,1742107717.8332648
0.065,0.0775,0.03,-0.0178525,-0.13214,-0.0014500001,-0.04375,-0.15125,0.07,-0.14407249,0.1879875,-0.0989525,1742107717.947343
-0.015,0.1175,0.14875,0.0766,0.0950475,0.1083825,0.12125,-0.01625,-0.08625,0.150285,-0.0544575,0.00023,1742107718.063326
0.0875,0.0975,0.02625,-0.0668175,0.041747503,0.0098875,-0.00625,-0.095,0.01875,-0.006255,-0.171615,0.0148925,1742107718.184331
0.11,0.06375,0.005,-0.065705,-0.10553,-0.01599,-0.00875,-0.085,0.09,-0.036485,0.1496875,-0.0590825,1742107718.3043551
0.02125,0.05875,0.10375,0.0096125,-0.08223,0.037842497,0.10875,-0.04,0.065,-0.0196375,0.07373001,-0.011765,1742107718.403258
-0.0,0.085,0.09375,0.07518,0.16372749,0.08258,0.1425,-0.0175,-0.0625,0.1230325,-0.0827475,-0.0034625002,1742107718.5212421
0.08875,0.08875,-0.02,-0.09961,-0.0148325,-0.026290001,0.0225,-0.03625,0.12875,-0.030105,-0.086610004,-0.0196525,1742107718.6413991
0.1025,0.05625,-0.00125,-0.0497425,-0.1136325,-0.007935,0.01625,-0.08375,0.12875,-0.045197498,0.115004994,-0.058105,1742107718.7616892
0.0475,0.0675,0.10875,0.0826425,0.093779996,0.0588075,0.07375,-0.045,0.0325,0.0965125,-0.0246875,0.029862499,1742107718.859041
0.11,0.07625,-0.04,-0.1148975,-0.0083325,0.000275,-0.03,-0.1,0.06,0.026885001,-0.15013,0.0443125,1742107718.9721842
0.09125,0.08875,-0.005,0.01294,-0.073745005,0.0065925,-0.02625,-0.0475,0.13625,-0.03093,0.1679525,-0.06401,1742107719.0862641
0.01625,0.0725,0.13625,0.0193475,-0.0401925,0.02304,0.11125,-0.03375,0.0525,-0.092805,0.06163,-0.0187225,1742107719.203072
0.0275,0.09375,0.075,0.081695,0.15217501,0.0470425,0.12125,-0.08625,-0.05625,0.09793,-0.114745006,0.0101925,1742107719.323416
0.0975,0.07,-0.03375,-0.095474996,-0.051865,-0.0311125,0.02125,-0.09625,0.23375,-0.0363625,-0.01271,-0.027695,1742107719.443645
0.0025,0.12,0.06375,0.009292499,-0.12576249,0.0116125,0.07625,-0.10375,0.06375,-0.12857,0.087019995,-0.050537497,1742107719.54212
-0.0,0.065,0.14875,0.0455775,0.1132975,0.069809996,0.1275,-0.075,-0.0425,0.110457495,-0.064482495,0.026747499,1742107719.661628
0.08375,0.07,-0.01625,-0.0838175,0.0109250005,-0.01593,0.01,-0.08625,0.1125,0.002135,-0.095732495,0.00154,1742107719.780929
0.10875,0.04625,-0.0125,-0.0596625,-0.118805,-0.0139625,0.00375,-0.10875,0.135,-0.05127,0.104462504,-0.0752575,1742107719.901036
-0.01125,0.0775,0.145,0.0172875,-0.039855,0.027940001,0.09875,-0.01,0.085,-0.028365,0.0466,-0.0066075,1742107719.998143
0.01125,0.07125,0.10375,0.08867,0.1658175,0.083175,0.07625,-0.1325,-0.01625,0.08509751,-0.12706,0.045959998,1742107720.112163
0.08375,0.1225,-0.04625,-0.1210025,-0.054977503,-0.037657503,-0.02,-0.0075,0.19375,-0.012680001,-0.0645,-0.0076149995,1742107720.226342
0.01375,0.05875,0.06875,-0.0195475,-0.1463925,-0.015029999,-0.0525,-0.1325,0.07625,-0.08215249,0.169815,-0.09906,1742107720.343264
-0.06,0.07375,0.1425,0.04364,0.10707,0.098387495,0.12375,-0.03875,-0.03625,0.13975501,-0.0180975,0.034135,1742107720.463469
0.07375,0.03,0.11,0.0047750003,0.079835,0.033767503,0.0225,-0.11625,0.02125,0.0140675,-0.16493249,0.0422675,1742107720.582979
0.105,0.07375,-0.0075,-0.08603,-0.114287496,-0.0390025,-0.07,-0.0825,0.14875,-0.0083625,0.12387,-0.053512502,1742107720.682132
-0.005,0.05875,0.14875,0.019715,-0.0635825,0.025895001,0.08,-0.055,0.06375,-0.0520325,0.061157502,-0.018875,1742107720.80145
0.0,0.06375,0.14875,0.0953075,0.1266775,0.13006501,0.09875,-0.1075,-0.0325,0.1206825,-0.122865,0.032715,1742107720.9205408
0.08875,0.115,-0.065,-0.12889,-0.036575,-0.044677503,-0.035,-0.08375,0.2025,0.016465,-0.060455002,0.00937,1742107721.040884
0.06625,0.07,0.01875,-0.0650175,-0.151595,-0.034455,0.0225,-0.1275,0.06875,-0.1184375,0.149185,-0.1127475,1742107721.138067
-0.035,0.04375,0.1325,-0.0084525,0.037215002,0.0274975,0.08875,-0.05875,0.0125,0.1386875,0.011565,0.0246725,1742107721.251839
-0.00125,0.0375,0.13125,0.094207495,0.1685475,0.104462504,0.06375,-0.0675,0.00625,0.0095525,-0.1452475,0.0387275,1742107721.364933
0.09125,0.135,-0.03625,-0.1056375,-0.138015,-0.0653225,-0.08875,-0.0525,0.28,-0.008485,0.04895,-0.035445,1742107721.483354
-0.00375,0.0525,0.16375,0.046372503,-0.0449375,0.035965,0.01625,-0.0975,0.07,-0.0930325,0.1340175,-0.064224996,1742107721.603733
0.00875,0.0975,0.09625,0.09604,0.16267501,0.1245575,0.14125,-0.0375,-0.03625,0.1151875,-0.0225975,0.009705,1742107721.724268
0.07375,0.11875,-0.0375,-0.12854,-0.012055,-0.01805,-0.01625,-0.0175,0.06,0.0116425,-0.18315,0.0334775,1742107721.821546
0.09,0.055,0.0225,-0.0534375,-0.1106425,-0.024155,0.00625,-0.08125,0.1075,-0.058424998,0.15803501,-0.0811925,1742107721.9406002
-0.0025,0.09,0.175,0.017547501,-0.03131,0.045135,0.0925,-0.03875,0.01875,0.099580005,-0.007415,0.018860001,1742107722.0613298
0.0125,0.055,0.11,0.0555125,0.1697225,0.06598,0.01625,-0.03125,0.06125,-0.0004125,-0.1363675,0.0538625,1742107722.16368
0.1,0.09,-0.06625,-0.12384,-0.079955004,-0.0346525,-0.04625,-0.01,0.21375,0.0128775,0.06935,-9.25e-05,1742107722.27703
0.01375,0.07125,0.07125,0.0214075,-0.130965,-0.00296,0.0225,-0.1625,0.0025,-0.2071525,0.16539,-0.10353,1742107722.391059
-0.02625,0.075,0.14625,0.01422,0.0948025,0.07425,0.16625,-0.07,-0.1025,0.14617999,-0.0565175,0.0090625,1742107722.521438
0.03875,0.04625,0.12,-0.054672502,0.073775,0.02336,-0.02,-0.03375,0.04875,0.0077975,-0.19294749,0.0163725,1742107722.61907
0.09375,0.06375,-0.00375,-0.043915,-0.107575,-0.0313725,-0.00875,-0.1,0.08875,-0.030365,0.1511225,-0.0467075,1742107722.733193
-0.05625,0.08125,0.2175,0.0069274995,-0.02954,-0.000885,0.12125,-0.0375,0.06,-0.027940001,0.0750425,-0.019257499,1742107722.847061
0.02625,0.04625,0.11375,0.09311,0.153015,0.10614,0.15125,-0.0175,-0.07,0.098175004,-0.077300005,0.000535,1742107722.963745
0.09375,0.1125,-0.06375,-0.1224375,-0.033325,-0.02069,-0.00125,-0.015,0.14125,-0.0298,-0.1283425,-0.0094,1742107723.0838678
0.0725,0.06125,0.01,-0.0504925,-0.14079249,-0.0104225,0.005,-0.04375,0.05875,-0.061325002,0.1446225,-0.055724997,1742107723.204422
-0.01125,0.035,0.14875,0.060119998,0.10241751,0.0847925,0.16125,-0.05625,-0.0675,0.13131751,-0.028855,0.027069999,1742107723.3042219
0.07875,0.09,0.05,-0.00302,0.0602425,0.0104375,-0.0175,0.01125,0.07,0.011445,-0.1667475,0.03302,1742107723.424238
0.09875,0.08,-0.04,-0.090224996,-0.09166,-0.0174875,-0.05375,-0.09125,0.12375,-0.0146625005,0.1672825,-0.0559375,1742107723.5441651
0.04625,-0.005,0.1025,0.008605,-0.118165,0.0193775,0.15875,0.03875,0.0475,0.008805,0.053634997,-0.008042499,1742107723.644989
0.01375,0.065,0.12625,0.098815,0.14594999,0.1262975,0.11625,-0.06625,-0.045,0.0836175,-0.101592496,0.009475,1742107723.761886
0.095,0.13625,-0.07625,-0.0930625,-0.0108025,-0.0263225,-0.03375,-0.03625,0.2025,-0.008025,-0.138015,-0.020385,1742107723.883766
0.04625,0.05,0.0225,-0.0348825,-0.1545575,-0.0307,-0.00625,-0.0725,0.0775,-0.0538325,0.15904249,-0.0631875,1742107724.0038311
-0.04,0.05625,0.1475,0.0142675,0.073455,0.069535,0.1125,-0.02875,0.00125,0.0785525,-0.0074,0.009872501,1742107724.100888
0.005,0.06375,0.1025,0.0078275,0.1419525,0.038895,0.00125,-0.095,0.0175,0.0193625,-0.1764825,0.055189997,1742107724.2215512
0.1075,0.095,-0.05,-0.09201,-0.061537497,-0.030442499,-0.08875,-0.06,0.18625,-0.023225,0.160965,-0.0472725,1742107724.341204
0.01625,0.04125,0.07,0.0069274995,-0.15139751,-0.01236,0.14875,-0.01125,0.07875,-0.1147775,0.075592496,-0.0305025,1742107724.44369
0.00625,0.06375,0.09875,0.054475,0.1634525,0.0847175,0.12,-0.05,-0.0425,0.106199995,-0.0841675,0.0074299998,1742107724.556989
0.06625,0.1275,-0.0025,-0.056884997,0.0164175,-0.005355,-0.005,-0.02,0.12625,0.0051424997,-0.1290275,-0.0125124995,1742107724.671062
0.11375,0.04625,0.02125,-0.042907503,-0.089324996,-0.0224,-0.0175,-0.1,0.06875,-0.096769996,0.17691,-0.077805,1742107724.785037
0.02125,0.0425,0.14,0.0113525,-0.073212504,0.02626,0.10125,-0.02,-0.035,0.1527875,-0.0284125,0.017045,1742107724.904533
0.00125,0.10125,0.085,0.0950175,0.1746075,0.095107496,0.01625,-0.10125,0.00625,0.032654997,-0.17482,0.0280925,1742107725.024637
0.1025,0.09875,-0.035,-0.1077125,-0.0655375,-0.037415,-0.1025,-0.08875,0.245,0.0059499997,0.1000225,-0.01831,1742107725.1441011
0.0075,0.07875,0.0575,-0.0032650002,-0.15236,-0.028350001,0.05125,-0.165,-0.04125,-0.17047,0.16803,-0.052794997,1742107725.2447622
-0.0325,0.08375,0.12,0.0313275,0.138825,0.0901325,0.1475,-0.1075,-0.08,0.1266325,-0.106095,-0.00702,1742107725.364845
0.06625,0.0675,0.10625,-0.089585,0.0292975,0.007905,-0.02875,-0.025,0.095,-0.019087499,-0.157485,0.00122,1742107725.4690208
0.11,0.08625,-0.00875,-0.06479,-0.1358025,-0.0395975,-0.02,-0.06375,0.05625,-0.04036,0.19039999,-0.05043,1742107725.5842628
-0.03875,0.045,0.2275,0.0210425,-0.084089994,0.027145,0.11,-0.01125,0.04125,0.0119025,0.02861,0.006745,1742107725.704641
-0.01375,0.085,0.075,0.064925,0.187135,0.086807504,0.08625,-0.10375,-0.0275,0.081650004,-0.15387,0.0184625,1742107725.809953
0.10875,0.0875,-0.05125,-0.107255,-0.0413525,-0.0329425,-0.1525,-0.10625,0.35,0.0019824998,-0.0364375,-0.0089724995,1742107725.924005
0.0125,0.0875,0.0325,0.010895001,-0.1560525,-0.0075825,0.00375,-0.14125,0.01875,-0.1254875,0.1424875,-0.064757496,1742107726.037876
-0.05125,0.06875,0.14,0.01973,0.1315625,0.0755625,0.11875,-0.05625,-0.04125,0.11522,-0.030989999,0.013915,1742107726.151891
0.08125,0.055,0.08875,0.02617,0.074235,0.037657503,0.0025,-0.06875,0.055,0.005965,-0.1646425,0.02568,1742107726.265758
0.105,0.07375,-0.02375,-0.073975,-0.081055,-0.027115,-0.06375,-0.0725,0.14,-0.0175175,0.14027499,-0.045912497,1742107726.383719
0.0225,0.05125,0.09375,0.01564,-0.107635,0.0058899997,0.12125,0.0075,0.025,-0.061675,0.0797275,-0.0293575,1742107726.50451
-0.01125,0.09875,0.0975,0.055907503,0.1393125,0.0921175,0.0825,-0.11,-0.005,0.0678875,-0.1218875,0.021897499,1742107726.623651
0.06875,0.14,-0.0525,-0.1168225,-0.030715,-0.0314475,-0.0075,-0.06625,0.19,0.001235,-0.0712575,-0.00348,1742107726.721969
0.0675,0.075,0.045,-0.0124825,-0.096802495,-0.0299825,0.00125,-0.16375,0.00375,-0.15863,0.14860499,-0.071045,1742107726.844234
0.01,0.1075,0.1725,0.0060425,0.034027502,0.0467975,0.11375,-0.0825,-0.06375,0.127595,-0.069625,0.02565,1742107726.96386
0.07625,0.01,0.11875,0.055665,0.1133125,0.0544125,0.0075,-0.0475,0.10625,0.007905,-0.1413275,0.01175,1742107727.063779
0.08625,0.1025,0.0,-0.05368,-0.083862506,-0.042435,-0.015,-0.10125,0.1,-0.0691675,0.18072501,-0.075224996,1742107727.1808379
0.01,0.015,0.105,-0.01213,-0.1218575,-0.0139625,0.105,0.02375,0.07375,0.032057498,0.038865,-0.00789,1742107727.301582
0.02625,0.0675,0.1125,0.0712575,0.13588001,0.11804251,0.0925,-0.07,0.005,0.0894175,-0.12616001,0.028625,1742107727.421578
0.05625,0.14,-0.0075,-0.1139375,-0.014007499,-0.024765,-0.05,-0.0525,0.215,0.0019075,-0.074949995,-0.0057075,1742107727.519094
0.08875,0.06375,0.02375,-0.0523825,-0.1242375,-0.045287497,-0.01375,-0.1125,0.0525,-0.1151425,0.178635,-0.0959775,1742107727.633027
-0.06125,0.055,0.175,-0.0068675,0.0139625,0.0363625,0.10125,-0.06375,-0.055,0.14354,-0.030777501,0.008529999,1742107727.7469718
-0.00875,0.08125,0.11375,0.088379994,0.14744501,0.1122275,0.05625,-0.07375,0.00625,0.02562,-0.15345751,0.020629998,1742107727.8646011
0.105,0.09875,-0.01375,-0.095855005,-0.047105,-0.041275002,-0.08,-0.09125,0.2275,-0.0036,0.0818175,-0.032212503,1742107727.9842718
0.01875,0.06375,0.06875,0.002915,-0.128495,-0.017915001,0.10875,-0.14125,-0.0175,-0.11061,0.0992725,-0.024459999,1742107728.104625
-0.01125,0.06375,0.11875,0.053025,0.1469725,0.08815,0.1025,-0.06375,-0.025,0.07547,-0.069230005,0.00859,1742107728.20275
0.08625,0.085,0.06875,0.0228425,0.0667725,0.0210125,0.00375,-0.0125,0.10375,-0.0057825,-0.0856625,0.017915001,1742107728.321694
0.1,0.08625,0.01,-0.0040425,-0.017165001,-0.012955,-0.05,-0.03,0.15625,-0.008529999,-0.028212499,0.0040125,1742107728.441364
0.09,0.06,0.06,-0.0121925,-0.018889999,-0.00296,-0.03625,-0.02625,0.14625,-0.004105,-0.00499,-0.00496,1742107728.561291
0.08375,0.055,0.075,0.0036475,-0.01323,-6e-05,-0.01875,-0.0375,0.1125,0.0009775,-0.0125575,0.0039224997,1742107728.6588008
