L-AccX,L-AccY,L-AccZ,L-GyrX,L-GyrY,L-GyrZ,R-AccX,R-AccY,R-AccZ,R-GyrX,R-GyrY,R-GyrZ,timestamp
-0.11,0.15,0.94,-8.0,-4.39,6.77,0.11,-0.4,-0.92,5.37,2.99,1.4,1742257111.4351392
-0.4,0.75,1.0,52.06,-2.93,19.29,-0.04,-0.34,-1.03,-26.92,0.67,20.57,1742257111.52998
-0.49,0.95,0.89,-94.24,3.91,-277.59,0.17,-0.52,-0.93,1.16,-13.06,18.37,1742257111.638687
-0.21,-0.27,0.68,-76.78,-98.69,-263.85,0.26,-0.43,-0.92,36.44,-36.38,-4.7,1742257111.7528331
-0.35,0.05,0.99,-54.2,-98.51,-79.96,0.33,-0.38,-0.7,28.08,3.17,23.86,1742257111.872086
-0.17,0.32,1.03,-10.44,-18.86,1.46,0.23,-0.2,-0.93,14.53,19.1,7.69,1742257111.980719
-0.11,0.56,0.86,2.08,-6.29,8.48,0.23,-0.26,-0.95,-2.32,-6.16,-8.36,1742257112.095128
-0.15,0.55,0.85,11.47,-4.33,1.59,0.22,-0.29,-0.9,-0.61,-2.99,-7.69,1742257112.2112331
-0.09,0.47,0.86,11.17,8.67,2.32,0.22,-0.33,-0.93,3.17,-0.55,-0.37,1742257112.3307798
-0.1,0.49,0.87,9.58,-1.34,1.89,0.26,-0.33,-0.93,2.75,11.84,-1.59,1742257112.4367738
-0.06,0.48,0.89,-1.71,-5.49,-1.16,0.22,-0.27,-0.95,0.92,-0.67,2.81,1742257112.551519
-0.09,0.47,0.91,5.37,-0.12,-0.49,0.22,-0.28,-0.93,2.75,1.95,3.72,1742257112.66916
-0.08,0.43,0.89,3.6,-2.5,-3.78,0.21,-0.26,-0.94,3.85,2.26,3.6,1742257112.778674
-0.1,0.44,0.91,1.65,-0.37,0.31,0.21,-0.26,-0.94,3.48,7.08,0.92,1742257112.8929348
-0.11,0.43,0.92,12.88,6.47,0.43,0.2,-0.24,-0.99,11.41,-0.43,-7.69,1742257113.010706
-0.07,0.45,0.9,0.37,7.08,-0.73,0.23,-0.27,-0.93,6.59,-1.95,7.26,1742257113.120678
-0.07,0.42,0.91,11.05,3.11,-8.42,0.22,-0.25,-0.97,-0.73,-13.18,13.06,1742257113.234842
-0.03,0.37,0.92,6.84,8.24,-10.74,0.24,-0.21,-0.94,-4.88,-5.92,7.75,1742257113.3509681
-0.03,0.38,0.92,-2.87,4.52,-2.14,0.25,-0.25,-0.94,-6.84,-2.75,3.05,1742257113.4703739
-0.05,0.44,0.93,-10.62,2.32,1.04,0.26,-0.24,-0.96,3.11,-4.76,-1.16,1742257113.5768058
-0.02,0.4,0.93,-11.29,4.88,0.06,0.25,-0.21,-0.98,-2.81,-11.41,-2.99,1742257113.690892
-0.01,0.45,0.92,-7.39,6.84,3.54,0.31,-0.26,-0.92,12.27,-23.5,-6.16,1742257113.810441
0.01,0.46,0.89,8.48,9.16,-6.41,0.34,-0.21,-0.89,6.53,-20.51,19.17,1742257113.9186969
0.04,0.43,0.88,-0.85,10.19,-6.53,0.37,-0.24,-0.89,12.02,-10.01,7.39,1742257114.032684
0.04,0.48,0.91,4.76,10.07,-16.48,0.39,-0.2,-0.94,17.27,-14.4,20.26,1742257114.149872
0.11,0.38,0.9,-2.26,17.64,-23.25,0.44,-0.05,-0.83,22.28,-13.85,21.18,1742257114.260711
0.2,0.37,0.82,-17.7,13.49,-11.41,0.46,-0.03,-0.85,13.12,15.38,0.18,1742257114.374586
0.2,0.44,0.87,5.86,3.54,7.87,0.4,-0.1,-0.88,-0.79,38.7,-16.05,1742257114.4905229
0.17,0.43,0.93,34.67,-22.03,9.34,0.31,-0.07,-0.97,16.36,17.33,-2.14,1742257114.6050408
0.08,0.25,0.99,27.59,15.56,-3.54,0.33,-0.0,-0.97,-6.23,-12.76,-10.19,1742257114.716788
0.15,0.38,0.92,-8.91,19.53,4.82,0.36,-0.08,-0.93,3.3,-8.73,-3.05,1742257114.830772
0.19,0.34,0.92,3.05,10.62,1.46,0.37,-0.06,-0.88,0.06,-2.99,-5.13,1742257114.949735
0.19,0.35,0.9,-2.99,0.73,6.65,0.37,-0.09,-0.94,-2.01,1.28,-3.23,1742257115.0587058
0.18,0.37,0.93,-4.27,1.4,0.98,0.38,-0.08,-0.93,-1.59,1.83,2.14,1742257115.172715
0.18,0.38,0.92,-6.59,-4.64,3.17,0.37,-0.09,-0.91,-0.43,3.97,-0.31,1742257115.290132
0.16,0.38,0.89,-3.78,-4.64,0.73,0.36,-0.02,-0.92,1.95,4.09,-4.88,1742257115.400678
0.16,0.35,0.92,41.87,15.62,11.11,0.33,-0.1,-0.96,4.27,4.39,-7.51,1742257115.514713
0.18,0.29,0.95,4.21,-4.7,4.58,0.37,-0.08,-0.93,-3.23,8.36,-3.36,1742257115.6298811
0.18,0.33,0.93,-0.61,-5.62,3.6,0.31,-0.11,-0.95,-3.6,12.02,2.32,1742257115.7499049
0.14,0.32,0.93,-7.32,-7.69,1.16,0.3,-0.07,-0.96,-2.93,12.15,-2.01,1742257115.8566568
0.13,0.33,0.95,-7.14,-4.94,2.69,0.28,-0.11,-0.99,-4.52,1.77,0.18,1742257115.970618
0.1,0.38,0.95,-6.47,-0.24,-1.16,0.27,-0.09,-0.96,1.89,-1.59,3.11,1742257116.089886
0.13,0.34,0.93,-0.67,0.79,-1.59,0.28,-0.09,-0.98,1.83,1.95,-1.65,1742257116.1986
0.12,0.37,0.94,1.59,-1.22,1.1,0.28,-0.09,-0.97,3.48,0.92,-0.49,1742257116.312601
0.13,0.36,0.92,1.65,0.37,1.1,0.29,-0.1,-0.98,-7.39,-18.31,5.0,1742257116.432469
0.13,0.37,0.92,-1.28,2.75,-0.12,0.31,-0.08,-0.93,0.24,0.37,-0.73,1742257116.540607
0.13,0.34,0.92,-0.43,-2.75,2.87,0.3,-0.11,-0.99,-4.94,7.63,-5.0,1742257116.654635
0.09,0.37,0.95,-8.97,-3.11,1.46,0.27,-0.12,-0.96,-1.71,-3.85,1.16,1742257116.768679
0.11,0.38,0.92,-5.43,4.76,-4.58,0.28,-0.1,-0.96,0.73,0.49,1.22,1742257116.882557
0.11,0.37,0.93,-1.53,0.49,-0.24,0.29,-0.12,-0.95,-0.98,-1.71,-0.73,1742257116.996833
0.12,0.39,0.92,-2.26,1.95,0.0,0.31,-0.1,-0.96,0.43,-0.73,-3.11,1742257117.110632
0.14,0.38,0.92,-0.12,2.14,2.26,0.31,-0.13,-0.94,0.79,1.1,-2.14,1742257117.229183
0.14,0.39,0.9,-0.49,-0.61,0.73,0.31,-0.12,-0.94,-0.24,1.71,0.37,1742257117.3387039
0.14,0.38,0.9,-1.46,-1.83,-0.12,0.3,-0.12,-0.95,-2.26,3.97,0.85,1742257117.452651
0.13,0.39,0.91,-3.05,-4.82,0.37,0.28,-0.13,-0.95,-2.75,6.53,1.4,1742257117.568393
0.1,0.4,0.91,-3.85,-5.62,0.0,0.27,-0.13,-0.97,-2.44,5.92,1.77,1742257117.6806421
0.1,0.41,0.92,-2.81,-5.86,-0.98,0.26,-0.13,-0.97,-1.53,5.25,2.5,1742257117.79455
0.08,0.41,0.91,-2.69,-5.25,-0.49,0.25,-0.13,-0.97,-1.22,5.92,0.79,1742257117.911664
0.08,0.41,0.91,-6.59,-5.92,0.85,0.24,-0.13,-0.98,-1.22,3.66,-0.06,1742257118.024974
0.07,0.43,0.92,-4.09,-3.66,0.67,0.24,-0.14,-0.98,-0.06,1.34,1.65,1742257118.1366699
0.07,0.43,0.9,0.92,0.0,-0.73,0.24,-0.13,-0.96,-0.06,0.12,0.49,1742257118.250535
0.07,0.43,0.9,0.55,-1.16,0.37,0.23,-0.13,-0.96,-0.12,1.59,-0.67,1742257118.3696241
0.07,0.43,0.9,0.49,-1.65,1.16,0.23,-0.13,-0.96,-0.12,1.34,-0.67,1742257118.478795
0.07,0.42,0.9,-1.83,-2.26,1.16,0.23,-0.14,-0.97,-1.77,3.42,-0.98,1742257118.592829
0.06,0.44,0.9,-1.89,-2.69,0.98,0.22,-0.13,-0.97,-1.46,5.31,0.55,1742257118.7082958
0.05,0.43,0.9,-1.46,-3.72,0.37,0.2,-0.14,-0.99,-1.1,4.7,0.98,1742257118.820557
0.03,0.44,0.91,-0.24,-3.3,0.0,0.2,-0.15,-0.98,-0.12,3.6,0.37,1742257118.934537
0.02,0.44,0.91,-0.31,-2.01,-0.55,0.2,-0.14,-0.99,-0.49,1.34,-0.61,1742257119.0486379
0.03,0.44,0.91,-1.28,-0.31,0.49,0.2,-0.15,-0.99,0.55,-0.12,-1.59,1742257119.168006
0.02,0.44,0.91,0.37,0.92,0.43,0.19,-0.14,-0.97,1.59,-1.16,-2.01,1742257119.276614
0.04,0.43,0.91,0.43,1.95,0.98,0.2,-0.14,-0.98,2.32,-1.22,-1.71,1742257119.390643
0.03,0.44,0.91,2.56,2.2,1.53,0.21,-0.12,-0.99,2.56,-2.62,-3.3,1742257119.508088
0.04,0.43,0.92,2.14,4.88,2.44,0.21,-0.13,-0.96,4.33,-3.6,-2.75,1742257119.618765
0.05,0.42,0.9,3.54,2.56,1.83,0.22,-0.13,-0.97,0.85,-3.54,-4.52,1742257119.732629
0.05,0.42,0.91,0.37,2.32,3.42,0.22,-0.13,-0.98,0.61,-2.32,-4.39,1742257119.84783
0.05,0.42,0.91,-2.62,3.91,2.56,0.22,-0.14,-0.96,0.79,-3.66,-2.2,1742257119.960725
0.06,0.42,0.89,-0.67,2.2,0.92,0.22,-0.14,-0.94,-0.85,2.62,-2.99,1742257120.074673
0.06,0.42,0.88,-1.4,-5.13,1.34,0.22,-0.15,-0.98,-1.95,7.81,0.55,1742257120.1884742
0.05,0.45,0.91,-2.93,-4.64,0.12,0.21,-0.14,-0.98,0.37,5.19,3.42,1742257120.307102
0.04,0.42,0.9,-0.06,-5.19,-2.01,0.2,-0.13,-0.95,-2.56,7.69,2.08,1742257120.4165728
0.05,0.42,0.88,-6.77,-7.93,1.4,0.17,-0.16,-0.99,-6.1,7.81,2.44,1742257120.530475
-0.01,0.46,0.9,-5.8,-7.87,1.28,0.16,-0.14,-0.99,-3.11,3.85,5.0,1742257120.6473339
-0.01,0.45,0.9,-4.39,-4.15,-0.98,0.15,-0.17,-0.99,-2.56,3.85,0.31,1742257120.7585762
-0.02,0.48,0.89,-3.72,-2.62,1.04,0.13,-0.15,-0.99,0.18,6.1,0.31,1742257120.8724532
-0.02,0.44,0.91,0.18,-1.04,0.49,0.14,-0.13,-0.97,-1.59,6.47,-6.71,1742257120.9876852
-0.01,0.46,0.88,2.32,-5.92,5.74,0.13,-0.18,-0.99,-2.62,4.7,-10.31,1742257121.1005921
-0.03,0.5,0.89,9.09,-0.98,2.56,0.12,-0.17,-0.97,-3.97,-0.18,0.49,1742257121.214578
-0.04,0.49,0.88,3.54,-3.17,-1.59,0.11,-0.16,-1.0,-3.54,0.73,3.3,1742257121.328483
-0.03,0.42,0.91,-4.94,-3.23,-1.28,0.1,-0.18,-0.99,1.22,0.06,-2.99,1742257121.4462972
-0.03,0.42,0.92,0.92,-2.75,2.32,0.05,-0.21,-1.01,-5.92,0.24,13.79,1742257121.556531
-0.04,0.45,0.96,-5.55,1.53,-6.59,0.13,-0.2,-0.98,0.92,-2.56,0.67,1742257121.67052
-0.06,0.45,0.91,5.19,10.62,-4.82,0.12,-0.2,-0.96,2.14,2.81,3.48,1742257121.7871308
-0.01,0.42,0.9,7.69,2.38,-3.42,0.1,-0.16,-1.02,-4.46,10.5,6.65,1742257121.898616
-0.02,0.41,0.93,0.67,-1.22,-0.67,0.1,-0.16,-0.98,0.0,-1.95,-2.38,1742257122.012575
0.0,0.39,0.92,6.1,3.36,-0.06,0.11,-0.17,-1.0,1.59,-4.58,-2.38,1742257122.127288
-0.0,0.4,0.92,5.19,4.15,-0.12,0.11,-0.17,-0.98,1.34,-2.01,0.37,1742257122.240561
0.02,0.38,0.94,3.72,0.55,-0.79,0.11,-0.16,-0.99,2.69,2.62,0.24,1742257122.354513
0.01,0.37,0.94,3.72,-1.4,-1.1,0.1,-0.15,-0.99,2.81,-0.55,-0.92,1742257122.46869
0.01,0.35,0.93,3.54,-1.28,-0.18,0.1,-0.16,-1.0,-0.49,-1.53,0.98,1742257122.587158
0.0,0.36,0.93,-0.98,3.05,-2.69,0.12,-0.14,-0.99,-3.23,-1.89,2.5,1742257122.696596
0.02,0.37,0.94,-0.79,0.92,-1.04,0.1,-0.18,-0.98,-3.42,0.31,-0.92,1742257122.810677
0.01,0.39,0.93,-1.16,-0.67,2.14,0.11,-0.18,-0.99,2.32,1.4,-0.92,1742257122.924594
0.01,0.38,0.93,2.93,1.1,0.37,0.11,-0.17,-0.99,2.26,-0.79,0.0,1742257123.038531
0.02,0.36,0.93,2.26,0.98,-1.16,0.09,-0.17,-0.97,1.28,-0.61,1.83,1742257123.152508
0.01,0.37,0.93,0.92,-0.43,-2.2,0.1,-0.15,-0.99,2.08,1.71,-0.12,1742257123.266838
0.02,0.35,0.94,1.83,-0.24,-0.73,0.1,-0.16,-0.99,1.04,-0.55,-1.34,1742257123.380599
0.02,0.36,0.93,0.73,0.49,0.67,0.09,-0.17,-0.97,2.5,2.99,1.04,1742257123.494543
0.01,0.37,0.93,-0.98,-0.79,-0.79,0.11,-0.14,-1.0,1.83,1.71,2.2,1742257123.60852
0.03,0.36,0.95,-0.85,-0.49,-1.34,0.1,-0.15,-1.0,0.98,-2.26,1.16,1742257123.726732
0.01,0.35,0.94,0.92,0.79,-1.59,0.09,-0.14,-0.98,0.49,-0.24,1.53,1742257123.8365152
0.02,0.36,0.94,0.06,-1.04,-0.49,0.09,-0.15,-0.99,0.24,2.69,0.73,1742257123.9505558
0.02,0.35,0.93,-0.92,-1.95,-0.61,0.09,-0.15,-1.0,-0.85,1.28,0.49,1742257124.067222
0.01,0.36,0.94,-1.59,0.31,-1.1,0.09,-0.14,-0.99,0.67,-0.98,0.06,1742257124.178575
0.01,0.36,0.94,0.73,0.85,-0.67,0.09,-0.15,-1.0,0.55,-1.77,-0.85,1742257124.292526
0.02,0.36,0.95,-0.24,1.46,0.12,0.1,-0.15,-0.99,1.34,0.24,-1.16,1742257124.4095302
0.02,0.36,0.94,2.08,0.49,0.85,0.1,-0.14,-0.99,1.59,-0.06,-0.43,1742257124.520558
0.02,0.36,0.94,0.98,1.1,-0.43,0.1,-0.14,-0.98,1.53,0.85,0.49,1742257124.634346
0.03,0.34,0.93,1.53,-0.37,-0.79,0.1,-0.14,-0.99,0.85,0.55,0.85,1742257124.74838
0.03,0.34,0.94,0.92,-0.79,-0.24,0.09,-0.14,-0.99,0.79,2.26,0.55,1742257124.862325
0.03,0.35,0.94,0.37,-1.77,-0.18,0.09,-0.14,-0.99,1.46,2.75,1.04,1742257124.976362
0.02,0.34,0.94,0.43,-1.59,-1.4,0.09,-0.13,-1.0,-0.61,1.16,1.4,1742257125.090424
0.01,0.35,0.94,-1.04,-1.53,-1.04,0.09,-0.14,-0.99,1.22,1.77,1.28,1742257125.2069938
0.02,0.35,0.94,1.89,-1.16,-1.53,0.09,-0.14,-0.99,1.16,0.43,1.95,1742257125.318347
0.02,0.34,0.94,0.98,-1.34,-2.56,0.08,-0.12,-1.0,0.67,1.34,2.38,1742257125.432338
0.01,0.34,0.95,1.65,-1.53,-2.08,0.07,-0.12,-0.99,0.24,0.06,1.28,1742257125.5463822
0.01,0.34,0.95,0.43,-0.61,-0.85,0.08,-0.14,-0.99,0.67,1.34,-0.18,1742257125.660436
0.01,0.34,0.94,0.92,-0.61,-0.31,0.07,-0.12,-1.0,0.67,1.04,0.61,1742257125.7743518
0.01,0.33,0.95,0.31,0.0,-0.73,0.07,-0.13,-1.0,0.43,0.43,0.49,1742257125.8886569
0.0,0.33,0.95,-0.12,0.06,-0.49,0.08,-0.13,-1.0,0.06,-0.73,-0.18,1742257126.00282
0.01,0.33,0.94,0.18,0.55,0.12,0.07,-0.13,-1.0,0.79,-0.61,-0.49,1742257126.1165068
0.01,0.33,0.95,1.1,0.49,0.06,0.08,-0.12,-0.99,0.79,-0.24,-0.12,1742257126.230576
0.01,0.33,0.95,0.98,0.55,-0.24,0.07,-0.13,-1.0,-0.18,-0.49,-0.67,1742257126.34748
0.01,0.34,0.95,-0.18,1.04,0.31,0.08,-0.13,-1.0,0.18,-1.89,-1.59,1742257126.459508
0.01,0.34,0.95,0.12,1.83,0.67,0.08,-0.13,-0.99,-0.98,-2.2,-1.95,1742257126.573623
0.02,0.33,0.94,-1.95,2.01,1.1,0.09,-0.13,-1.0,-0.31,-1.04,-2.2,1742257126.6876302
0.02,0.34,0.95,-1.16,1.53,1.28,0.09,-0.14,-0.99,-0.55,-1.34,-1.71,1742257126.8015518
0.02,0.34,0.94,-0.85,1.59,1.1,0.09,-0.14,-0.99,-0.55,-1.77,-1.59,1742257126.9156458
0.03,0.34,0.94,-1.04,1.53,0.79,0.09,-0.13,-0.98,-0.31,-0.85,-1.34,1742257127.029525
0.03,0.34,0.94,0.18,0.67,0.55,0.1,-0.14,-1.0,0.61,0.92,-1.22,1742257127.145887
0.03,0.35,0.94,0.49,-0.24,0.92,0.09,-0.13,-0.98,-0.18,0.12,-2.44,1742257127.257461
0.03,0.33,0.93,0.61,-0.43,1.53,0.1,-0.13,-0.98,1.22,5.49,-3.97,1742257127.371451
0.04,0.34,0.94,0.24,-3.48,4.94,0.09,-0.16,-0.99,2.69,5.86,0.49,1742257127.4869041
0.02,0.36,0.94,5.13,-5.19,0.79,0.07,-0.13,-0.99,3.48,7.2,6.1,1742257127.59936
0.01,0.33,0.94,4.46,-6.47,-3.6,0.04,-0.11,-1.01,3.54,7.63,5.92,1742257127.713364
-0.01,0.32,0.96,2.14,-7.2,-3.97,0.04,-0.1,-1.0,5.49,0.67,3.78,1742257127.827242
-0.02,0.31,0.95,2.38,-3.36,-3.97,0.04,-0.1,-1.02,3.97,-5.55,2.32,1742257127.941618
-0.03,0.29,0.96,-0.98,-3.3,-2.75,0.07,-0.1,-0.99,1.1,0.06,6.65,1742257128.055244
-0.02,0.34,0.95,-7.08,-5.55,-1.65,0.05,-0.07,-0.99,-1.53,-4.03,9.46,1742257128.1694348
-0.04,0.34,0.95,-10.56,-4.88,-3.6,0.08,-0.08,-1.0,-2.69,-1.59,5.62,1742257128.283733
-0.03,0.35,0.94,-5.49,-0.06,-3.72,0.09,-0.08,-1.0,-3.11,-2.44,4.58,1742257128.3974552
-0.04,0.36,0.94,-3.78,-0.79,-1.95,0.1,-0.1,-1.01,-1.4,-3.72,0.98,1742257128.511481
-0.04,0.36,0.95,-2.93,0.43,-0.67,0.11,-0.11,-1.0,-1.46,-4.39,0.37,1742257128.6258502
-0.04,0.37,0.93,-2.2,1.16,-0.18,0.11,-0.12,-0.99,-3.42,-3.66,0.31,1742257128.7394629
-0.03,0.37,0.93,-4.09,3.23,0.37,0.12,-0.11,-0.99,-0.92,-3.42,-0.98,1742257128.853504
-0.02,0.37,0.93,-1.46,2.93,0.12,0.14,-0.12,-0.99,-1.1,-4.09,-1.34,1742257128.967519
-0.01,0.38,0.93,-2.2,2.44,0.31,0.15,-0.13,-0.98,-0.43,-2.38,-1.46,1742257129.081573
-0.0,0.39,0.92,-1.65,1.65,0.55,0.15,-0.13,-0.98,-1.77,-0.18,-1.04,1742257129.195572
-0.0,0.38,0.92,-2.32,-0.06,0.06,0.14,-0.13,-0.99,-0.18,1.4,-0.37,1742257129.309419
-0.01,0.39,0.92,0.31,-1.65,0.31,0.14,-0.13,-0.98,0.06,2.44,1.89,1742257129.423378
-0.01,0.39,0.92,0.49,-1.95,-0.67,0.13,-0.13,-0.99,0.24,4.33,2.69,1742257129.537281
-0.02,0.39,0.93,1.59,-3.17,-1.1,0.12,-0.11,-0.99,0.98,3.91,2.01,1742257129.65155
-0.02,0.38,0.93,1.4,-2.81,-1.16,0.11,-0.12,-1.0,1.04,3.36,1.34,1742257129.7661922
-0.04,0.39,0.93,1.04,-2.87,-0.43,0.1,-0.13,-1.0,0.92,2.2,1.1,1742257129.8793778
-0.04,0.38,0.93,0.85,-1.65,-0.85,0.1,-0.11,-0.99,1.59,0.18,1.46,1742257129.993407
-0.05,0.38,0.93,0.49,-0.06,-2.14,0.1,-0.12,-1.01,0.61,0.43,0.0,1742257130.1073768
-0.04,0.38,0.94,0.0,-0.12,-0.12,0.1,-0.12,-0.99,0.67,-0.06,-0.18,1742257130.22148
-0.04,0.38,0.93,0.24,0.92,-0.24,0.1,-0.11,-0.99,-0.31,-2.2,-0.92,1742257130.3354619
-0.04,0.37,0.93,-1.04,1.95,-0.61,0.11,-0.12,-0.99,-0.24,-3.23,-1.1,1742257130.449575
-0.03,0.38,0.93,-1.28,3.11,-0.24,0.12,-0.12,-1.0,-0.61,-3.48,-1.59,1742257130.566175
-0.03,0.38,0.93,-1.28,2.93,0.49,0.13,-0.12,-1.0,-0.73,-4.58,-1.4,1742257130.677602
-0.02,0.38,0.93,-2.08,4.03,-0.06,0.14,-0.12,-0.99,-0.37,-4.39,-1.83,1742257130.791494
-0.01,0.39,0.93,-0.73,4.03,0.43,0.15,-0.12,-0.99,-1.16,-4.39,-1.71,1742257130.908117
0.0,0.39,0.92,-1.53,4.46,-0.24,0.15,-0.13,-0.98,-0.37,-4.03,-0.98,1742257131.019511
0.01,0.39,0.92,-0.92,4.03,-0.24,0.16,-0.12,-0.98,-0.85,-3.48,-0.92,1742257131.1334898
0.02,0.39,0.92,-2.08,3.72,-0.61,0.17,-0.14,-0.99,-1.22,0.67,-2.14,1742257131.247394
0.02,0.4,0.92,-1.46,1.46,1.46,0.17,-0.15,-0.99,-0.85,-3.23,-0.55,1742257131.361482
0.02,0.41,0.92,-1.28,2.38,-0.49,0.17,-0.13,-0.99,0.24,-5.19,-1.34,1742257131.4754329
0.02,0.41,0.93,-1.22,4.64,-1.22,0.17,-0.13,-0.99,-0.43,-5.37,-3.85,1742257131.5894778
0.02,0.39,0.92,-0.37,5.31,1.16,0.2,-0.13,-0.97,0.24,-5.07,-6.1,1742257131.706644
0.05,0.4,0.91,-0.73,5.37,3.42,0.22,-0.16,-0.98,-0.85,-2.5,-3.78,1742257131.817527
0.06,0.42,0.91,-0.98,2.69,2.62,0.21,-0.15,-0.96,-0.67,-1.04,-0.37,1742257131.9315689
0.07,0.42,0.9,-1.59,1.95,-0.31,0.21,-0.14,-0.97,0.12,0.18,0.31,1742257132.0469031
0.06,0.41,0.91,-0.37,-0.49,-0.73,0.21,-0.14,-0.96,-0.06,0.79,-0.18,1742257132.1594071
0.06,0.41,0.91,-0.61,-0.67,-0.31,0.21,-0.15,-0.96,-0.49,1.95,0.0,1742257132.273309
0.06,0.42,0.9,-1.46,-1.65,0.31,0.2,-0.16,-0.97,0.43,4.52,1.59,1742257132.388426
0.05,0.43,0.91,0.98,-3.78,0.43,0.19,-0.15,-0.97,0.49,4.82,3.17,1742257132.5013351
0.04,0.42,0.91,1.16,-4.64,-1.22,0.18,-0.14,-0.97,0.55,6.29,3.36,1742257132.615317
0.03,0.41,0.91,1.77,-6.04,-1.59,0.17,-0.13,-0.97,0.12,5.49,3.72,1742257132.729238
0.02,0.41,0.91,0.31,-6.1,-2.5,0.16,-0.14,-0.99,-0.43,6.29,5.0,1742257132.847261
0.0,0.41,0.92,0.0,-6.77,-2.69,0.13,-0.13,-0.98,-0.67,5.0,2.62,1742257132.9574468
-0.01,0.39,0.91,-1.16,-4.7,-2.14,0.16,-0.17,-0.97,1.95,3.91,1.04,1742257133.071239
-0.0,0.43,0.92,1.89,-0.67,-1.34,0.13,-0.14,-0.99,-2.14,6.65,3.97,1742257133.186593
-0.0,0.41,0.91,-2.93,-3.91,-2.08,0.1,-0.13,-1.0,-1.65,5.92,2.56,1742257133.299399
-0.03,0.4,0.93,-0.24,-5.98,-1.83,0.09,-0.15,-1.0,-1.89,3.11,-1.95,1742257133.413336
-0.05,0.42,0.92,-3.6,-2.5,1.53,0.09,-0.16,-1.0,-0.85,2.14,-1.28,1742257133.527332
-0.04,0.43,0.92,-0.61,-2.26,1.4,0.1,-0.16,-1.01,-1.16,-2.32,-0.12,1742257133.641438
-0.04,0.43,0.92,-0.85,1.46,-0.18,0.1,-0.15,-0.99,0.18,-5.8,-2.62,1742257133.7553458
-0.03,0.42,0.92,-0.06,5.49,0.06,0.12,-0.15,-0.99,0.18,-5.68,-4.21,1742257133.86932
-0.02,0.42,0.91,0.24,6.23,2.69,0.14,-0.16,-0.99,-1.46,-5.0,-4.46,1742257133.9866722
0.0,0.42,0.91,-1.1,5.43,3.3,0.15,-0.18,-0.99,0.49,-7.63,-0.43,1742257134.097323
0.0,0.44,0.9,-1.16,4.76,0.67,0.15,-0.15,-0.98,-1.53,-5.8,-0.06,1742257134.211394
0.02,0.42,0.9,-1.1,5.31,-0.18,0.17,-0.19,-0.98,-3.36,-4.21,0.61,1742257134.325742
0.02,0.43,0.91,-3.42,4.15,1.28,0.18,-0.18,-0.97,-2.56,-5.68,1.71,1742257134.439332
0.03,0.43,0.91,-3.36,6.9,-0.24,0.2,-0.18,-0.98,-0.79,-7.87,-1.28,1742257134.553441
0.04,0.44,0.9,-2.32,6.23,1.28,0.21,-0.17,-0.96,-1.65,-8.67,-1.71,1742257134.667402
0.05,0.44,0.89,-3.17,6.96,0.55,0.23,-0.17,-0.96,-1.53,-5.98,-1.1,1742257134.78144
0.06,0.46,0.88,-4.03,5.62,0.61,0.24,-0.19,-0.94,-1.65,-3.36,-1.65,1742257134.895469
0.07,0.45,0.88,-3.36,2.75,1.34,0.24,-0.2,-0.94,-3.97,4.15,2.5,1742257135.009272
0.07,0.47,0.88,-4.03,-1.1,1.95,0.24,-0.22,-0.96,-7.87,7.69,7.39,1742257135.125723
0.07,0.47,0.88,-2.81,-4.64,1.83,0.22,-0.21,-0.97,-3.54,0.0,-0.73,1742257135.23731
0.05,0.48,0.88,-4.27,-2.99,1.95,0.21,-0.22,-0.95,-2.62,1.34,0.24,1742257135.351281
0.05,0.48,0.87,0.67,-4.58,3.23,0.22,-0.23,-0.95,0.24,5.37,-0.61,1742257135.4654331
0.06,0.49,0.86,1.4,-4.27,2.01,0.2,-0.24,-0.96,2.26,6.04,3.36,1742257135.5791261
0.03,0.5,0.87,3.78,-6.29,-1.77,0.18,-0.2,-0.97,0.73,6.16,4.33,1742257135.6932411
0.01,0.46,0.88,4.33,-6.04,-3.05,0.15,-0.19,-1.02,-0.55,0.98,-1.16,1742257135.807337
-0.02,0.44,0.92,1.53,-2.26,0.73,0.18,-0.22,-0.95,3.17,-1.4,0.79,1742257135.9212239
-0.01,0.48,0.87,0.37,2.99,-0.43,0.19,-0.2,-0.96,2.08,2.99,2.14,1742257136.0351338
0.04,0.45,0.87,3.6,-1.4,-0.55,0.18,-0.19,-0.98,1.83,0.06,2.81,1742257136.149156
0.01,0.45,0.9,2.26,-1.65,-1.89,0.16,-0.2,-0.97,2.87,0.79,0.49,1742257136.2656262
0.0,0.44,0.9,2.2,-0.85,-1.4,0.17,-0.2,-0.98,3.23,0.31,0.85,1742257136.377162
-0.0,0.45,0.9,2.14,0.73,-2.08,0.18,-0.19,-0.97,5.92,-3.23,2.08,1742257136.491263
0.01,0.45,0.92,4.21,2.01,-4.09,0.19,-0.16,-0.97,5.37,0.12,0.73,1742257136.606295
0.02,0.42,0.9,4.21,-0.12,-3.42,0.18,-0.16,-0.99,5.0,-0.85,-0.61,1742257136.7192802
0.01,0.41,0.91,6.71,-5.37,-2.38,0.19,-0.16,-0.98,5.8,-3.48,-1.04,1742257136.833319
0.01,0.42,0.92,3.91,0.18,-2.44,0.2,-0.14,-0.97,5.62,-1.34,0.24,1742257136.947166
0.02,0.4,0.91,6.96,-2.14,-3.91,0.19,-0.14,-0.97,3.11,-0.31,-0.43,1742257137.061302
0.01,0.4,0.92,3.3,1.16,-2.32,0.2,-0.12,-0.98,2.93,-0.06,-0.55,1742257137.212865
0.02,0.38,0.93,3.42,1.59,-1.1,0.2,-0.13,-0.98,0.61,0.31,-2.69,1742257137.2891772
0.02,0.38,0.92,-0.49,2.69,1.28,0.19,-0.14,-0.98,1.71,0.55,0.18,1742257137.403158
0.02,0.4,0.93,-1.34,2.75,-0.43,0.2,-0.13,-0.98,2.01,-1.04,0.43,1742257137.517215
0.03,0.39,0.93,1.77,2.2,-1.28,0.19,-0.12,-0.98,2.5,-0.79,1.65,1742257137.631189
0.04,0.39,0.93,5.62,11.05,-4.09,0.2,-0.12,-0.98,0.92,-0.49,-2.32,1742257137.746798
0.06,0.36,0.94,0.12,4.33,-0.37,0.21,-0.13,-0.97,0.49,2.14,-0.31,1742257137.859194
0.06,0.38,0.93,1.77,0.43,0.49,0.2,-0.12,-0.99,-1.53,-1.34,1.28,1742257137.973253
0.05,0.37,0.93,1.04,-1.34,0.73,0.2,-0.12,-0.97,-0.31,0.67,0.18,1742257138.0871968
0.06,0.37,0.92,-2.81,0.37,-0.73,0.21,-0.13,-0.97,-0.31,1.65,3.17,1742257138.2011771
0.07,0.38,0.92,-1.89,-0.98,-1.77,0.19,-0.12,-0.98,0.73,2.69,2.99,1742257138.315073
0.06,0.38,0.93,1.34,0.24,-2.93,0.18,-0.12,-0.99,3.66,-3.42,-0.43,1742257138.4300978
0.04,0.37,0.93,1.59,1.22,-1.4,0.21,-0.13,-0.96,3.78,-5.19,-0.98,1742257138.54673
0.07,0.36,0.93,2.87,6.35,-0.18,0.19,-0.15,-0.99,8.79,-0.55,5.74,1742257138.657154
0.06,0.41,0.93,5.43,-0.31,-2.08,0.2,-0.0,-0.99,7.93,-11.6,6.23,1742257138.771231
0.05,0.31,0.95,4.27,11.54,-8.36,0.26,-0.07,-0.92,4.82,-4.64,-10.56,1742257138.8882382
0.11,0.29,0.96,-3.91,13.18,3.48,0.24,-0.16,-0.97,18.8,9.89,3.23,1742257138.9991
0.14,0.44,0.9,10.25,-3.42,3.36,0.22,-0.02,-0.99,20.75,3.23,15.99,1742257139.1131442
0.11,0.35,0.94,27.71,-1.59,-19.23,0.19,0.07,-0.98,13.06,2.99,15.14,1742257139.227085
0.14,0.21,0.96,16.17,-1.83,-16.97,0.16,0.11,-0.99,0.98,4.09,10.62,1742257139.3410718
0.1,0.15,1.0,8.67,-2.32,-6.53,0.17,0.1,-1.0,-6.77,-0.61,-9.03,1742257139.4553611
0.1,0.14,0.98,-2.99,-2.01,8.54,0.2,-0.05,-0.97,-12.76,3.3,-13.98,1742257139.569412
0.12,0.23,0.95,-8.12,3.05,18.74,0.19,-0.08,-0.98,-6.71,8.06,-2.08,1742257139.684574
0.11,0.32,0.91,-11.23,-4.33,7.51,0.14,-0.01,-1.02,-0.98,8.91,18.19,1742257139.7971442
0.09,0.32,0.96,-5.43,-6.53,-9.64,0.12,0.0,-1.01,-4.58,4.46,16.54,1742257139.9112809
0.08,0.25,0.98,-1.89,-11.11,-15.62,0.14,0.01,-1.0,0.06,-0.37,4.94,1742257140.0289369
0.08,0.28,1.0,-6.65,-3.05,-8.36,0.11,-0.02,-0.98,-6.04,0.31,-9.95,1742257140.1391969
0.08,0.25,0.97,0.06,-1.34,2.44,0.14,-0.09,-1.01,-7.08,-0.61,-6.53,1742257140.253261
0.08,0.31,0.94,-8.97,1.4,8.06,0.15,-0.05,-1.01,3.91,-4.58,-0.12,1742257140.368961
0.08,0.34,0.97,-5.55,3.42,0.37,0.14,-0.03,-0.99,-0.85,8.42,1.28,1742257140.481132
0.12,0.27,0.94,13.18,-4.33,-2.14,0.13,-0.1,-1.02,1.65,1.22,5.86,1742257140.594954
0.05,0.33,0.93,5.86,-1.71,2.01,0.14,-0.01,-0.99,8.73,-1.28,13.37,1742257140.709111
0.08,0.31,0.97,6.29,2.44,-11.66,0.13,0.08,-1.01,5.25,-1.04,13.49,1742257140.826348
0.1,0.23,0.99,13.98,-3.48,-16.36,0.12,0.03,-0.97,0.31,4.33,3.23,1742257140.936863
0.09,0.19,0.96,3.36,-3.11,-6.9,0.12,0.03,-1.0,0.31,5.62,2.56,1742257141.0498822
0.07,0.23,0.96,1.04,-5.68,-1.53,0.13,0.0,-1.01,-4.03,4.09,0.61,1742257141.16643
0.08,0.24,0.97,-2.44,-4.52,0.67,0.12,-0.01,-0.99,-5.31,3.3,2.14,1742257141.2771342
0.08,0.25,0.97,-4.33,-4.27,-0.92,0.09,-0.03,-1.0,-6.29,3.97,1.95,1742257141.391089
0.05,0.25,0.95,-5.19,-5.25,-1.22,0.07,-0.03,-1.01,-4.33,2.32,0.79,1742257141.505842
0.03,0.27,0.97,-7.2,-6.23,-1.22,0.08,-0.03,-1.02,-3.78,-0.92,-1.16,1742257141.619383
0.01,0.28,0.97,-5.74,-1.59,-0.73,0.07,-0.0,-1.0,-2.5,-7.75,-13.49,1742257141.73328
0.0,0.27,0.98,-7.75,3.17,5.0,0.12,-0.1,-1.0,-4.33,-5.74,-15.08,1742257141.847254
0.03,0.3,0.96,-6.35,6.65,14.65,0.13,-0.09,-1.0,-4.27,-0.24,5.43,1742257141.961104
0.06,0.37,0.92,-5.0,3.11,5.62,0.11,-0.07,-1.01,-1.59,0.85,3.72,1742257142.075119
0.04,0.32,0.95,-0.61,-2.99,-5.74,0.11,-0.04,-1.01,-0.79,-1.71,-1.28,1742257142.189276
0.02,0.32,0.95,-1.04,0.61,-2.14,0.11,-0.08,-1.0,-2.99,-4.27,-13.06,1742257142.306423
0.04,0.3,0.97,-3.91,3.85,6.41,0.13,-0.12,-1.0,1.1,-1.34,-6.1,1742257142.4172192
0.03,0.36,0.94,-2.5,2.01,9.22,0.13,-0.07,-0.99,6.84,0.92,2.62,1742257142.531009
0.05,0.35,0.95,9.03,0.98,-1.65,0.12,-0.08,-0.99,2.81,3.3,1.46,1742257142.647146
0.06,0.3,0.94,9.34,-4.27,-1.77,0.13,-0.08,-1.0,3.6,-0.67,0.55,1742257142.7591732
0.04,0.3,0.96,2.08,-0.12,-1.22,0.12,-0.07,-1.0,5.13,-0.31,3.17,1742257142.873006
0.05,0.31,0.96,4.15,0.98,-1.71,0.11,-0.04,-1.03,4.39,-1.89,5.31,1742257142.987097
0.03,0.29,0.95,-2.56,4.64,-3.42,0.12,-0.01,-0.99,0.67,-6.23,2.87,1742257143.1010501
0.05,0.28,0.97,0.67,7.08,-3.23,0.12,-0.0,-1.01,-2.01,-3.54,-2.87,1742257143.215225
0.07,0.25,0.96,-4.52,4.52,-0.12,0.13,-0.04,-0.99,-11.29,-3.11,-8.85,1742257143.32924
0.07,0.26,0.97,-2.69,4.21,2.62,0.14,-0.07,-1.0,-6.1,0.18,-0.24,1742257143.4459589
0.09,0.32,0.95,-11.35,4.27,3.05,0.14,-0.05,-0.93,-16.24,3.17,-1.34,1742257143.557152
0.07,0.29,0.94,-5.31,-0.43,-1.89,0.13,-0.18,-1.03,-21.67,8.54,-4.82,1742257143.671144
0.12,0.34,0.89,-21.85,1.83,7.51,0.15,-0.19,-1.0,-2.2,3.72,6.47,1742257143.786813
0.12,0.43,0.93,-13.55,0.79,-0.31,0.11,-0.1,-1.0,0.12,8.36,5.37,1742257143.899037
0.1,0.39,0.89,-4.15,-6.29,-9.89,0.09,-0.08,-1.02,-4.52,11.23,-12.94,1742257144.013143
0.06,0.37,0.92,-0.79,0.67,-1.4,0.08,-0.21,-0.97,1.65,-3.54,-30.21,1742257144.1271439
0.02,0.41,0.95,-0.18,-2.26,19.84,0.09,-0.27,-0.97,2.01,0.37,-16.72,1742257144.241159
0.03,0.47,0.87,-1.34,1.53,20.51,0.09,-0.21,-1.0,3.91,0.06,0.55,1742257144.354986
0.04,0.48,0.89,-3.11,-1.34,2.5,0.05,-0.1,-1.06,8.42,2.2,-13.12,1742257144.4690619
0.04,0.42,0.94,5.92,2.93,-8.06,0.06,-0.12,-0.99,-0.61,17.4,-24.41,1742257144.586451
0.01,0.37,1.02,10.19,11.78,-1.59,0.03,-0.14,-0.97,-0.67,10.86,-22.46,1742257144.6971788
0.04,0.4,0.88,-23.5,-10.19,14.47,0.05,-0.21,-1.02,4.46,2.75,-13.0,1742257144.8110132
0.03,0.5,0.88,1.22,-4.21,19.04,0.04,-0.16,-0.98,-0.85,-6.71,6.65,1742257144.925149
0.05,0.43,0.88,5.98,4.82,1.22,0.03,-0.13,-0.96,1.22,-7.26,5.13,1742257145.03916
0.05,0.42,0.88,2.44,3.42,-3.3,0.06,-0.13,-1.0,-1.59,-10.99,3.36,1742257145.1529868
0.03,0.39,0.91,10.99,9.22,-0.18,0.07,-0.18,-1.01,-5.62,-9.03,3.54,1742257145.2671611
0.06,0.4,0.92,0.98,4.33,2.62,0.11,-0.14,-0.97,-5.19,-4.46,11.35,1742257145.3811321
0.06,0.43,0.93,-1.22,4.27,-2.26,0.08,-0.17,-0.99,-3.42,0.43,2.08,1742257145.495035
0.07,0.39,0.91,-3.54,-2.44,0.55,0.08,-0.2,-1.0,-2.81,-3.23,5.0,1742257145.6091478
0.02,0.42,0.92,-3.97,-2.2,0.12,0.11,-0.18,-0.99,0.18,-1.77,10.8,1742257145.7268858
0.02,0.44,0.92,-12.08,-1.22,-2.56,0.12,-0.16,-0.98,-3.05,0.92,5.07,1742257145.8369348
0.07,0.42,0.91,-0.79,0.31,-3.97,0.1,-0.18,-0.98,-0.61,1.59,-2.5,1742257145.95103
0.05,0.42,0.9,-0.43,2.5,1.89,0.12,-0.17,-0.98,-1.65,3.23,-3.36,1742257146.0675032
0.05,0.42,0.9,1.16,-1.1,3.05,0.12,-0.19,-0.98,-2.81,1.34,-9.95,1742257146.179051
0.06,0.42,0.9,-0.43,1.34,5.13,0.11,-0.13,-1.0,-18.68,-8.3,-8.54,1742257146.2931561
0.05,0.41,0.91,-5.86,-2.44,7.51,0.21,-0.12,-0.99,-84.72,-57.43,5.74,1742257146.409952
0.01,0.36,0.95,-16.42,-5.62,19.65,0.17,-0.39,-0.73,-130.49,-73.24,-105.59,1742257146.521173
-0.08,0.18,0.95,-12.57,25.76,62.01,0.09,-0.92,-0.65,-142.88,-71.78,-57.56,1742257146.635145
-0.17,0.16,0.97,26.25,78.19,126.89,0.26,-1.0,-0.41,-70.56,-97.29,-21.67,1742257146.749166
-0.1,0.21,0.94,54.93,44.8,188.72,0.29,-0.88,-0.2,-51.51,-54.2,-1.77,1742257146.86328
-0.12,0.43,0.96,-6.96,2.32,152.04,0.31,-0.93,-0.07,-40.71,-51.51,-7.57,1742257146.977212
-0.46,0.68,1.08,-24.48,-21.85,70.37,0.29,-0.99,-0.02,-20.45,-44.74,-9.58,1742257147.091202
