L-AccX,L-AccY,L-AccZ,L-GyrX,L-GyrY,L-GyrZ,R-AccX,R-AccY,R-AccZ,R-GyrX,R-GyrY,R-GyrZ,timestamp
-0.00125,0.00375,0.1225,0.0004725,0.0018625,0.00059500005,0.00125,-0.0425,0.11375,0.0016475001,0.00079250004,-0.0004425,1742093307.778545
-0.0,0.00125,0.12375,0.000275,0.00328,0.00045750002,0.00625,-0.0425,0.115,-0.0013575,-0.0003825,-0.0018775001,1742093307.8909812
0.00375,0.00375,0.11875,0.0003975,0.0027,0.0010375,0.00125,-0.035,0.12125,-0.0013425,-0.001115,-0.001145,1742093308.0038989
0.0025,-0.00125,0.12625,0.00064,-0.000107500004,-0.00045750002,0.0,-0.0425,0.11875,-0.0007475,-0.00045750002,0.0001975,1742093308.117203
0.00625,0.00375,0.12125,4.5e-05,-0.00059500005,-0.0001225,0.0025,-0.04375,0.115,0.002075,0.0001825,0.0012975,1742093308.230985
0.00375,0.0,0.12375,-3e-05,-0.000535,7.75e-05,0.00125,-0.0375,0.11875,0.0007175,0.00052,-0.00023,1742093308.345031
0.005,0.00375,0.12125,0.0,-0.0001825,0.0007625,-0.0,-0.0375,0.11875,-0.0001825,-0.00016750001,1.5e-05,1742093308.4589682
0.0025,-0.00125,0.12125,-1.5e-05,-0.0003975,0.0007625,0.00125,-0.0375,0.11875,-4.5e-05,4.5e-05,-6e-05,1742093308.572161
0.0025,-0.0,0.12375,0.00026,-0.00048750002,0.000245,0.0,-0.03875,0.11875,-0.0001375,-7.75e-05,-0.0001375,1742093308.686065
0.0025,0.0,0.12375,3e-05,4.5e-05,-7.75e-05,0.00125,-0.03875,0.11875,-0.000107500004,-0.0001375,-9.25e-05,1742093308.8000379
0.0025,0.0,0.12375,-1.5e-05,0.0001825,-4.5e-05,0.0,-0.03875,0.11875,-9.25e-05,-0.00016750001,-0.000107500004,1742093308.912985
0.0025,-0.0,0.1225,-0.0002125,4.5e-05,0.000107500004,0.0,-0.03875,0.11875,0.000107500004,6e-05,-0.000245,1742093309.027073
0.00375,0.0,0.1225,-7.75e-05,0.000107500004,1.5e-05,-0.0,-0.03875,0.11875,0.0001225,-7.75e-05,-7.75e-05,1742093309.140949
0.00375,0.0,0.12375,4.5e-05,9.25e-05,-3e-05,0.0,-0.0375,0.11875,9.25e-05,-6e-05,-0.000107500004,1742093309.253943
0.00375,0.0,0.12375,-0.000107500004,0.000245,-4.5e-05,0.0,-0.03875,0.11875,-7.75e-05,-0.0001375,-7.75e-05,1742093309.367059
0.00375,0.0,0.1225,-4.5e-05,9.25e-05,3e-05,0.0,-0.0375,0.11875,-0.000275,-0.000107500004,-1.5e-05,1742093309.480937
0.00375,0.0,0.1225,-0.0001225,1.5e-05,3e-05,-0.0,-0.0375,0.12,-9.25e-05,-1.5e-05,-7.75e-05,1742093309.597939
0.00375,-0.0,0.1225,1.5e-05,0.0001525,4.5e-05,-0.0,-0.03625,0.12,-0.0001825,0.0,-9.25e-05,1742093309.7079418
0.00375,0.0,0.1225,7.75e-05,0.0001375,-3e-05,-0.0,-0.0375,0.11875,-0.000107500004,-3e-05,-6e-05,1742093309.82144
0.00375,0.0,0.1225,7.75e-05,-1.5e-05,-4.5e-05,-0.0,-0.0375,0.11875,-0.000245,-9.25e-05,0.0,1742093309.937071
0.00375,0.0,0.1225,-1.5e-05,0.0,0.0,-0.0,-0.03875,0.11875,4.5e-05,0.0,-0.000107500004,1742093310.0479271
0.00375,0.0,0.1225,-3e-05,0.000107500004,3e-05,-0.0,-0.0375,0.11875,-9.25e-05,0.0,-7.75e-05,1742093310.160927
0.00375,0.0,0.12375,-6e-05,0.000107500004,4.5e-05,-0.0,-0.0375,0.12,3e-05,-3e-05,0.0,1742093310.2739358
0.00375,0.0,0.1225,-4.5e-05,1.5e-05,3e-05,-0.0,-0.0375,0.12,6e-05,-3e-05,-3e-05,1742093310.3869472
0.00375,0.0,0.1225,9.25e-05,-1.5e-05,-3e-05,-0.0,-0.0375,0.11875,3e-05,-3e-05,-0.000107500004,1742093310.499936
0.00375,0.0,0.12375,4.5e-05,6e-05,-6e-05,-0.0,-0.0375,0.11875,6e-05,-4.5e-05,-0.000107500004,1742093310.6172118
0.00375,0.0,0.1225,9.25e-05,3e-05,0.0,-0.0,-0.0375,0.12,-3e-05,-3e-05,-6e-05,1742093310.72695
0.00375,0.0,0.1225,1.5e-05,4.5e-05,3e-05,-0.0,-0.0375,0.12,0.0,-1.5e-05,-6e-05,1742093310.8424718
0.00375,0.0,0.1225,-4.5e-05,7.75e-05,4.5e-05,-0.0,-0.0375,0.12,0.0,-3e-05,-4.5e-05,1742093310.952859
0.00375,-0.0,0.1225,-0.0001375,0.0001525,1.5e-05,-0.0,-0.0375,0.12,0.0001225,4.5e-05,-0.000107500004,1742093311.065919
0.00375,0.0,0.1225,-3e-05,3e-05,0.0,-0.0,-0.0375,0.11875,9.25e-05,1.5e-05,-6e-05,1742093311.179841
0.00375,0.0,0.1225,-4.5e-05,0.0001825,3e-05,-0.0,-0.0375,0.12,0.0,0.0,-6e-05,1742093311.292841
0.00375,0.0,0.1225,6e-05,6e-05,-1.5e-05,-0.0,-0.0375,0.12,-0.0001225,-1.5e-05,0.0,1742093311.40582
0.00375,0.0,0.1225,-9.25e-05,0.000245,-3e-05,-0.0,-0.0375,0.11875,9.25e-05,3e-05,-7.75e-05,1742093311.518958
0.00375,-0.0,0.1225,-3e-05,3e-05,4.5e-05,-0.0,-0.0375,0.11875,0.0,0.0,0.0,1742093311.6329799
0.00375,0.0,0.12375,-6e-05,0.000107500004,-1.5e-05,-0.00125,-0.0375,0.12,3e-05,0.0,-7.75e-05,1742093311.746924
0.00375,0.0,0.1225,7.75e-05,9.25e-05,-3e-05,-0.0,-0.0375,0.11875,7.75e-05,-1.5e-05,-6e-05,1742093311.860878
0.00375,0.0,0.12375,-3e-05,0.00016750001,1.5e-05,-0.0,-0.0375,0.12,4.5e-05,1.5e-05,-9.25e-05,1742093311.9738371
0.00375,-0.0,0.1225,-4.5e-05,9.25e-05,1.5e-05,-0.0,-0.0375,0.11875,1.5e-05,-1.5e-05,-3e-05,1742093312.087114
0.00375,0.0,0.12375,7.75e-05,-6e-05,-6e-05,-0.0,-0.0375,0.11875,3e-05,1.5e-05,-6e-05,1742093312.200935
0.00375,0.00125,0.1225,-3e-05,-1.5e-05,-3e-05,-0.0,-0.0375,0.11875,6e-05,3e-05,-9.25e-05,1742093312.315068
0.00375,0.00125,0.1225,-3e-05,0.0,0.0,-0.0,-0.0375,0.11875,-3e-05,3e-05,-6e-05,1742093312.4288871
0.00375,0.0,0.1225,1.5e-05,1.5e-05,4.5e-05,-0.0,-0.0375,0.12,-7.75e-05,-4.5e-05,1.5e-05,1742093312.54175
0.00375,0.0,0.1225,3e-05,3e-05,1.5e-05,-0.0,-0.03875,0.11875,-0.000107500004,-3e-05,-1.5e-05,1742093312.657501
0.00375,0.00125,0.1225,3e-05,4.5e-05,-1.5e-05,-0.00125,-0.0375,0.12,-3e-05,-1.5e-05,-6e-05,1742093312.7688131
0.00375,0.00125,0.1225,7.75e-05,-3e-05,-1.5e-05,-0.00125,-0.0375,0.12,0.000107500004,3e-05,-9.25e-05,1742093312.8819652
0.00375,0.0,0.1225,3e-05,1.5e-05,1.5e-05,-0.00125,-0.0375,0.12,-4.5e-05,-4.5e-05,-4.5e-05,1742093312.998302
0.00375,0.0,0.1225,1.5e-05,-3e-05,3e-05,-0.0,-0.0375,0.12,0.000107500004,-1.5e-05,-3e-05,1742093313.108803
0.00375,0.00125,0.1225,1.5e-05,-3e-05,0.0,-0.0,-0.0375,0.11875,1.5e-05,0.0,1.5e-05,1742093313.22189
0.00375,0.00125,0.12375,0.0,9.25e-05,-9.25e-05,-0.00125,-0.0375,0.11875,4.5e-05,-3e-05,7.75e-05,1742093313.335802
0.00375,0.00125,0.12375,1.5e-05,6e-05,-6e-05,-0.0,-0.0375,0.11875,7.75e-05,1.5e-05,-1.5e-05,1742093313.448988
0.00375,0.00125,0.12375,-1.5e-05,1.5e-05,-0.000107500004,-0.00125,-0.0375,0.12,-4.5e-05,-3e-05,0.0,1742093313.5632079
0.00375,0.0,0.1225,1.5e-05,1.5e-05,-4.5e-05,-0.00125,-0.0375,0.11875,0.0,0.0,9.25e-05,1742093313.678028
0.00375,0.0,0.1225,0.000107500004,-6e-05,-4.5e-05,-0.0,-0.0375,0.11875,-0.0001975,1.5e-05,1.5e-05,1742093313.7911198
0.00375,0.0,0.12375,9.25e-05,-4.5e-05,-6e-05,-0.0,-0.0375,0.12,0.00033500002,0.00032,-0.0001975,1742093313.9048882
0.00375,0.00125,0.1225,0.000107500004,-4.5e-05,-0.000107500004,-0.0,-0.0375,0.12,0.0003975,0.00026,7.75e-05,1742093314.019087
0.00375,0.0,0.1225,7.75e-05,-4.5e-05,-7.75e-05,0.0,-0.0375,0.11875,0.00023,0.0004275,4.5e-05,1742093314.1329
0.00375,0.0,0.1225,4.5e-05,-3e-05,-1.5e-05,0.00125,-0.0375,0.11875,3e-05,0.0001975,6e-05,1742093314.246887
0.00375,0.0,0.1225,0.0,1.5e-05,-6e-05,0.00125,-0.03875,0.11875,-0.0001225,0.000107500004,4.5e-05,1742093314.360794
0.00375,0.0,0.12375,0.0001975,7.75e-05,-9.25e-05,0.00125,-0.03875,0.11875,1.5e-05,7.75e-05,-9.25e-05,1742093314.473786
0.00375,0.0,0.12375,-4.5e-05,7.75e-05,-3e-05,0.00125,-0.03875,0.11875,-0.0001225,0.000107500004,-6e-05,1742093314.5869062
0.00375,0.00125,0.12375,0.0,6e-05,-3e-05,0.00125,-0.03875,0.11875,0.00016750001,0.00026,-7.75e-05,1742093314.700948
0.00375,0.0,0.12375,0.0,0.0,-3e-05,0.00125,-0.03875,0.11875,0.00045750002,0.00058,-0.000107500004,1742093314.814772
0.00375,0.0,0.1225,4.5e-05,-4.5e-05,-9.25e-05,0.00125,-0.03875,0.11875,0.00058,-0.0001525,-0.0001975,1742093314.927917
0.00375,0.00125,0.1225,7.75e-05,1.5e-05,-9.25e-05,0.00125,-0.03875,0.11875,0.000107500004,-6e-05,-0.000107500004,1742093315.0417762
0.00375,0.0,0.1225,1.5e-05,-3e-05,1.5e-05,0.00125,-0.03875,0.11875,-1.5e-05,-7.75e-05,-4.5e-05,1742093315.158155
0.00375,0.0,0.1225,1.5e-05,3e-05,-4.5e-05,0.00125,-0.03875,0.12,-0.0001975,4.5e-05,-3e-05,1742093315.267798
0.00375,0.00125,0.1225,0.0,4.5e-05,-3e-05,0.00125,-0.03875,0.11875,-4.5e-05,-9.25e-05,-1.5e-05,1742093315.3808022
0.00375,0.0,0.1225,-1.5e-05,6e-05,-3e-05,0.00125,-0.03875,0.11875,-4.5e-05,-1.5e-05,-7.75e-05,1742093315.4939241
0.00375,0.0,0.1225,0.0,3e-05,-4.5e-05,0.00125,-0.03875,0.11875,-1.5e-05,-1.5e-05,-9.25e-05,1742093315.6079319
0.00375,0.00125,0.12375,1.5e-05,0.0,-3e-05,0.00125,-0.03875,0.11875,0.0,-7.75e-05,0.0,1742093315.7217898
0.00375,0.00125,0.1225,6e-05,-3e-05,-3e-05,0.00125,-0.03875,0.11875,-7.75e-05,-3e-05,3e-05,1742093315.8349388
0.00375,0.00125,0.1225,7.75e-05,-6e-05,-4.5e-05,0.00125,-0.03875,0.11875,-0.00016750001,-1.5e-05,-6e-05,1742093315.948962
0.00375,0.00125,0.1225,7.75e-05,-6e-05,1.5e-05,0.0,-0.0375,0.11875,-0.0001825,-4.5e-05,1.5e-05,1742093316.0627751
0.00375,0.00125,0.12375,0.0001225,-6e-05,-1.5e-05,0.00125,-0.03875,0.11875,-0.0001375,-0.000107500004,-1.5e-05,1742093316.177928
0.00375,0.00125,0.1225,4.5e-05,0.0,0.0,0.0,-0.03875,0.11875,-7.75e-05,-7.75e-05,-3e-05,1742093316.2907982
0.00375,0.0,0.12375,1.5e-05,0.0,1.5e-05,0.0,-0.0375,0.11875,3e-05,-1.5e-05,-7.75e-05,1742093316.404639
0.00375,0.00125,0.1225,3e-05,-3e-05,-1.5e-05,0.0,-0.03875,0.11875,-9.25e-05,-4.5e-05,-1.5e-05,1742093316.518262
0.00375,0.0,0.1225,7.75e-05,-9.25e-05,-3e-05,0.00125,-0.0375,0.11875,-1.5e-05,-4.5e-05,-3e-05,1742093316.631996
0.00375,0.00125,0.12375,-6e-05,7.75e-05,-3e-05,0.0,-0.03875,0.11875,3e-05,0.0,-6e-05,1742093316.745853
0.00375,0.00125,0.1225,0.000107500004,0.0,0.0,0.0,-0.03875,0.11875,0.000107500004,-3e-05,-6e-05,1742093316.859581
0.00375,0.00125,0.12375,3e-05,9.25e-05,1.5e-05,0.0,-0.03875,0.11875,-1.5e-05,-1.5e-05,1.5e-05,1742093316.973232
0.00375,0.0,0.1225,3e-05,4.5e-05,-1.5e-05,0.0,-0.03875,0.11875,-4.5e-05,-3e-05,-4.5e-05,1742093317.0873358
0.00375,0.0,0.1225,7.75e-05,1.5e-05,-1.5e-05,0.0,-0.03875,0.11875,1.5e-05,1.5e-05,-6e-05,1742093317.201092
0.00375,0.0,0.1225,1.5e-05,4.5e-05,0.0,0.0,-0.03875,0.11875,1.5e-05,-1.5e-05,-1.5e-05,1742093317.315219
0.00375,0.0,0.1225,-3e-05,9.25e-05,0.0,-0.0,-0.0375,0.11875,-4.5e-05,-3e-05,-6e-05,1742093317.4295099
0.00375,0.0,0.1225,0.0001375,1.5e-05,-6e-05,0.0,-0.03875,0.11875,-1.5e-05,-4.5e-05,-4.5e-05,1742093317.543295
0.00375,-0.0,0.1225,1.5e-05,0.000107500004,-4.5e-05,0.0,-0.03875,0.11875,-1.5e-05,-1.5e-05,-3e-05,1742093317.658043
0.00375,0.0,0.1225,4.5e-05,6e-05,-7.75e-05,0.0,-0.03875,0.11875,-6e-05,-1.5e-05,-0.0001225,1742093317.7712882
0.00375,-0.0,0.1225,0.00016750001,-6e-05,-0.000107500004,0.0,-0.0375,0.12,-1.5e-05,-3e-05,-4.5e-05,1742093317.885309
0.00375,0.0,0.12375,0.000305,1.5e-05,-0.000107500004,0.0,-0.03875,0.11875,-6e-05,3e-05,-1.5e-05,1742093317.999222
0.00375,-0.0,0.12375,0.000107500004,-6e-05,-6e-05,0.0,-0.0375,0.12,6e-05,-4.5e-05,-0.000245,1742093318.113206
0.0025,-0.0,0.12375,0.0,1.5e-05,-4.5e-05,0.0,-0.03875,0.11875,-0.0001975,-3e-05,1.5e-05,1742093318.227199
0.00375,-0.0,0.12375,-3e-05,1.5e-05,-9.25e-05,0.0,-0.0375,0.11875,4.5e-05,-4.5e-05,-0.000107500004,1742093318.3411698
0.00375,0.0,0.1225,-4.5e-05,4.5e-05,-3e-05,0.0,-0.0375,0.11875,-0.000107500004,-4.5e-05,4.5e-05,1742093318.4577138
0.00375,0.0,0.1225,0.0,0.0,-7.75e-05,0.0,-0.0375,0.12,-1.5e-05,-3e-05,-0.000107500004,1742093318.569238
0.00375,0.0,0.1225,4.5e-05,-3e-05,-3e-05,0.0,-0.0375,0.11875,-4.5e-05,-6e-05,1.5e-05,1742093318.683129
0.00375,-0.0,0.1225,6e-05,0.0,-1.5e-05,0.0,-0.0375,0.12,-0.0001225,-6e-05,1.5e-05,1742093318.7975109
0.00375,0.0,0.1225,-4.5e-05,4.5e-05,-3e-05,-0.0,-0.0375,0.12,6e-05,1.5e-05,-0.0001375,1742093318.911127
0.00375,0.0,0.12375,4.5e-05,-6e-05,3e-05,0.0,-0.03875,0.11875,3e-05,-4.5e-05,-1.5e-05,1742093319.02513
0.00375,0.0,0.1225,-0.000107500004,9.25e-05,-1.5e-05,0.0,-0.0375,0.11875,-1.5e-05,-3e-05,-1.5e-05,1742093319.139324
0.00375,0.0,0.1225,-4.5e-05,3e-05,-1.5e-05,0.0,-0.03875,0.11875,1.5e-05,-3e-05,-4.5e-05,1742093319.253119
0.00375,0.0,0.1225,1.5e-05,1.5e-05,-1.5e-05,0.0,-0.03875,0.11875,-9.25e-05,-6e-05,-3e-05,1742093319.3671849
0.00375,0.0,0.1225,7.75e-05,0.0,-1.5e-05,0.0,-0.0375,0.11875,-4.5e-05,-1.5e-05,-6e-05,1742093319.481236
0.00375,0.00125,0.1225,7.75e-05,-1.5e-05,-3e-05,0.0,-0.03875,0.11875,1.5e-05,9.25e-05,-4.5e-05,1742093319.5978932
0.00375,0.0,0.1225,6e-05,0.0,-1.5e-05,-0.0,-0.0375,0.12,-4.5e-05,-3e-05,6e-05,1742093319.7082481
0.00375,0.00125,0.1225,1.5e-05,1.5e-05,-1.5e-05,0.0,-0.0375,0.11875,9.25e-05,-3e-05,-6e-05,1742093319.822093
0.00375,0.0,0.1225,-1.5e-05,1.5e-05,-1.5e-05,0.0,-0.0375,0.11875,6e-05,-1.5e-05,-4.5e-05,1742093319.93779
0.00375,0.0,0.1225,7.75e-05,0.0,1.5e-05,0.0,-0.03875,0.11875,9.25e-05,4.5e-05,-0.0001225,1742093320.050009
0.00375,0.0,0.1225,4.5e-05,6e-05,-3e-05,0.0,-0.03875,0.11875,3e-05,4.5e-05,-7.75e-05,1742093320.162984
0.00375,0.0,0.1225,0.0001225,-3e-05,-3e-05,0.0,-0.0375,0.12,0.0001525,0.00023,0.0001525,1742093320.27964
0.00375,0.0,0.12375,0.00023,1.5e-05,-6e-05,0.00125,-0.04,0.12125,0.0001825,0.0007025,0.0001825,1742093320.3899121
0.00375,0.00125,0.12375,0.00058,-9.25e-05,-0.0001525,0.0075,-0.06625,0.12875,-0.0007775,0.003235,0.011735,1742093320.503006
0.0025,-0.0,0.12375,0.00064,6e-05,-1.5e-05,0.02375,-0.04125,0.11875,0.0024725,0.0046075,0.0163725,1742093320.6169028
0.0025,-0.00125,0.12375,0.0010675,0.0004425,-0.00061,0.02625,-0.035,0.10625,0.007735,0.0016775,0.0168,1742093320.7298958
0.005,0.00125,0.12375,9.25e-05,0.0011900001,-0.0010975,0.025,-0.03875,0.11,0.0042425,-0.00389,0.013335,1742093320.8430169
0.005,-0.00125,0.1225,0.000107500004,0.0001525,-0.002365,0.02375,-0.04375,0.10625,0.002715,-0.003815,0.0109250005,1742093320.957643
0.0025,-0.005,0.1225,0.000275,-4.5e-05,-0.000885,0.02,-0.03625,0.1175,0.000107500004,-0.00415,0.0068975003,1742093321.070991
0.005,-0.0,0.12375,-0.000305,0.0003975,0.0001225,0.02,-0.04,0.11625,0.0007025,-0.0009625,0.0039675,1742093321.185034
0.0025,-0.0025,0.1225,-9.25e-05,1.5e-05,-0.0004125,0.02,-0.04125,0.1175,0.001755,-0.00229,0.0030675002,1742093321.299712
0.0075,0.00125,0.1225,0.000565,-0.00045750002,0.002715,0.02125,-0.0375,0.12,0.0014500001,0.0001375,0.00032,1742093321.412929
0.00375,-0.0,0.1225,0.0065300004,-0.00415,0.0124975005,0.025,-0.0425,0.1175,0.000275,0.001495,0.0025775002,1742093321.5259361
-0.00375,-0.00625,0.12,0.00064,-0.0048375,0.0104075,0.0275,-0.0425,0.11375,-0.00174,0.0019525,0.0019824998,1742093321.6400309
-0.00875,-0.01125,0.12125,1.5e-05,-0.0065450002,0.00975,0.0275,-0.045,0.11375,0.0010825,0.0024725,0.0029449998,1742093321.753998
-0.00875,-0.005,0.12125,-0.0055225003,-0.00232,0.016265,0.0325,-0.045,0.11125,-0.0010375,0.0012975,0.00473,1742093321.867031
-0.01125,-0.01,0.12125,0.0005025,0.0004275,0.002045,0.0375,-0.04125,0.11,-0.0010075001,0.0013575,0.0007625,1742093321.981005
-0.0125,-0.01875,0.12375,-0.0013275,-0.0032650002,0.013305,0.035,-0.04125,0.11375,0.00079250004,-0.001115,0.002655,1742093322.0975082
-0.01375,-0.0075,0.12125,0.0027925,0.0009775,6e-05,0.0375,-0.04875,0.11625,0.00154,-0.00032,0.00016750001,1742093322.208883
-0.0125,-0.0075,0.12,0.002625,0.00016750001,0.0118725,0.0325,-0.045,0.10625,0.0003825,-0.0019525,0.0010075001,1742093322.3218691
-0.0125,-0.01875,0.12125,-0.00052,0.0024425,-0.0078425,0.03375,-0.04875,0.1075,-0.0009625,0.0029449998,-0.0015575,1742093322.4377909
0.0025,-0.01375,0.12,-0.0063175,0.0019225,-0.01587,0.035,-0.045,0.11875,-0.0007325,0.00055,-0.000855,1742093322.55004
-0.0125,-0.0125,0.1225,0.0010225,0.0,-0.001115,0.0275,-0.0325,0.12,-0.00319,0.002885,-0.0047925,1742093322.6640031
-0.01125,-0.0075,0.1225,-9.25e-05,-9.25e-05,-0.00052,0.03,-0.02625,0.105,-0.0101925,-0.0004725,-0.01474,1742093322.7800782
-0.01125,-0.00875,0.12125,-0.0010075001,-0.00029,-0.000107500004,0.02125,-0.05375,0.1225,-0.00357,0.0019075,-0.0130625,1742093322.892155
-0.01125,-0.005,0.1225,-0.00091500004,6e-05,-0.00026,0.02,-0.0375,0.11,-0.002,-0.0019675,-0.0121925,1742093323.0061362
-0.01125,-0.0075,0.12125,0.0007475,0.000275,-0.00052,0.015,-0.045,0.11625,-0.002075,-0.001115,-0.013412501,1742093323.120147
-0.01,-0.00625,0.1225,0.00032,0.0007475,0.0004275,0.0125,-0.03625,0.1125,-0.0084525,-0.0021825,-0.0187075,1742093323.234165
-0.0075,-0.00875,0.1225,-0.00016750001,0.00061,0.0007475,0.01,-0.0525,0.12125,-0.002105,0.00079250004,-0.014527501,1742093323.348001
-0.00875,-0.00625,0.1225,-0.0001975,0.00052,0.0018625,0.01625,-0.0425,0.12375,-0.0013425,4.5e-05,-0.009185,1742093323.4620428
-0.005,-0.00375,0.1225,-0.0008075,0.0028375,0.0016025,0.0075,-0.04125,0.11375,0.00093,0.002045,-0.0060425,1742093323.578248
-0.00625,-0.005,0.12,0.0021975,0.001755,0.0019525,0.0025,-0.03875,0.12375,-0.00091500004,-0.005065,-0.001145,1742093323.690218
-0.00125,-0.00625,0.12125,0.003845,0.0013575,0.00142,0.00375,-0.0375,0.10875,0.00023,-0.00016750001,-0.000565,1742093323.804033
-0.005,-0.00625,0.12125,0.0018150001,0.0013125,-0.0003975,0.00125,-0.02875,0.1225,0.0019824998,0.0009925,1.5e-05,1742093323.9182458
-0.00125,-0.0225,0.125,0.0020299999,0.0027474998,0.0016925,0.0025,-0.035,0.11875,-0.000305,-0.000245,0.0013275,1742093324.030968
-0.0025,-0.0075,0.12,-0.002045,0.002885,0.0036324998,0.00125,-0.035,0.11875,0.0003825,-0.000275,0.000825,1742093324.145034
0.01,-0.01625,0.11875,-0.001175,0.0016625,-0.00064,0.00125,-0.035,0.12,0.00032,0.0003825,0.0,1742093324.258852
0.005,-0.00875,0.1225,-0.00023,0.0029449998,-0.0018625,0.0025,-0.035,0.12125,-0.000625,0.00026,0.0001525,1742093324.371806
0.0075,-0.0025,0.12375,-0.0054925,0.000885,0.0007175,0.00375,-0.0375,0.12125,0.00016750001,0.00154,0.0010525,1742093324.484725
0.0075,-0.00625,0.12375,0.00113,-6e-05,-0.000365,0.00625,-0.035,0.12125,-0.0001375,0.002335,0.0021525,1742093324.5988102
0.01,-0.00375,0.1225,0.00032,0.00084,-0.0018625,0.01,-0.03375,0.11875,-0.0012975,0.0008075,0.003205,1742093324.711808
0.01,-0.01125,0.12125,0.0013575,0.0008075,-0.0016925,0.01125,-0.035,0.12,-0.0019075,-4.5e-05,0.000655,1742093324.8259041
0.00875,-0.0075,0.12125,0.0030825,-0.00064,0.0001225,0.01125,-0.03375,0.11875,-0.0009775,6e-05,0.00048750002,1742093324.9398122
0.00625,-0.01375,0.12375,0.0021525,-0.001465,-0.0019824998,0.01375,-0.04375,0.11875,0.00618,0.002395,0.0004725,1742093325.054345
0.00625,-0.01,0.12125,-0.0004275,-0.001175,-0.00016750001,0.0125,-0.0325,0.115,-0.0007175,-0.0009625,0.0032950002,1742093325.16692
0.005,-0.0175,0.12375,-1.5e-05,-0.0001525,-0.000365,0.01125,-0.03875,0.12625,0.0003825,-0.00058,-0.0028074998,1742093325.280961
0.005,-0.0125,0.1225,0.00058,0.0001375,-7.75e-05,0.0125,-0.03875,0.115,-0.00052,0.0010075001,-0.001405,1742093325.398603
0.005,-0.0125,0.12125,-0.0003825,-0.0005025,0.00033500002,0.01375,-0.03625,0.11875,0.0004275,0.000365,0.000305,1742093325.508745
0.0025,-0.01375,0.1225,0.00174,-0.00177,-0.000245,0.0125,-0.03625,0.11875,-0.00055,-0.00029,0.00033500002,1742093325.621939
0.0025,-0.01625,0.12125,0.000275,0.000245,-0.00029,0.0125,-0.03625,0.11875,0.0001225,-0.00026,-0.0001525,1742093325.7386339
0.0025,-0.01625,0.1225,0.00035,0.00045750002,0.0001975,0.0125,-0.0375,0.11875,7.75e-05,0.0001975,-0.00016750001,1742093325.849849
0.0025,-0.01625,0.1225,-0.0001825,0.00059500005,0.000305,0.01375,-0.0375,0.11875,0.0007175,0.00045750002,-0.000305,1742093325.963845
0.0025,-0.015,0.12125,-0.000945,0.0007475,0.0004425,0.01375,-0.0375,0.11875,0.00023,0.000245,-0.0001825,1742093326.0778198
0.00375,-0.015,0.1225,-0.0006725,0.00029,0.000245,0.01375,-0.0375,0.11875,0.000107500004,-7.75e-05,-0.0001825,1742093326.1919842
0.005,-0.01625,0.12375,-0.0004275,0.0007025,0.0009,0.01375,-0.0375,0.11875,0.000305,-0.0001225,-0.0001525,1742093326.305954
0.005,-0.01375,0.1225,0.0002125,0.0001825,0.0001225,0.01375,-0.0375,0.11875,-6e-05,-0.0001825,-1.5e-05,1742093326.420038
0.005,-0.01375,0.12125,9.25e-05,0.0001975,-9.25e-05,0.01375,-0.03875,0.11875,3e-05,-0.0001975,-9.25e-05,1742093326.5339851
0.005,-0.01375,0.1225,-7.75e-05,0.0001825,-6e-05,0.01375,-0.03875,0.11875,0.0001975,-9.25e-05,-0.0001525,1742093326.647862
0.005,-0.01375,0.12125,-0.0001525,0.00023,-1.5e-05,0.0125,-0.0375,0.11875,0.000275,-3e-05,-7.75e-05,1742093326.761952
0.00625,-0.015,0.12125,-0.0001825,6e-05,-3e-05,0.01375,-0.0375,0.11875,-0.0001825,-9.25e-05,-4.5e-05,1742093326.878148
0.005,-0.015,0.1225,1.5e-05,-1.5e-05,-0.000107500004,0.01375,-0.0375,0.11875,0.000107500004,-1.5e-05,-6e-05,1742093326.9899468
0.00625,-0.01375,0.1225,-3e-05,-1.5e-05,-3e-05,0.0125,-0.0375,0.11875,9.25e-05,-0.000107500004,7.75e-05,1742093327.103774
0.005,-0.01375,0.1225,-0.0001225,1.5e-05,0.0,0.0125,-0.03875,0.1175,-0.0001375,-9.25e-05,3e-05,1742093327.2179031
0.00625,-0.015,0.1225,-0.0001975,-0.0001825,-0.0001225,0.0125,-0.0375,0.11875,-0.000107500004,-3e-05,-0.0001375,1742093327.331978
0.005,-0.01,0.12125,0.00035,4.5e-05,0.0,0.0125,-0.03875,0.11875,-3e-05,-7.75e-05,-0.0001375,1742093327.4459798
0.00625,-0.0125,0.1225,0.0001225,4.5e-05,0.0,0.0125,-0.0375,0.11875,-4.5e-05,-3e-05,3e-05,1742093327.559886
0.005,-0.01125,0.1225,-0.0001375,3e-05,-0.000107500004,0.0125,-0.0375,0.11875,0.000305,-1.5e-05,-0.00032,1742093327.67388
0.005,-0.0125,0.1225,4.5e-05,4.5e-05,-1.5e-05,0.0125,-0.03875,0.11875,-0.0001225,-9.25e-05,4.5e-05,1742093327.787858
0.005,-0.0125,0.1225,0.0001375,6e-05,0.0,0.0125,-0.0375,0.11875,-6e-05,-6e-05,1.5e-05,1742093327.901877
0.005,-0.0125,0.1225,4.5e-05,1.5e-05,-9.25e-05,0.0125,-0.0375,0.11875,0.00016750001,0.0,-0.00029,1742093328.018021
0.005,-0.0125,0.1225,0.0001975,-1.5e-05,3e-05,0.0125,-0.03875,0.1175,-3e-05,-7.75e-05,-1.5e-05,1742093328.129948
0.005,-0.0125,0.1225,0.0,-0.0002125,-3e-05,0.0125,-0.0375,0.1175,0.0004125,-6e-05,0.0004725,1742093328.243795
0.005,-0.0125,0.1225,7.75e-05,3e-05,-7.75e-05,0.0125,-0.0375,0.11875,0.000655,0.00023,-7.75e-05,1742093328.3577678
0.005,-0.01125,0.1225,0.0,4.5e-05,6e-05,0.0125,-0.03875,0.11875,3e-05,0.0,-3e-05,1742093328.471755
0.005,-0.0125,0.1225,-0.0003825,-0.0001375,1.5e-05,0.0125,-0.03875,0.11875,-0.0001225,-7.75e-05,-1.5e-05,1742093328.58599
0.00375,-0.005,0.12125,0.0001375,-0.0001825,0.00016750001,0.0125,-0.03875,0.1175,0.0001375,-0.0001525,0.0001525,1742093328.699771
0.00375,-0.01,0.1225,-0.0003825,-0.0001525,0.0001375,0.0125,-0.03875,0.11875,-0.000245,-9.25e-05,-3e-05,1742093328.813962
0.005,-0.01,0.1225,0.00016750001,-6e-05,-0.0001225,0.01125,-0.0375,0.11875,-0.000365,-0.000107500004,-0.0001525,1742093328.927841
0.00375,-0.01125,0.1225,4.5e-05,-9.25e-05,-7.75e-05,0.01125,-0.03875,0.11875,-0.00026,-4.5e-05,-0.00016750001,1742093329.0419998
0.00375,-0.01125,0.1225,4.5e-05,-0.0001375,0.00016750001,0.01125,-0.0375,0.11875,-0.00023,-0.0001825,0.0001525,1742093329.1586702
0.00375,-0.01125,0.1225,0.000107500004,-0.000107500004,-9.25e-05,0.01125,-0.0375,0.11875,-0.00016750001,-7.75e-05,-0.0001375,1742093329.2698932
0.00375,-0.01125,0.1225,0.000107500004,0.0,-0.000107500004,0.01125,-0.0375,0.11875,-3e-05,0.0,-0.0001375,1742093329.3838
0.00375,-0.01125,0.1225,0.000107500004,-1.5e-05,-3e-05,0.01125,-0.0375,0.11875,-4.5e-05,-3e-05,3e-05,1742093329.498623
0.00375,-0.01125,0.1225,3e-05,-1.5e-05,-7.75e-05,0.01125,-0.0375,0.11875,6e-05,1.5e-05,-0.0002125,1742093329.6116931
0.00375,-0.01,0.1225,-7.75e-05,-6e-05,4.5e-05,0.01125,-0.0375,0.11875,4.5e-05,-4.5e-05,-3e-05,1742093329.725785
0.00375,-0.01125,0.1225,9.25e-05,3e-05,4.5e-05,0.01125,-0.0375,0.11875,6e-05,-6e-05,9.25e-05,1742093329.8429592
0.00375,-0.01125,0.1225,0.0001225,1.5e-05,-7.75e-05,0.01125,-0.0375,0.11875,1.5e-05,1.5e-05,-0.0001225,1742093329.953669
0.00375,-0.01125,0.1225,0.0,1.5e-05,-4.5e-05,0.01125,-0.0375,0.11875,0.000107500004,0.0,-7.75e-05,1742093330.0666711
0.00375,-0.01125,0.1225,1.5e-05,4.5e-05,-3e-05,0.01125,-0.0375,0.11875,-1.5e-05,0.0,-3e-05,1742093330.1805382
0.00375,-0.01125,0.1225,0.00026,-1.5e-05,-0.0001975,0.01125,-0.0375,0.11875,-0.000107500004,-1.5e-05,0.0,1742093330.2945678
0.00375,-0.01125,0.1225,7.75e-05,3e-05,-3e-05,0.01125,-0.03875,0.11875,0.0,-4.5e-05,1.5e-05,1742093330.4085171
0.00375,-0.01125,0.1225,-4.5e-05,3e-05,-0.000107500004,0.01125,-0.0375,0.11875,-1.5e-05,1.5e-05,-4.5e-05,1742093330.522601
0.00375,-0.01,0.1225,3e-05,-3e-05,-0.000107500004,0.01125,-0.0375,0.11875,-7.75e-05,3e-05,-0.00016750001,1742093330.638928
0.00375,-0.01125,0.1225,-4.5e-05,-1.5e-05,1.5e-05,0.01125,-0.0375,0.11875,0.0,-1.5e-05,6e-05,1742093330.7505898
0.00375,-0.01125,0.1225,4.5e-05,4.5e-05,-1.5e-05,0.01125,-0.0375,0.11875,-4.5e-05,-1.5e-05,-1.5e-05,1742093330.864522
0.00375,-0.01125,0.1225,0.0001525,-3e-05,-0.00016750001,0.01125,-0.0375,0.11875,1.5e-05,3e-05,-0.0001525,1742093330.978763
0.00375,-0.01125,0.1225,4.5e-05,1.5e-05,1.5e-05,0.01125,-0.0375,0.11875,0.0,-6e-05,3e-05,1742093331.0923898
0.00375,-0.01125,0.1225,1.5e-05,1.5e-05,-7.75e-05,0.01125,-0.0375,0.11875,9.25e-05,0.0,-9.25e-05,1742093331.2057412
0.00375,-0.01125,0.1225,7.75e-05,0.0,-0.000107500004,0.01125,-0.0375,0.11875,-3e-05,0.0,-7.75e-05,1742093331.32181
0.00375,-0.01125,0.1225,-6e-05,-3e-05,7.75e-05,0.01125,-0.0375,0.11875,-4.5e-05,-7.75e-05,7.75e-05,1742093331.442872
0.00375,-0.01125,0.1225,-0.0003975,-7.75e-05,-7.75e-05,0.01125,-0.0375,0.11875,-0.0001525,-1.5e-05,-9.25e-05,1742093331.547898
0.00375,-0.01,0.1225,-0.0001225,-0.0001225,-0.00016750001,0.01125,-0.0375,0.11875,-0.00016750001,3e-05,-0.0001825,1742093331.661809
0.0025,-0.01,0.1225,-0.0001375,-4.5e-05,1.5e-05,0.01125,-0.0375,0.11875,-1.5e-05,-3e-05,4.5e-05,1742093331.7758179
0.0025,-0.01,0.1225,-0.00016750001,-0.00029,-1.5e-05,0.01125,-0.0375,0.11875,0.0,0.0,-7.75e-05,1742093331.8898401
0.00375,-0.00875,0.1225,0.00177,-0.00023,-0.000305,0.01125,-0.0375,0.11875,-1.5e-05,4.5e-05,-0.0001975,1742093332.003649
0.0025,-0.01,0.1225,0.0004125,-0.0001975,-6e-05,0.01125,-0.0375,0.11875,-3e-05,-1.5e-05,-1.5e-05,1742093332.1179688
0.0025,-0.01,0.1225,0.0002125,1.5e-05,-0.000107500004,0.01125,-0.0375,0.11875,-4.5e-05,0.0,-6e-05,1742093332.231797
0.0025,-0.01,0.1225,0.00016750001,6e-05,-0.0001375,0.01125,-0.0375,0.11875,-4.5e-05,0.0,-0.000107500004,1742093332.345698
0.0025,-0.01,0.1225,4.5e-05,4.5e-05,4.5e-05,0.01125,-0.0375,0.11875,-1.5e-05,-3e-05,7.75e-05,1742093332.459649
0.0025,-0.01,0.1225,0.0,0.0,-4.5e-05,0.01125,-0.0375,0.11875,0.0,0.0,-0.0001225,1742093332.5735621
0.0025,-0.01,0.1225,7.75e-05,1.5e-05,-7.75e-05,0.01,-0.0375,0.11875,-0.0001375,-1.5e-05,-0.000107500004,1742093332.687787
0.0025,-0.00875,0.1225,7.75e-05,0.000565,0.0009,0.01125,-0.0375,0.11875,-1.5e-05,0.0,6e-05,1742093332.801534
0.0025,-0.00875,0.1225,0.0009,0.00033500002,-4.5e-05,0.01125,-0.0375,0.11875,-6e-05,3e-05,-0.0001975,1742093332.918566
0.0025,-0.01125,0.1225,-0.00045750002,-0.0001225,-1.5e-05,0.01125,-0.0375,0.11875,4.5e-05,3e-05,-0.0001225,1742093333.029608
0.0025,-0.01125,0.1225,-0.0001525,-4.5e-05,3e-05,0.01125,-0.0375,0.11875,3e-05,-1.5e-05,6e-05,1742093333.143578
0.0025,-0.01125,0.1225,4.5e-05,-4.5e-05,-0.0001375,0.01125,-0.0375,0.11875,-1.5e-05,3e-05,-0.0001375,1742093333.259253
0.0025,-0.01,0.1225,0.00016750001,-3e-05,-0.000107500004,0.01125,-0.0375,0.11875,7.75e-05,3e-05,-4.5e-05,1742093333.370604
0.0025,-0.01125,0.1225,4.5e-05,3e-05,0.0,0.01125,-0.0375,0.11875,-1.5e-05,-1.5e-05,6e-05,1742093333.484661
0.0025,-0.01,0.1225,9.25e-05,3e-05,-6e-05,0.01125,-0.03625,0.11875,0.000107500004,4.5e-05,-0.0001525,1742093333.598617
0.0025,-0.01125,0.1225,0.000107500004,3e-05,-6e-05,0.01125,-0.0375,0.11875,4.5e-05,-1.5e-05,-1.5e-05,1742093333.712666
0.0025,-0.01125,0.1225,4.5e-05,-1.5e-05,-3e-05,0.01125,-0.0375,0.11875,1.5e-05,0.0,4.5e-05,1742093333.826468
0.0025,-0.01125,0.1225,-1.5e-05,-1.5e-05,-9.25e-05,0.01125,-0.0375,0.11875,-1.5e-05,4.5e-05,-0.00016750001,1742093333.939687
0.0025,-0.01125,0.1225,0.0,1.5e-05,-1.5e-05,0.01125,-0.0375,0.11875,-1.5e-05,-1.5e-05,4.5e-05,1742093334.053684
0.0025,-0.01,0.1225,-4.5e-05,3e-05,4.5e-05,0.01125,-0.0375,0.11875,0.0001225,-3e-05,3e-05,1742093334.167598
0.0025,-0.01125,0.1225,0.00016750001,-1.5e-05,-0.00016750001,0.01125,-0.0375,0.11875,1.5e-05,3e-05,-0.0001975,1742093334.281628
0.0025,-0.01125,0.1225,0.00016750001,4.5e-05,-6e-05,0.01125,-0.0375,0.11875,-0.000107500004,-4.5e-05,0.0001225,1742093334.3975968
0.0025,-0.01125,0.1225,0.00026,0.0,-0.0001525,0.01125,-0.0375,0.11875,-0.000107500004,0.0,0.0001375,1742093334.5095968
0.00125,-0.01125,0.12375,0.0003975,6e-05,-0.000305,0.01125,-0.03625,0.11875,-4.5e-05,7.75e-05,-0.00023,1742093334.623678
0.0025,-0.01125,0.1225,-1.5e-05,6e-05,-6e-05,0.01125,-0.03625,0.11875,-7.75e-05,0.0,-1.5e-05,1742093334.7384498
0.0025,-0.0125,0.1225,-0.00016750001,-1.5e-05,-4.5e-05,0.01125,-0.0375,0.11875,0.0003975,-0.000107500004,0.0001375,1742093334.851721
0.0025,-0.01125,0.1225,6e-05,-0.000107500004,-0.00023,0.01125,-0.0375,0.1175,0.000825,-4.5e-05,7.75e-05,1742093334.9668212
0.0025,-0.0125,0.1225,0.0,1.5e-05,0.0001225,0.01,-0.03875,0.11875,0.0002125,3e-05,-0.000245,1742093335.079506
0.0025,-0.01125,0.1225,0.0,1.5e-05,-7.75e-05,0.01125,-0.03875,0.11875,0.0001975,3e-05,-3e-05,1742093335.197889
0.0025,-0.01125,0.1225,0.000107500004,-3e-05,-4.5e-05,0.01125,-0.03875,0.11875,3e-05,6e-05,-0.0001975,1742093335.3074582
0.0025,-0.01125,0.1225,-0.0004125,0.0,0.0001375,0.01125,-0.03875,0.11875,0.00029,0.0001375,-0.0006725,1742093335.421526
0.0025,-0.01125,0.1225,-0.0002125,6e-05,-1.5e-05,0.0125,-0.03875,0.11875,0.00029,0.0001975,-0.000535,1742093335.5374432
0.0025,-0.01,0.1225,1.5e-05,-1.5e-05,-0.000107500004,0.01125,-0.03875,0.11875,0.000535,6e-05,-0.00016750001,1742093335.649496
0.0025,-0.01125,0.12375,-0.00064,-0.0001225,-6e-05,0.01125,-0.04125,0.1175,0.00061,-3e-05,-0.000107500004,1742093335.763583
0.0025,-0.01,0.12125,9.25e-05,-0.00045750002,-0.00029,0.01125,-0.04,0.1175,0.0006875,-0.00029,0.000625,1742093335.877693
0.00125,-0.00875,0.1225,0.0002125,-0.0001375,-0.0002125,0.01125,-0.04125,0.1175,0.0006725,-3e-05,-0.00026,1742093335.991735
0.00375,-0.0125,0.12,-0.00093,0.000275,0.00033500002,0.01125,-0.0425,0.1175,0.0004425,3e-05,4.5e-05,1742093336.1053922
0.00125,-0.00875,0.1225,-0.00052,6e-05,-6e-05,0.01125,-0.0425,0.11625,0.0004725,0.0,-0.000305,1742093336.21945
0.0025,-0.01,0.12125,-0.0004725,-7.75e-05,-0.0001825,0.01125,-0.04125,0.1175,0.00055,0.0,-0.00026,1742093336.3335512
0.00125,-0.0075,0.1225,-0.00059500005,0.0001225,-4.5e-05,0.01125,-0.0425,0.1175,0.00032,1.5e-05,-0.00023,1742093336.4474728
0.00125,-0.00875,0.1225,-0.0001525,-4.5e-05,-0.0002125,0.01125,-0.0425,0.1175,0.0004725,0.0001975,-0.0005025,1742093336.5615392
0.0025,-0.0075,0.1225,1.5e-05,-7.75e-05,-6e-05,0.01125,-0.04375,0.11625,0.00016750001,0.0001825,-0.0002125,1742093336.6776571
0.00125,-0.0075,0.1225,0.0,-0.0001525,0.000107500004,0.01125,-0.04375,0.11625,-9.25e-05,-0.000107500004,0.00023,1742093336.7893581
0.00125,-0.00875,0.1225,0.000107500004,-0.000655,-3e-05,0.01125,-0.04375,0.11625,3e-05,1.5e-05,-0.0001225,1742093336.903476
0.0,-0.00375,0.12375,-0.000245,-4.5e-05,0.00016750001,0.01125,-0.04375,0.11625,-1.5e-05,6e-05,-0.0001825,1742093337.017447
0.00125,-0.0075,0.1225,-6e-05,4.5e-05,-0.0001375,0.01125,-0.04375,0.11625,1.5e-05,-7.75e-05,6e-05,1742093337.131447
0.00125,-0.0075,0.1225,0.000565,-0.0001225,-0.00026,0.01125,-0.04375,0.11625,-0.00029,1.5e-05,-0.000107500004,1742093337.245462
-0.0,-0.00625,0.12375,0.000535,-0.00016750001,-0.0001525,0.01125,-0.0425,0.11625,-0.0001525,4.5e-05,-0.00029,1742093337.35955
0.0025,-0.01,0.12125,0.00048750002,-9.25e-05,-4.5e-05,0.01125,-0.04375,0.11625,-0.0001225,7.75e-05,-0.000107500004,1742093337.473451
0.00125,-0.0075,0.1225,0.00055,0.00023,0.0,0.01125,-0.04375,0.11625,-0.00029,0.0,0.000107500004,1742093337.587276
0.00125,-0.0075,0.1225,0.00032,0.000565,-1.5e-05,0.01125,-0.04125,0.11625,-0.00026,-0.00016750001,0.000275,1742093337.700362
0.00125,-0.00875,0.1225,0.0001525,0.0004125,7.75e-05,0.01125,-0.04125,0.1175,0.00048750002,3e-05,-0.0001975,1742093337.814209
0.00125,-0.00875,0.1225,0.000245,7.75e-05,-0.000107500004,0.01,-0.0425,0.11625,0.0002125,-6e-05,-0.00023,1742093337.927543
0.00125,-0.00875,0.12375,0.000107500004,0.0,-6e-05,0.01375,-0.04625,0.115,0.0015875,0.0,-0.0007175,1742093338.041674
0.00125,-0.00875,0.1225,6e-05,9.25e-05,4.5e-05,0.01,-0.04625,0.115,0.0002125,6e-05,0.0,1742093338.157542
0.00125,-0.00875,0.1225,0.0001225,0.000107500004,1.5e-05,0.01,-0.0475,0.115,0.00026,-0.000107500004,0.0001825,1742093338.268449
0.00125,-0.0075,0.1225,-0.000107500004,6e-05,1.5e-05,0.01125,-0.0475,0.115,0.000107500004,9.25e-05,-0.000275,1742093338.3824031
0.00125,-0.00875,0.1225,-1.5e-05,0.0,-3e-05,0.01125,-0.04875,0.115,-3e-05,0.00016750001,-9.25e-05,1742093338.497817
0.00125,-0.00875,0.1225,0.0001825,-0.0001525,-0.000107500004,0.01,-0.0475,0.115,0.0001975,0.00016750001,-6e-05,1742093338.6104589
0.00125,-0.0075,0.1225,-7.75e-05,1.5e-05,1.5e-05,0.01125,-0.0475,0.115,0.00058,0.00023,-0.00026,1742093338.724413
0.00125,-0.00875,0.1225,-7.75e-05,-3e-05,0.0,0.01125,-0.0475,0.115,0.000107500004,0.0003825,-4.5e-05,1742093338.841451
0.00125,-0.0075,0.1225,0.000107500004,-7.75e-05,-0.0001225,0.01125,-0.0475,0.115,0.00023,0.00061,-4.5e-05,1742093338.95245
0.00125,-0.0075,0.1225,-0.0001225,1.5e-05,0.0,0.01125,-0.04875,0.115,-0.0001525,0.0002125,7.75e-05,1742093339.0664499
0.00125,-0.0075,0.1225,6e-05,-3e-05,-3e-05,0.0125,-0.04875,0.115,-1.5e-05,0.000245,1.5e-05,1742093339.180338
0.00125,-0.00875,0.1225,0.0,1.5e-05,0.0,0.0125,-0.0475,0.115,-9.25e-05,-4.5e-05,9.25e-05,1742093339.294514
0.00125,-0.0075,0.1225,0.000107500004,-3e-05,0.0,0.0125,-0.04875,0.115,-0.0001975,-0.0001975,9.25e-05,1742093339.408443
0.00125,-0.00875,0.1225,0.0,-1.5e-05,-4.5e-05,0.0125,-0.0475,0.115,-0.0003825,1.5e-05,-0.00016750001,1742093339.522461
0.00125,-0.0075,0.1225,1.5e-05,-6e-05,-9.25e-05,0.0125,-0.0475,0.115,-0.000275,9.25e-05,-0.0001975,1742093339.6375282
0.00125,-0.00875,0.1225,1.5e-05,-6e-05,-4.5e-05,0.0125,-0.04625,0.115,-0.000107500004,-3e-05,-4.5e-05,1742093339.750505
0.00125,-0.00875,0.1225,-9.25e-05,1.5e-05,4.5e-05,0.0125,-0.04625,0.115,-0.00016750001,-6e-05,0.0001225,1742093339.864457
0.00125,-0.00875,0.1225,-4.5e-05,4.5e-05,-6e-05,0.0125,-0.0475,0.115,9.25e-05,-1.5e-05,-3e-05,1742093339.978455
0.00125,-0.00875,0.1225,0.0,1.5e-05,0.0,0.01125,-0.04625,0.115,3e-05,-4.5e-05,3e-05,1742093340.092417
0.00125,-0.00875,0.1225,-4.5e-05,1.5e-05,-4.5e-05,0.0125,-0.0475,0.115,1.5e-05,-1.5e-05,0.0,1742093340.206378
0.00125,-0.00875,0.1225,1.5e-05,1.5e-05,-6e-05,0.0125,-0.0475,0.115,-1.5e-05,1.5e-05,-0.0001225,1742093340.320847
0.00125,-0.00875,0.1225,0.00016750001,-1.5e-05,-0.0001225,0.0125,-0.04625,0.115,-0.0001225,1.5e-05,-3e-05,1742093340.4351628
0.00125,-0.00875,0.1225,9.25e-05,1.5e-05,-6e-05,0.0125,-0.0475,0.115,-0.000107500004,4.5e-05,-6e-05,1742093340.548488
0.00125,-0.0075,0.1225,4.5e-05,-1.5e-05,-1.5e-05,0.0125,-0.04625,0.11625,-0.0001525,-1.5e-05,0.0,1742093340.662452
0.00125,-0.0075,0.1225,0.0,0.0,0.0,0.0125,-0.04625,0.115,-7.75e-05,0.0,-6e-05,1742093340.7793899
0.00125,-0.0075,0.1225,0.0,1.5e-05,1.5e-05,0.0125,-0.04625,0.115,-0.000107500004,4.5e-05,-4.5e-05,1742093340.890501
0.00125,-0.0075,0.1225,-0.0001375,3e-05,-3e-05,0.0125,-0.04625,0.115,-1.5e-05,1.5e-05,-3e-05,1742093341.004364
0.00125,-0.0075,0.1225,-3e-05,1.5e-05,-3e-05,0.0125,-0.04625,0.115,1.5e-05,-1.5e-05,7.75e-05,1742093341.118397
0.00125,-0.0075,0.1225,-4.5e-05,7.75e-05,1.5e-05,0.0125,-0.04625,0.115,0.0001225,-3e-05,-4.5e-05,1742093341.232382
0.00125,-0.0075,0.1225,-1.5e-05,6e-05,1.5e-05,0.0125,-0.04625,0.1175,-0.0010375,-0.0001225,-0.00026,1742093341.346434
0.00125,-0.0075,0.1225,-4.5e-05,3e-05,1.5e-05,0.0125,-0.0475,0.115,-0.000625,-0.00032,-0.000565,1742093341.460429
0.00125,-0.0075,0.12375,-4.5e-05,6e-05,3e-05,0.01,-0.04625,0.1175,-0.0019075,-0.0014500001,-1.5e-05,1742093341.577555
0.00125,-0.0075,0.1225,6e-05,4.5e-05,-7.75e-05,0.01,-0.045,0.1175,-0.00033500002,9.25e-05,-9.25e-05,1742093341.688391
0.00125,-0.0075,0.1225,1.5e-05,0.0,-7.75e-05,0.01125,-0.045,0.11625,7.75e-05,6e-05,-0.00016750001,1742093341.802272
0.00125,-0.0075,0.1225,0.000107500004,0.0,-4.5e-05,0.01,-0.04375,0.11625,0.0001375,-1.5e-05,0.0,1742093341.9170449
0.00125,-0.0075,0.1225,-0.0001375,4.5e-05,6e-05,0.01,-0.045,0.11625,3e-05,-4.5e-05,-6e-05,1742093342.028366
0.00125,-0.0075,0.1225,3e-05,3e-05,-9.25e-05,0.01,-0.045,0.11625,-0.00016750001,-1.5e-05,-7.75e-05,1742093342.1424441
0.00125,-0.0075,0.1225,7.75e-05,-1.5e-05,-6e-05,0.01,-0.045,0.11625,1.5e-05,-9.25e-05,-7.75e-05,1742093342.2578619
0.00125,-0.0075,0.1225,4.5e-05,1.5e-05,-4.5e-05,0.01,-0.045,0.11625,-0.0001525,-7.75e-05,-3e-05,1742093342.370482
0.00125,-0.0075,0.1225,4.5e-05,1.5e-05,-4.5e-05,0.01,-0.04375,0.11625,-3e-05,-1.5e-05,-6e-05,1742093342.484381
0.00125,-0.0075,0.1225,9.25e-05,1.5e-05,-7.75e-05,0.01,-0.04375,0.11625,6e-05,0.0,-0.0001375,1742093342.598256
0.00125,-0.0075,0.1225,4.5e-05,0.0,-4.5e-05,0.01,-0.04375,0.11625,-0.000107500004,-4.5e-05,1.5e-05,1742093342.7123709
0.00125,-0.0075,0.1225,1.5e-05,1.5e-05,-3e-05,0.01,-0.045,0.11625,-0.000107500004,-1.5e-05,-9.25e-05,1742093342.826454
0.00125,-0.0075,0.1225,3e-05,1.5e-05,-1.5e-05,0.01,-0.045,0.11625,-3e-05,1.5e-05,-7.75e-05,1742093342.9403589
0.00125,-0.0075,0.1225,-4.5e-05,0.0,0.0,0.01,-0.04375,0.11625,0.0001375,0.0,-6e-05,1742093343.054948
0.00125,-0.00875,0.1225,4.5e-05,6e-05,-3e-05,0.01,-0.04375,0.11625,0.0001225,-1.5e-05,-4.5e-05,1742093343.1673322
0.00125,-0.0075,0.1225,7.75e-05,6e-05,-1.5e-05,0.01,-0.045,0.11625,0.0,0.0,-7.75e-05,1742093343.28127
0.00125,-0.0075,0.1225,-1.5e-05,3e-05,-4.5e-05,0.01,-0.04375,0.11625,6e-05,0.0,-0.000107500004,1742093343.3945432
0.00125,-0.0075,0.1225,3e-05,1.5e-05,-3e-05,0.01,-0.045,0.11625,-6e-05,1.5e-05,-6e-05,1742093343.508436
0.00125,-0.0075,0.1225,1.5e-05,3e-05,-6e-05,0.01,-0.045,0.11625,3e-05,0.0,-4.5e-05,1742093343.622262
0.00125,-0.0075,0.1225,7.75e-05,1.5e-05,-3e-05,0.01,-0.04375,0.11625,0.0001225,-3e-05,0.0,1742093343.738039
0.00125,-0.0075,0.1225,0.0001225,6e-05,-1.5e-05,0.01,-0.045,0.11625,0.0001525,-1.5e-05,-4.5e-05,1742093343.8503308
0.00125,-0.0075,0.1225,0.000107500004,3e-05,-4.5e-05,0.01,-0.04375,0.11625,3e-05,-1.5e-05,-6e-05,1742093343.9643142
0.00125,-0.00875,0.1225,1.5e-05,6e-05,-1.5e-05,0.01,-0.045,0.11625,-9.25e-05,-0.0001525,7.75e-05,1742093344.078339
0.00125,-0.0075,0.1225,0.000107500004,4.5e-05,-6e-05,0.01,-0.04375,0.11625,-3e-05,-1.5e-05,-6e-05,1742093344.192492
0.00125,-0.0075,0.1225,3e-05,0.0,-6e-05,0.01,-0.04375,0.11625,-1.5e-05,0.0,-3e-05,1742093344.306314
0.00125,-0.0075,0.1225,1.5e-05,-3e-05,-4.5e-05,0.01,-0.045,0.11625,-1.5e-05,-3e-05,-1.5e-05,1742093344.420351
0.00125,-0.0075,0.1225,-0.0001975,1.5e-05,3e-05,0.01,-0.04375,0.11625,0.0001225,0.0,-0.000107500004,1742093344.534136
0.00125,-0.0075,0.1225,-1.5e-05,3e-05,1.5e-05,0.01,-0.045,0.11625,-1.5e-05,-1.5e-05,-6e-05,1742093344.647325
0.00125,-0.0075,0.1225,0.000107500004,1.5e-05,-9.25e-05,0.01,-0.04375,0.11625,-0.0001225,-1.5e-05,1.5e-05,1742093344.7612631
0.00125,-0.0075,0.1225,0.0001225,3e-05,-9.25e-05,0.01,-0.045,0.11625,-4.5e-05,1.5e-05,-3e-05,1742093344.877617
0.00125,-0.0075,0.1225,7.75e-05,6e-05,-6e-05,0.01,-0.045,0.11625,-0.00016750001,1.5e-05,-3e-05,1742093344.989307
0.00125,-0.0075,0.12375,0.0001825,1.5e-05,-6e-05,0.01,-0.04375,0.11625,-0.00023,0.0,-1.5e-05,1742093345.1032472
0.00125,-0.0075,0.12375,7.75e-05,0.0,-0.0001225,0.01,-0.045,0.11625,-7.75e-05,6e-05,-0.000107500004,1742093345.2174551
0.0,-0.00625,0.1225,-0.00016750001,0.0,0.0,0.01,-0.04375,0.11625,-1.5e-05,-7.75e-05,9.25e-05,1742093345.331302
0.00125,-0.00625,0.1225,-4.5e-05,3e-05,-1.5e-05,0.01,-0.045,0.11625,0.0,1.5e-05,-1.5e-05,1742093345.445142
0.00125,-0.0075,0.1225,6e-05,3e-05,-3e-05,0.01,-0.045,0.11625,-0.0001225,3e-05,-6e-05,1742093345.558265
0.00125,-0.0075,0.1225,3e-05,3e-05,-6e-05,0.01,-0.04375,0.11625,0.0,1.5e-05,-0.0001225,1742093345.672141
0.00125,-0.0075,0.1225,1.5e-05,0.0,-3e-05,0.01,-0.045,0.11625,4.5e-05,0.0,-7.75e-05,1742093345.786135
0.00125,-0.0075,0.1225,3e-05,0.0,-3e-05,0.01,-0.04375,0.11625,6e-05,0.0,-6e-05,1742093345.9000819
0.00125,-0.0075,0.1225,-7.75e-05,3e-05,-3e-05,0.01,-0.045,0.11625,3e-05,-3e-05,1.5e-05,1742093346.016937
0.00125,-0.0075,0.12375,3e-05,0.0,-1.5e-05,0.01,-0.04375,0.11625,6e-05,-1.5e-05,-6e-05,1742093346.1283069
0.00125,-0.0075,0.1225,4.5e-05,1.5e-05,-4.5e-05,0.01,-0.045,0.11625,0.0001975,-1.5e-05,-3e-05,1742093346.242274
0.00125,-0.0075,0.1225,0.0,0.0,-6e-05,0.01,-0.04375,0.11625,7.75e-05,-1.5e-05,-7.75e-05,1742093346.3567932
0.00125,-0.0075,0.1225,-3e-05,0.0,0.0,0.01,-0.045,0.11625,-1.5e-05,-3e-05,-3e-05,1742093346.470357
0.00125,-0.0075,0.1225,-3e-05,1.5e-05,0.0,0.01,-0.045,0.11625,7.75e-05,0.0,-9.25e-05,1742093346.5841029
0.00125,-0.0075,0.1225,1.5e-05,0.0,-4.5e-05,0.01,-0.04375,0.11625,4.5e-05,-1.5e-05,-9.25e-05,1742093346.698272
0.00125,-0.0075,0.1225,6e-05,0.0,-6e-05,0.01,-0.045,0.11625,7.75e-05,-4.5e-05,-3e-05,1742093346.812272
0.00125,-0.0075,0.1225,1.5e-05,1.5e-05,-7.75e-05,0.01,-0.04375,0.11625,1.5e-05,0.0,-3e-05,1742093346.926275
0.00125,-0.0075,0.1225,1.5e-05,1.5e-05,-3e-05,0.01,-0.045,0.11625,-3e-05,0.0,-7.75e-05,1742093347.040288
0.00125,-0.0075,0.1225,6e-05,0.0,-6e-05,0.01,-0.045,0.11625,-3e-05,-6e-05,-1.5e-05,1742093347.157448
0.00125,-0.0075,0.1225,1.5e-05,1.5e-05,-3e-05,0.01,-0.045,0.11625,-3e-05,-3e-05,-4.5e-05,1742093347.268363
0.00125,-0.0075,0.1225,3e-05,0.0,-6e-05,0.01,-0.045,0.11625,0.000107500004,-3e-05,0.0,1742093347.382179
0.00125,-0.0075,0.1225,-1.5e-05,4.5e-05,-4.5e-05,0.01,-0.045,0.11625,9.25e-05,0.0,1.5e-05,1742093347.497345
0.00125,-0.0075,0.1225,-3e-05,0.0,1.5e-05,0.01,-0.04375,0.11625,9.25e-05,-1.5e-05,-1.5e-05,1742093347.609153
0.00125,-0.0075,0.1225,0.0,1.5e-05,-3e-05,0.01,-0.045,0.11625,3e-05,1.5e-05,-3e-05,1742093347.723089
0.00125,-0.0075,0.1225,0.0001375,-3e-05,-7.75e-05,0.01,-0.04375,0.11625,-1.5e-05,0.0,0.0,1742093347.8372018
0.0,-0.0075,0.1225,-4.5e-05,-4.5e-05,-3e-05,0.01,-0.045,0.11625,-3e-05,-7.75e-05,1.5e-05,1742093347.951317
0.0,-0.0075,0.1225,3e-05,0.0,-6e-05,0.00875,-0.04375,0.11625,0.0,-9.25e-05,0.0,1742093348.065124
0.0,-0.0075,0.1225,7.75e-05,-7.75e-05,-9.25e-05,0.01,-0.045,0.11625,-0.0001225,-3e-05,1.5e-05,1742093348.1791968
0.0,-0.00625,0.12375,9.25e-05,-7.75e-05,-9.25e-05,0.01,-0.045,0.11625,4.5e-05,-0.00016750001,0.000107500004,1742093348.293314
0.0,-0.00625,0.1225,-6e-05,-4.5e-05,-4.5e-05,0.01,-0.04375,0.11625,-1.5e-05,-0.00016750001,0.0,1742093348.407416
0.0,-0.0075,0.1225,-1.5e-05,-3e-05,-1.5e-05,0.00875,-0.04375,0.11625,-0.0001225,-0.0001225,6e-05,1742093348.5213451
0.0,-0.00625,0.1225,4.5e-05,0.0,-7.75e-05,0.00875,-0.04375,0.11625,1.5e-05,-3e-05,0.0,1742093348.637762
0.0,-0.00625,0.1225,-1.5e-05,1.5e-05,-1.5e-05,0.00875,-0.04375,0.11625,-0.0001375,-3e-05,-3e-05,1742093348.749109
0.0,-0.00625,0.1225,4.5e-05,-1.5e-05,-4.5e-05,0.00875,-0.04375,0.11625,1.5e-05,-3e-05,-4.5e-05,1742093348.863174
0.0,-0.00625,0.1225,-3e-05,1.5e-05,-3e-05,0.00875,-0.045,0.11625,-9.25e-05,3e-05,-0.000107500004,1742093348.977997
0.0,-0.00625,0.1225,6e-05,0.0,-6e-05,0.00875,-0.04375,0.11625,-4.5e-05,1.5e-05,0.0,1742093349.091131
0.0,-0.0075,0.12375,0.0002125,0.0,-0.000107500004,0.00875,-0.04375,0.11625,7.75e-05,0.0,-7.75e-05,1742093349.205024
0.0,-0.0075,0.1225,9.25e-05,0.0,-6e-05,0.00875,-0.045,0.11625,-3e-05,-1.5e-05,1.5e-05,1742093349.3209422
0.0,-0.0075,0.1225,3e-05,3e-05,-4.5e-05,0.00875,-0.04375,0.11625,3e-05,1.5e-05,-0.000107500004,1742093349.433057
0.0,-0.0075,0.1225,0.0,4.5e-05,-4.5e-05,0.00875,-0.04375,0.11625,-9.25e-05,-1.5e-05,-4.5e-05,1742093349.547032
0.0,-0.0075,0.1225,0.0001525,1.5e-05,-7.75e-05,0.00875,-0.045,0.11625,-9.25e-05,1.5e-05,-3e-05,1742093349.6610959
0.0,-0.00625,0.1225,3e-05,6e-05,-1.5e-05,0.00875,-0.04375,0.11625,-1.5e-05,3e-05,-0.0001825,1742093349.775123
0.0,-0.0075,0.1225,1.5e-05,4.5e-05,-1.5e-05,0.00875,-0.04375,0.11625,-0.00016750001,0.0,-1.5e-05,1742093349.889133
0.00125,-0.00625,0.1225,6e-05,3e-05,-6e-05,0.00875,-0.04375,0.11625,-7.75e-05,3e-05,-6e-05,1742093350.0031328
0.0,-0.00625,0.1225,3e-05,4.5e-05,-4.5e-05,0.00875,-0.04375,0.11625,-0.0001225,4.5e-05,-0.0001225,1742093350.1171288
0.0,-0.0075,0.1225,0.000107500004,1.5e-05,-6e-05,0.00875,-0.04375,0.11625,-1.5e-05,0.0,-4.5e-05,1742093350.231052
0.0,-0.00625,0.1225,3e-05,6e-05,-0.0001225,0.00875,-0.04375,0.11625,7.75e-05,0.0,-0.000107500004,1742093350.345134
0.0,-0.0075,0.1225,1.5e-05,-3e-05,-0.0001525,0.01,-0.045,0.11625,0.0001825,-1.5e-05,-0.000107500004,1742093350.459121
0.0,-0.00625,0.1225,3e-05,-1.5e-05,-4.5e-05,0.00875,-0.045,0.11625,0.0001225,-7.75e-05,0.0001375,1742093350.57312
0.0,-0.00625,0.1225,-0.000107500004,0.00032,-4.5e-05,0.00875,-0.04375,0.11625,0.0,-9.25e-05,0.0001225,1742093350.687249
0.0,-0.0075,0.12375,0.0001975,0.0001375,-0.000107500004,0.00875,-0.04375,0.11625,4.5e-05,4.5e-05,-0.0001225,1742093350.801131
0.0,-0.0075,0.1225,6e-05,3e-05,0.0,0.00875,-0.045,0.11625,-4.5e-05,1.5e-05,0.0,1742093350.917366
0.00125,-0.0075,0.1225,1.5e-05,1.5e-05,-3e-05,0.00875,-0.04375,0.11625,-3e-05,3e-05,-6e-05,1742093351.0291169
0.00125,-0.0075,0.1225,-3e-05,0.0,1.5e-05,0.00875,-0.04375,0.11625,-4.5e-05,0.0,-4.5e-05,1742093351.14315
0.00125,-0.00625,0.1225,-9.25e-05,7.75e-05,1.5e-05,0.00875,-0.04375,0.1175,0.0001825,0.0,-7.75e-05,1742093351.258626
0.00125,-0.0075,0.1225,0.0001225,3e-05,-6e-05,0.00875,-0.045,0.11625,1.5e-05,0.0,-9.25e-05,1742093351.371097
0.00125,-0.0075,0.1225,4.5e-05,1.5e-05,0.0,0.00875,-0.04375,0.11625,-0.000107500004,-3e-05,4.5e-05,1742093351.485025
0.00125,-0.0075,0.12375,0.000245,-1.5e-05,-4.5e-05,0.00875,-0.04375,0.11625,-0.000107500004,1.5e-05,-1.5e-05,1742093351.5991411
0.00125,-0.00625,0.1225,-7.75e-05,-1.5e-05,-0.0001225,0.00875,-0.04375,0.11625,-3e-05,3e-05,-3e-05,1742093351.7132092
0.0,-0.00625,0.1225,4.5e-05,0.0,-7.75e-05,0.00875,-0.04375,0.11625,-9.25e-05,3e-05,-1.5e-05,1742093351.826915
0.0,-0.00625,0.1225,-6e-05,-1.5e-05,-1.5e-05,0.00875,-0.045,0.11625,-0.00016750001,4.5e-05,-0.0001225,1742093351.941132
0.0,-0.00625,0.1225,3e-05,0.0,-4.5e-05,0.00875,-0.04375,0.1175,-9.25e-05,0.0,-3e-05,1742093352.0575502
0.00125,-0.0075,0.1225,9.25e-05,0.0,0.0,0.00875,-0.045,0.11625,-3e-05,0.0,-1.5e-05,1742093352.168886
0.0,-0.00625,0.1225,4.5e-05,1.5e-05,0.0,0.00875,-0.045,0.11625,-0.000107500004,3e-05,-1.5e-05,1742093352.281824
0.00125,-0.00625,0.1225,4.5e-05,1.5e-05,-7.75e-05,0.00875,-0.04375,0.11625,1.5e-05,7.75e-05,-0.000107500004,1742093352.397564
0.00125,-0.0075,0.1225,4.5e-05,3e-05,-1.5e-05,0.00875,-0.04375,0.11625,-6e-05,0.0,1.5e-05,1742093352.50893
0.00125,-0.0075,0.1225,4.5e-05,1.5e-05,0.0,0.00875,-0.04375,0.11625,0.000107500004,-3e-05,1.5e-05,1742093352.622804
0.00125,-0.0075,0.1225,4.5e-05,3e-05,0.0,0.00875,-0.045,0.11625,0.00023,0.0,-9.25e-05,1742093352.7374861
0.00125,-0.0075,0.12375,-4.5e-05,1.5e-05,6e-05,0.00875,-0.04375,0.11625,9.25e-05,-3e-05,-6e-05,1742093352.8490229
0.00125,-0.00625,0.1225,0.0,4.5e-05,4.5e-05,0.00875,-0.045,0.11625,-1.5e-05,-1.5e-05,0.0,1742093352.9629922
0.00125,-0.00625,0.1225,9.25e-05,0.0,-7.75e-05,0.00875,-0.045,0.11625,-4.5e-05,4.5e-05,-9.25e-05,1742093353.078201
0.00125,-0.00625,0.1225,1.5e-05,1.5e-05,-6e-05,0.00875,-0.045,0.11625,-4.5e-05,1.5e-05,-6e-05,1742093353.1911838
0.0,-0.00625,0.1225,4.5e-05,0.0,1.5e-05,0.00875,-0.045,0.11625,3e-05,-1.5e-05,0.0,1742093353.3049002
0.0,-0.00625,0.1225,3e-05,3e-05,-6e-05,0.00875,-0.04375,0.11625,-7.75e-05,4.5e-05,-0.0001825,1742093353.418999
0.00125,-0.00625,0.1225,6e-05,-1.5e-05,-9.25e-05,0.00875,-0.04375,0.11625,-3e-05,-3e-05,0.0,1742093353.532983
0.00125,-0.00625,0.1225,0.000305,0.0,-4.5e-05,0.00875,-0.045,0.11625,-6e-05,-4.5e-05,3e-05,1742093353.64702
0.0,-0.00625,0.1225,0.00016750001,4.5e-05,-0.000107500004,0.00875,-0.045,0.11625,-0.0001225,0.0,-0.0001375,1742093353.761021
0.00125,-0.00625,0.1225,9.25e-05,0.0,-0.0001225,0.00875,-0.04375,0.11625,-0.0001975,0.0,-6e-05,1742093353.8773172
0.00125,-0.00625,0.1225,0.000107500004,6e-05,-1.5e-05,0.00875,-0.04375,0.11625,-0.00016750001,0.0,1.5e-05,1742093353.988962
0.00125,-0.0075,0.1225,7.75e-05,3e-05,-9.25e-05,0.00875,-0.04375,0.11625,-0.0001525,9.25e-05,-3e-05,1742093354.1030881
0.0,-0.0075,0.1225,3e-05,1.5e-05,-4.5e-05,0.00875,-0.045,0.11625,0.000107500004,7.75e-05,-6e-05,1742093354.217199
0.00125,-0.0075,0.1225,-0.0001225,4.5e-05,6e-05,0.00875,-0.04375,0.1175,9.25e-05,0.0,-0.000107500004,1742093354.330818
0.0,-0.0075,0.12375,0.000107500004,3e-05,-0.0001225,0.00875,-0.04375,0.11625,0.0,1.5e-05,-9.25e-05,1742093354.444818
0.0,-0.0075,0.1225,0.0001225,0.0,-6e-05,0.00875,-0.04375,0.11625,1.5e-05,3e-05,-4.5e-05,1742093354.558773
0.00125,-0.0075,0.1225,1.5e-05,0.0,-1.5e-05,0.00875,-0.04375,0.11625,-3e-05,0.0,-7.75e-05,1742093354.672947
0.00125,-0.0075,0.1225,0.0,1.5e-05,-3e-05,0.00875,-0.04375,0.11625,0.0001375,-3e-05,-6e-05,1742093354.7869499
0.00125,-0.0075,0.1225,-4.5e-05,1.5e-05,1.5e-05,0.00875,-0.04375,0.11625,-0.000107500004,-0.000305,-1.5e-05,1742093354.900987
