L-AccX,L-AccY,L-AccZ,L-GyrX,L-GyrY,L-GyrZ,R-AccX,R-AccY,R-AccZ,R-GyrX,R-GyrY,R-GyrZ,timestamp
-0.17,0.38,0.94,0.98,-1.95,6.23,0.17,-0.57,0.78,-8.36,-2.38,11.66,1742259138.0973399
-0.32,0.38,0.97,-1.59,-10.25,-10.68,0.15,-0.52,0.78,2.01,1.77,5.19,1742259138.213357
-0.24,0.37,0.88,-5.31,1.34,-35.52,0.16,-0.55,0.76,2.26,-3.23,-6.04,1742259138.325539
-0.13,0.35,0.91,5.25,-5.13,-29.42,0.18,-0.59,0.81,0.18,-5.0,-5.07,1742259138.439332
-0.14,0.39,0.91,-8.42,0.55,-23.01,0.17,-0.57,0.78,1.59,-3.72,2.56,1742259138.553401
-0.12,0.44,0.9,-2.56,-4.52,-22.09,0.16,-0.56,0.78,0.37,-7.87,4.82,1742259138.6674628
-0.1,0.44,0.88,-2.01,0.55,-25.63,0.15,-0.57,0.81,0.49,-11.66,6.77,1742259138.7813199
-0.07,0.43,0.88,-14.1,-2.56,-23.99,0.14,-0.54,0.82,-1.04,-3.66,3.97,1742259138.895391
-0.12,0.52,0.84,-41.38,-2.38,-23.86,0.14,-0.55,0.79,1.77,1.95,0.06,1742259139.011841
-0.06,0.57,0.85,-10.62,-1.22,-26.12,0.13,-0.56,0.79,-6.16,10.07,-0.73,1742259139.1234078
0.02,0.6,0.77,-18.86,14.65,-16.91,0.17,-0.58,0.79,1.46,-1.28,-5.37,1742259139.237241
0.11,0.45,0.78,-14.34,1.28,-4.39,0.14,-0.53,0.78,2.99,-16.48,-1.04,1742259139.352134
-0.0,0.52,0.82,22.52,-10.8,30.58,0.04,-0.56,0.81,-2.44,-30.76,-5.68,1742259139.4652748
-0.12,0.66,0.93,-8.48,-16.42,13.0,0.04,-0.54,0.79,3.72,-11.66,-3.54,1742259139.579353
-0.06,0.58,0.69,-18.13,-14.1,28.75,0.05,-0.57,0.75,9.58,-7.93,-5.68,1742259139.693353
-0.12,0.6,0.78,-7.87,-8.48,32.04,0.0,-0.58,0.79,5.43,-24.84,-8.48,1742259139.80736
-0.18,0.63,0.83,10.01,-2.32,32.59,-0.08,-0.58,0.82,-3.6,-25.94,-7.39,1742259139.92128
-0.22,0.58,0.8,-8.61,-2.87,26.67,-0.12,-0.55,0.82,-11.17,-22.09,-15.99,1742259140.035376
-0.25,0.53,0.75,-28.2,0.79,38.57,-0.13,-0.5,0.79,14.04,-2.08,-25.57,1742259140.15209
-0.34,0.66,0.7,-15.69,5.43,26.18,-0.19,-0.67,0.76,26.49,6.23,-20.63,1742259140.2632651
-0.32,0.6,0.71,-20.51,13.85,18.01,-0.19,-0.62,0.76,-9.89,8.36,-3.72,1742259140.377289
-0.28,0.54,0.7,-3.11,15.32,16.48,-0.17,-0.58,0.72,-1.28,-8.12,-5.43,1742259140.4930189
-0.35,0.62,0.67,-20.32,-15.2,10.19,-0.23,-0.63,0.79,4.88,-30.46,-2.87,1742259140.605469
-0.34,0.6,0.68,-3.72,-0.92,-2.62,-0.24,-0.56,0.75,-9.83,-4.88,0.31,1742259140.7193542
-0.35,0.61,0.71,-21.61,-1.65,-0.12,-0.25,-0.55,0.76,-2.2,-0.24,0.0,1742259140.833327
-0.35,0.63,0.67,-11.6,-2.87,-0.12,-0.25,-0.57,0.77,7.69,1.28,-0.98,1742259140.947317
-0.36,0.68,0.66,-2.01,-1.53,0.92,-0.24,-0.58,0.75,6.59,2.62,-0.92,1742259141.0615418
-0.36,0.61,0.67,15.69,-1.77,0.49,-0.24,-0.58,0.74,5.8,1.22,-0.31,1742259141.175195
-0.37,0.62,0.69,23.32,-2.26,0.61,-0.24,-0.61,0.74,4.15,1.95,-0.43,1742259141.293358
-0.37,0.59,0.72,16.66,-4.46,-0.55,-0.23,-0.6,0.74,2.62,1.16,0.61,1742259141.403316
-0.38,0.56,0.73,18.62,-2.26,-1.22,-0.23,-0.6,0.73,3.48,2.5,-0.12,1742259141.5172532
-0.39,0.55,0.74,4.76,-2.14,-1.71,-0.21,-0.61,0.71,6.77,0.85,-4.21,1742259141.6328828
-0.37,0.56,0.74,-2.62,-2.69,1.65,-0.23,-0.61,0.72,2.32,2.99,-2.2,1742259141.745353
-0.37,0.56,0.74,5.86,-3.66,0.43,-0.24,-0.61,0.73,1.53,1.16,-0.73,1742259141.859138
-0.36,0.56,0.74,-2.56,0.37,1.04,-0.23,-0.62,0.73,0.61,0.18,0.49,1742259141.973145
-0.37,0.55,0.75,-2.2,0.18,0.31,-0.23,-0.61,0.73,-0.12,0.43,0.06,1742259142.0871968
-0.39,0.57,0.73,-3.11,-0.79,-0.18,-0.23,-0.61,0.72,-1.16,0.24,-1.04,1742259142.201323
-0.39,0.56,0.72,6.71,4.82,0.31,-0.23,-0.59,0.74,-3.91,3.85,-1.95,1742259142.3150332
-0.36,0.56,0.77,16.17,7.93,1.28,-0.22,-0.59,0.75,-18.31,10.38,6.77,1742259142.428061
-0.34,0.51,0.8,25.63,7.63,-11.54,-0.14,-0.55,0.76,-21.91,8.91,5.8,1742259142.54117
-0.32,0.45,0.84,13.43,0.31,-8.0,-0.12,-0.51,0.82,-8.36,28.5,12.33,1742259142.6550531
-0.31,0.41,0.83,-11.66,-1.89,-5.55,-0.19,-0.54,0.82,-2.87,-0.79,4.7,1742259142.76837
-0.3,0.5,0.78,-20.81,-6.04,-2.99,-0.17,-0.51,0.81,4.09,-8.48,-0.61,1742259142.882283
-0.3,0.46,0.79,7.81,-5.86,-1.83,-0.21,-0.49,0.85,-15.01,-17.64,-10.19,1742259142.996214
-0.34,0.47,0.84,10.86,-10.99,10.31,-0.18,-0.54,0.83,4.82,-9.64,-19.53,1742259143.1130219
-0.37,0.46,0.83,9.7,-8.48,22.77,-0.23,-0.56,0.76,-6.84,-7.02,-6.59,1742259143.224101
-0.4,0.45,0.77,-14.77,-16.17,20.39,-0.27,-0.54,0.82,3.6,1.83,0.55,1742259143.3372428
-0.5,0.49,0.76,-27.4,-18.8,25.15,-0.22,-0.49,0.8,9.52,4.76,7.2,1742259143.45297
-0.57,0.46,0.7,-10.38,-12.57,16.24,-0.23,-0.52,0.79,22.83,8.18,-8.12,1742259143.5651782
-0.57,0.5,0.7,-18.13,-7.75,7.45,-0.21,-0.58,0.78,2.62,5.62,-3.48,1742259143.679223
-0.54,0.48,0.67,-4.27,-6.65,1.65,-0.21,-0.54,0.77,-1.46,2.08,-2.01,1742259143.793198
-0.55,0.44,0.65,-5.13,-6.47,8.97,-0.22,-0.53,0.77,0.67,0.85,-3.3,1742259143.907213
-0.57,0.46,0.62,-2.99,-2.14,3.42,-0.21,-0.54,0.78,-0.79,2.5,-6.53,1742259144.021182
-0.6,0.53,0.64,-23.56,0.43,5.92,-0.22,-0.56,0.78,6.16,7.02,-13.73,1742259144.135085
-0.58,0.52,0.59,-8.85,3.85,1.04,-0.22,-0.58,0.76,-4.88,-3.11,-1.4,1742259144.249116
-0.58,0.54,0.63,10.56,3.66,-3.91,-0.23,-0.57,0.78,-8.79,-0.12,0.85,1742259144.3631208
-0.58,0.49,0.67,32.1,9.03,-4.52,-0.22,-0.49,0.81,-34.12,-4.09,9.09,1742259144.477082
-0.55,0.41,0.71,35.83,10.5,-2.5,-0.23,-0.43,0.84,-41.87,0.0,14.65,1742259144.59295
-0.53,0.39,0.75,13.0,5.86,0.06,-0.2,-0.36,0.87,-55.48,-1.59,21.24,1742259144.704948
-0.53,0.39,0.75,-10.93,0.98,2.69,-0.21,-0.32,0.9,-22.4,-3.3,10.68,1742259144.8180978
-0.54,0.46,0.73,-0.55,-1.04,-6.41,-0.21,-0.31,0.92,-11.17,-18.49,10.07,1742259144.9342568
-0.55,0.5,0.73,4.76,-20.08,-56.34,-0.24,-0.27,0.92,-0.49,-23.62,2.5,1742259145.0462122
-0.49,0.37,0.75,36.44,-5.31,-10.01,-0.28,-0.25,0.85,16.85,-10.99,-16.66,1742259145.160306
-0.52,0.42,0.74,14.28,8.54,12.76,-0.34,-0.31,0.9,11.84,-24.6,-18.98,1742259145.277117
-0.53,0.35,0.76,-0.49,0.0,-1.89,-0.36,-0.34,0.86,17.7,-33.26,-11.35,1742259145.388226
-0.49,0.39,0.75,-2.2,0.92,1.71,-0.45,-0.33,0.85,-7.87,-17.15,-2.62,1742259145.502086
-0.52,0.4,0.76,2.26,1.22,2.93,-0.42,-0.32,0.82,-6.29,12.7,1.77,1742259145.616179
-0.52,0.39,0.76,-3.54,2.44,2.99,-0.4,-0.33,0.83,0.61,16.05,1.16,1742259145.7300842
-0.5,0.38,0.74,-2.69,3.23,6.71,-0.35,-0.32,0.83,1.4,17.52,6.35,1742259145.8440042
-0.5,0.37,0.76,-2.32,-1.95,13.18,-0.35,-0.3,0.81,10.68,-6.04,1.59,1742259145.9571042
-0.52,0.35,0.76,1.22,0.12,5.19,-0.35,-0.3,0.91,-6.1,-3.85,4.46,1742259146.0736141
-0.56,0.35,0.76,-12.88,-4.58,1.77,-0.37,-0.36,0.83,11.47,1.77,-2.5,1742259146.1853912
-0.52,0.39,0.75,-40.89,-4.21,0.67,-0.33,-0.34,0.85,-6.59,-5.92,10.5,1742259146.29928
-0.51,0.49,0.7,-3.6,-0.37,2.75,-0.33,-0.36,0.85,12.88,3.85,-3.85,1742259146.4143062
-0.56,0.42,0.71,-1.59,1.65,0.31,-0.34,-0.35,0.84,5.92,5.07,-0.67,1742259146.527178
-0.55,0.44,0.71,-7.14,1.04,1.28,-0.34,-0.38,0.83,9.95,5.25,-1.46,1742259146.64097
-0.55,0.44,0.71,-1.71,0.55,0.18,-0.32,-0.4,0.84,6.23,2.5,-0.92,1742259146.756707
-0.54,0.43,0.71,-4.46,1.28,0.98,-0.31,-0.4,0.83,2.2,1.04,0.31,1742259146.869132
-0.54,0.46,0.7,-2.32,0.24,2.26,-0.32,-0.41,0.84,3.05,1.4,-0.67,1742259146.982969
-0.55,0.45,0.71,0.37,0.18,2.81,-0.31,-0.41,0.83,4.58,1.46,0.12,1742259147.09686
-0.55,0.45,0.71,-2.14,0.92,2.5,-0.32,-0.42,0.83,6.59,2.69,-0.79,1742259147.215015
-0.55,0.43,0.71,-0.24,-0.37,2.93,-0.32,-0.43,0.82,8.3,3.6,-2.26,1742259147.3254368
-0.54,0.43,0.71,0.24,-0.67,1.28,-0.31,-0.44,0.82,7.14,2.99,-2.99,1742259147.439003
-0.55,0.43,0.71,-3.6,-1.16,-0.18,-0.3,-0.46,0.82,2.26,0.61,-1.34,1742259147.5543199
-0.55,0.44,0.7,-4.46,0.73,-1.77,-0.3,-0.45,0.81,-0.31,-0.37,-0.49,1742259147.667249
-0.54,0.46,0.7,-6.1,0.06,-3.23,-0.31,-0.45,0.81,-5.07,-0.85,-1.4,1742259147.7812219
-0.55,0.46,0.69,-8.36,0.49,-2.56,-0.31,-0.39,0.84,-14.53,-3.17,2.81,1742259147.895042
-0.54,0.48,0.69,-8.0,0.37,-1.95,-0.31,-0.4,0.84,-6.71,-0.98,-0.98,1742259148.0097191
-0.54,0.5,0.67,-7.26,-0.37,-0.67,-0.32,-0.4,0.83,0.06,-0.43,-1.77,1742259148.12307
-0.54,0.47,0.67,-21.0,-4.52,-0.06,-0.32,-0.4,0.83,1.53,0.61,-2.32,1742259148.236898
-0.56,0.56,0.62,-25.15,-3.91,1.77,-0.32,-0.39,0.84,1.16,0.31,-0.67,1742259148.3538408
-0.55,0.55,0.62,-2.69,0.12,0.85,-0.32,-0.4,0.83,1.89,0.31,-0.12,1742259148.465036
-0.56,0.55,0.61,-2.38,0.37,2.2,-0.32,-0.4,0.83,5.0,1.53,0.61,1742259148.5788622
-0.56,0.56,0.61,3.6,0.31,3.42,-0.31,-0.41,0.83,8.06,2.44,0.61,1742259148.694525
-0.56,0.53,0.63,8.67,0.79,2.99,-0.31,-0.43,0.82,10.68,3.42,0.24,1742259148.806989
-0.57,0.53,0.63,5.49,1.95,4.94,-0.3,-0.45,0.82,11.84,3.6,0.98,1742259148.920801
-0.57,0.51,0.64,5.07,1.59,5.8,-0.3,-0.47,0.81,16.42,4.76,0.73,1742259149.0347798
-0.57,0.51,0.64,5.31,1.28,4.76,-0.28,-0.49,0.79,15.08,4.39,1.1,1742259149.148857
-0.57,0.48,0.65,5.92,0.49,2.99,-0.28,-0.53,0.78,14.71,3.97,-0.67,1742259149.262957
-0.58,0.47,0.66,5.55,0.18,2.44,-0.27,-0.54,0.77,12.82,3.42,-0.06,1742259149.3769631
-0.58,0.46,0.66,0.49,0.12,3.36,-0.26,-0.56,0.76,11.23,2.08,1.04,1742259149.494522
-0.58,0.47,0.66,1.46,1.16,2.87,-0.26,-0.57,0.75,6.84,0.55,1.53,1742259149.6048799
-0.58,0.46,0.66,1.34,0.37,1.46,-0.26,-0.58,0.74,5.25,1.28,0.18,1742259149.718807
-0.59,0.46,0.67,1.53,-0.73,-0.73,-0.26,-0.59,0.74,1.95,1.1,-1.4,1742259149.83428
-0.6,0.46,0.67,1.46,-2.2,-0.67,-0.25,-0.57,0.75,23.8,13.73,-2.26,1742259149.946995
-0.58,0.45,0.67,0.24,-1.22,-1.53,-0.23,-0.63,0.69,20.87,16.78,0.31,1742259150.0608
-0.58,0.44,0.67,3.48,-0.85,-0.31,-0.21,-0.64,0.69,4.39,4.64,0.06,1742259150.174773
-0.59,0.45,0.66,4.09,-0.24,-0.31,-0.21,-0.63,0.71,-2.38,1.53,0.43,1742259150.2889159
-0.59,0.45,0.67,6.16,0.43,-2.26,-0.22,-0.63,0.72,-2.5,0.85,-0.31,1742259150.403028
-0.58,0.44,0.68,6.23,-0.73,-1.71,-0.21,-0.63,0.72,-1.46,4.39,-0.37,1742259150.5170078
-0.58,0.44,0.68,2.38,-0.73,-1.83,-0.2,-0.63,0.71,-1.16,1.59,-0.98,1742259150.6340108
-0.58,0.43,0.68,-1.53,0.12,-1.1,-0.21,-0.63,0.72,-1.89,-2.08,-0.37,1742259150.745099
-0.58,0.44,0.68,-1.83,-0.12,-0.31,-0.21,-0.62,0.72,-4.76,-4.88,-0.98,1742259150.8590689
-0.58,0.44,0.68,-9.4,0.49,-0.67,-0.23,-0.6,0.74,-5.92,-4.39,-1.34,1742259150.973262
-0.58,0.47,0.66,-12.21,0.61,-0.37,-0.23,-0.6,0.74,-2.69,-1.28,-2.14,1742259151.087095
-0.59,0.47,0.66,-11.05,-0.24,0.43,-0.24,-0.6,0.74,-2.99,-0.43,-1.71,1742259151.2010958
-0.59,0.5,0.63,-10.56,-0.61,-0.98,-0.24,-0.6,0.74,-4.27,-0.18,-1.4,1742259151.315064
-0.58,0.51,0.63,-3.05,0.79,-2.38,-0.24,-0.58,0.75,-2.2,0.79,-1.53,1742259151.4291031
-0.58,0.51,0.63,-1.89,0.67,-1.59,-0.24,-0.58,0.75,-2.93,0.55,-1.53,1742259151.54302
-0.58,0.51,0.63,-1.16,0.24,-1.46,-0.24,-0.58,0.75,-2.62,-0.12,-0.73,1742259151.657079
-0.58,0.51,0.62,-11.9,-1.71,-0.73,-0.24,-0.57,0.76,-2.5,-0.49,0.0,1742259151.7709792
-0.57,0.54,0.62,-2.81,0.06,-1.46,-0.24,-0.57,0.76,-3.17,-0.98,-0.18,1742259151.885041
-0.58,0.54,0.61,-1.04,0.37,-0.49,-0.24,-0.56,0.76,0.0,0.49,-0.61,1742259151.9988868
-0.57,0.54,0.61,-1.28,-0.06,-0.55,-0.24,-0.56,0.76,-0.79,-0.31,-0.55,1742259152.1139898
-0.57,0.54,0.61,-0.24,-0.12,-0.37,-0.25,-0.56,0.76,0.55,0.12,-0.55,1742259152.226876
-0.57,0.54,0.61,1.77,-0.06,0.43,-0.24,-0.56,0.76,0.98,0.06,-0.18,1742259152.340889
-0.57,0.54,0.61,1.34,0.06,0.06,-0.24,-0.56,0.76,-0.67,-0.49,-0.12,1742259152.4550679
-0.58,0.53,0.61,0.85,-0.06,0.0,-0.25,-0.56,0.76,0.55,0.06,0.0,1742259152.568789
-0.58,0.54,0.62,0.92,-0.06,0.18,-0.25,-0.57,0.76,0.0,-0.92,0.85,1742259152.682894
-0.59,0.56,0.62,5.49,0.12,-0.55,-0.25,-0.58,0.78,-2.5,-9.64,2.38,1742259152.7969458
-0.59,0.55,0.62,13.0,1.1,-1.1,-0.27,-0.59,0.77,-5.55,-5.13,1.59,1742259152.9133701
-0.57,0.53,0.63,7.93,1.04,-3.42,-0.27,-0.53,0.81,-17.46,6.96,11.96,1742259153.02485
-0.56,0.53,0.63,7.32,0.67,-4.09,-0.25,-0.55,0.82,7.14,-1.22,3.6,1742259153.1387892
-0.57,0.53,0.66,-6.59,0.12,-7.81,-0.24,-0.58,0.77,10.93,4.33,10.38,1742259153.257256
-0.55,0.6,0.69,10.25,8.67,-27.22,-0.19,-0.63,0.84,0.31,12.33,33.39,1742259153.3666759
-0.56,0.88,0.68,-73.18,-25.51,-28.99,-0.09,-0.64,0.85,20.63,81.6,32.47,1742259153.480793
-0.42,0.64,0.55,-17.03,9.83,-85.57,0.12,-0.65,0.83,21.42,55.24,46.51,1742259153.594579
-0.28,0.73,0.67,-0.31,24.23,-76.78,0.27,-0.6,0.84,2.2,22.71,96.44,1742259153.7075899
-0.16,0.77,0.65,7.2,51.45,-70.62,0.39,-0.49,0.7,-22.46,40.28,63.6,1742259153.820717
0.07,0.65,0.61,27.95,65.73,-56.82,0.48,-0.33,0.57,-27.4,21.97,30.64,1742259153.9347079
0.14,0.64,0.63,66.1,75.81,-12.21,0.43,-0.38,0.73,-35.71,4.58,2.87,1742259154.048722
0.16,0.62,0.69,43.15,24.72,25.88,0.47,-0.29,0.73,-28.75,-23.99,-11.17,1742259154.162893
0.24,0.69,0.73,2.32,4.94,23.13,0.46,-0.24,0.77,-26.37,-20.75,4.03,1742259154.277337
0.27,0.59,0.77,6.04,8.73,9.22,0.37,-0.35,0.92,7.14,-22.77,-10.68,1742259154.3928719
0.3,0.66,0.78,-5.37,0.24,8.0,0.35,-0.31,0.87,6.59,-14.77,-11.35,1742259154.5048058
0.21,0.6,0.79,4.94,-9.34,4.09,0.35,-0.37,0.84,-2.81,-1.1,-0.06,1742259154.6188958
0.22,0.49,0.74,4.21,-5.55,3.66,0.41,-0.35,0.84,-20.69,-2.5,-21.79,1742259154.7367098
0.07,0.61,0.82,13.61,-12.08,10.62,0.4,-0.27,0.86,1.53,-3.72,6.23,1742259154.846735
0.13,0.57,0.79,7.93,-7.51,12.21,0.35,-0.16,0.95,-10.38,-17.03,3.97,1742259154.960779
0.03,0.52,0.76,-15.08,-0.37,13.98,0.33,-0.25,0.88,5.98,-2.26,-1.59,1742259155.074781
0.08,0.54,0.83,-12.33,18.98,-4.94,0.3,-0.3,0.95,-13.61,-23.62,-3.78,1742259155.188844
0.12,0.6,0.78,33.81,-9.89,10.99,0.28,-0.22,0.91,-15.56,-16.66,-4.7,1742259155.302892
0.07,0.54,0.83,10.93,-9.4,15.93,0.25,-0.21,0.96,21.97,2.99,1.4,1742259155.416611
0.03,0.54,0.85,2.99,-3.36,1.1,0.27,-0.17,0.96,-10.44,2.99,0.31,1742259155.5296168
0.03,0.57,0.86,-5.25,-2.81,7.63,0.28,-0.26,0.91,2.08,24.66,-15.32,1742259155.642611
0.01,0.56,0.85,1.53,-0.67,21.0,0.32,-0.22,0.93,2.01,18.62,-4.58,1742259155.758259
0.0,0.56,0.85,1.28,-4.82,5.19,0.31,-0.29,0.86,-11.96,-6.35,17.21,1742259155.868738
0.0,0.51,0.86,2.81,-3.48,-4.27,0.29,-0.24,0.92,-0.43,-23.19,13.49,1742259155.9827049
-0.0,0.49,0.87,-4.09,-0.73,-0.55,0.27,-0.23,0.87,-12.82,-17.46,0.61,1742259156.096739
0.0,0.51,0.86,-0.12,-0.92,-0.24,0.22,-0.22,0.95,0.98,-4.58,11.72,1742259156.2107651
0.01,0.5,0.87,0.31,-0.43,-0.61,0.26,-0.2,0.93,5.68,3.23,3.42,1742259156.324573
-0.0,0.5,0.87,0.61,-0.37,-0.49,0.25,-0.18,0.94,5.25,-0.85,4.33,1742259156.4376361
0.0,0.5,0.87,0.12,-0.24,-0.43,0.25,-0.15,0.95,-4.88,2.69,0.24,1742259156.554513
0.0,0.5,0.87,0.31,-0.43,-0.12,0.26,-0.22,0.95,6.71,25.02,-0.31,1742259156.66557
0.0,0.5,0.87,0.0,0.0,0.24,0.34,-0.19,0.87,21.18,53.83,-4.09,1742259156.7795782
-0.0,0.5,0.87,0.55,-0.18,0.0,0.4,-0.27,0.83,5.07,8.67,-3.66,1742259156.8940558
0.0,0.49,0.87,-0.24,-0.61,0.67,0.39,-0.25,0.87,1.28,2.01,1.59,1742259157.007498
0.0,0.49,0.87,-0.98,-1.83,0.55,0.4,-0.26,0.87,1.28,-4.21,-0.85,1742259157.1207528
-0.01,0.5,0.87,-0.61,-0.61,0.43,0.38,-0.25,0.9,13.79,1.53,-2.32,1742259157.236248
-0.0,0.5,0.87,-0.18,0.06,0.12,0.38,-0.26,0.83,4.7,0.85,10.07,1742259157.3485131
-0.0,0.49,0.87,0.12,-0.06,-0.18,0.38,-0.2,0.89,3.17,-0.12,14.89,1742259157.461628
-0.01,0.5,0.87,0.24,-0.12,-0.18,0.38,-0.23,0.86,3.23,5.0,0.98,1742259157.575488
-0.0,0.5,0.87,0.12,-0.12,-0.31,0.39,-0.17,0.89,-7.63,-12.88,-11.47,1742259157.688829
-0.0,0.5,0.87,0.12,-0.12,-0.37,0.28,-0.27,1.0,-18.98,-26.49,-21.24,1742259157.802818
-0.01,0.5,0.87,-0.49,0.0,-0.06,0.31,-0.25,0.92,13.67,18.07,9.16,1742259157.916513
-0.01,0.5,0.87,-0.85,0.12,0.73,0.36,-0.27,0.88,8.36,22.95,3.54,1742259158.0327811
-0.0,0.5,0.87,-0.73,-0.31,0.0,0.41,-0.27,0.83,3.17,20.57,-14.16,1742259158.142642
-0.01,0.5,0.87,-0.06,-0.61,-0.73,0.4,-0.26,0.87,-4.33,-31.19,13.61,1742259158.2569559
-0.01,0.5,0.87,0.67,-0.49,-0.55,0.28,-0.14,0.97,4.33,-28.81,-12.57,1742259158.3746371
-0.01,0.5,0.87,0.31,-0.37,0.0,0.27,-0.24,0.93,2.14,3.05,-4.15,1742259158.484694
-0.01,0.5,0.87,-2.14,-1.89,0.37,0.31,-0.28,0.9,21.55,37.17,13.67,1742259158.5986712
-0.01,0.51,0.86,-3.42,-3.42,-0.37,0.37,-0.25,0.88,4.76,15.56,1.46,1742259158.715344
-0.02,0.51,0.86,1.04,0.67,-0.61,0.32,-0.27,0.89,2.56,-8.61,-3.05,1742259158.8266702
-0.01,0.5,0.86,-0.37,0.43,0.0,0.34,-0.26,0.94,0.49,-7.45,7.14,1742259158.9406478
-0.01,0.5,0.87,0.61,0.49,-0.55,0.34,-0.23,0.89,-4.09,-1.1,2.75,1742259159.0546079
-0.01,0.51,0.86,0.24,0.12,-0.24,0.36,-0.24,0.89,8.61,19.1,1.95,1742259159.168482
-0.01,0.51,0.86,-0.06,0.24,0.31,0.39,-0.26,0.85,-0.49,0.67,1.16,1742259159.2815151
-0.02,0.51,0.86,-0.31,0.12,0.55,0.37,-0.24,0.94,4.27,22.28,2.08,1742259159.3954618
-0.01,0.51,0.86,0.06,0.0,-0.12,0.47,-0.31,0.74,13.79,27.95,-1.65,1742259159.5085151
-0.01,0.5,0.87,0.85,0.31,-0.31,0.47,-0.25,0.81,-8.3,-29.36,-6.41,1742259159.622771
-0.01,0.51,0.86,0.79,0.24,-0.18,0.37,-0.28,0.89,-4.39,-4.21,6.41,1742259159.736945
-0.01,0.51,0.86,-0.31,-0.06,-0.31,0.4,-0.25,0.85,6.84,-0.43,12.51,1742259159.854274
-0.01,0.51,0.86,-2.32,0.06,0.49,0.41,-0.23,0.87,4.82,0.24,8.24,1742259159.964433
-0.01,0.54,0.85,-0.37,3.17,-5.86,0.41,-0.26,0.88,1.16,-0.73,1.53,1742259160.0775502
0.04,0.5,0.84,0.49,-0.31,-21.67,0.4,-0.27,0.86,-0.55,-0.12,0.61,1742259160.1951392
0.03,0.5,0.84,0.55,-0.12,0.43,0.44,-0.2,0.82,-10.86,2.81,-1.16,1742259160.305662
0.04,0.53,0.85,5.43,-5.13,2.32,0.43,-0.28,0.84,20.32,-1.46,-10.68,1742259160.419611
-0.01,0.55,0.89,0.18,-12.21,-18.43,0.48,-0.18,0.92,-14.4,-33.45,-8.48,1742259160.533945
0.01,0.5,0.91,5.0,-13.67,-36.32,0.37,-0.26,0.82,-19.23,-12.39,-5.74,1742259160.647766
0.12,0.46,0.92,35.1,-23.74,-32.17,0.29,-0.23,0.81,-19.96,-22.46,-12.33,1742259160.7618072
-0.08,0.4,0.97,8.91,-14.47,12.02,0.15,-0.22,0.88,-11.11,-48.77,-31.62,1742259160.875781
0.03,0.32,0.9,-16.24,26.0,9.83,-0.0,-0.22,1.03,27.28,-11.84,-13.12,1742259160.9928699
0.04,0.41,0.89,-13.85,8.73,3.91,0.13,-0.32,0.94,52.19,5.31,-5.68,1742259161.103667
0.11,0.41,0.85,6.96,4.21,5.37,0.16,-0.39,0.85,39.31,12.88,-11.05,1742259161.217602
-0.0,0.52,0.85,-20.63,-8.91,12.57,0.19,-0.4,0.85,-2.5,-4.03,2.81,1742259161.3338282
0.03,0.47,0.86,-8.24,-6.71,7.02,0.16,-0.44,0.89,-13.24,1.89,-6.1,1742259161.4458098
-0.0,0.53,0.85,7.14,0.79,8.61,0.17,-0.29,0.9,-40.59,-0.85,-56.64,1742259161.559684
-0.02,0.49,0.89,34.73,24.11,6.35,0.12,-0.33,0.89,-32.35,-1.04,-61.71,1742259161.6736798
0.13,0.5,0.89,-4.94,12.88,30.33,0.08,-0.4,0.86,3.54,-15.14,-22.77,1742259161.787576
0.04,0.43,0.89,7.39,-0.06,-4.21,0.05,-0.28,0.91,4.94,11.23,-8.79,1742259161.90147
0.09,0.43,0.94,-10.56,8.0,5.37,0.06,-0.33,0.97,8.36,6.53,21.42,1742259162.0529861
0.07,0.4,0.9,13.92,6.71,-20.81,0.08,-0.33,0.92,10.25,2.14,48.52,1742259162.128397
0.08,0.4,0.81,-1.89,-10.01,-43.15,0.15,-0.15,0.98,7.14,13.0,15.56,1742259162.241379
0.03,0.48,0.88,-14.59,3.72,10.01,0.13,-0.35,0.93,3.48,-0.85,-1.46,1742259162.354784
0.04,0.5,0.86,10.99,-6.04,-7.32,0.14,-0.28,0.92,3.11,-0.55,0.12,1742259162.468549
0.06,0.44,0.89,1.34,1.34,4.58,0.13,-0.34,0.92,3.42,-0.79,0.49,1742259162.582508
0.05,0.44,0.88,-3.11,3.11,-2.69,0.15,-0.29,0.93,11.72,4.27,-19.9,1742259162.696455
0.07,0.45,0.86,-1.59,2.81,1.22,0.17,-0.35,0.82,1.83,6.41,-6.1,1742259162.813926
0.07,0.44,0.88,-2.5,-1.59,0.37,0.14,-0.3,1.02,-3.6,20.57,-1.28,1742259162.9245892
0.04,0.5,0.87,-7.93,-10.68,-2.14,0.1,-0.4,1.06,16.24,37.29,14.22,1742259163.038362
0.05,0.48,0.89,-3.6,-0.73,-0.61,0.31,-0.39,0.78,-1.04,-21.91,85.27,1742259163.153436
0.05,0.48,0.87,-2.69,3.85,-2.93,0.35,-0.07,0.87,7.57,22.52,33.2,1742259163.265398
0.06,0.48,0.87,2.81,-0.92,-0.12,0.29,-0.3,0.89,14.04,-6.47,-12.33,1742259163.3786151
0.05,0.49,0.87,2.08,0.49,1.1,0.32,-0.23,0.81,-16.54,-80.32,-58.72,1742259163.494741
0.06,0.46,0.88,3.72,3.36,-1.59,0.17,-0.31,0.81,-16.42,-31.31,18.62,1742259163.607293
0.06,0.49,0.88,1.77,-0.55,-3.72,-0.0,-0.29,0.92,23.44,-31.31,5.62,1742259163.720617
0.06,0.45,0.86,-9.52,-1.46,7.81,0.1,-0.25,0.94,-12.02,28.56,-26.49,1742259163.834604
0.04,0.51,0.85,0.61,6.29,2.93,0.06,-0.23,0.92,-18.13,-13.67,13.61,1742259163.948631
0.06,0.44,0.88,16.72,1.04,-14.1,0.01,-0.32,0.95,26.55,21.97,-11.23,1742259164.062517
0.05,0.47,0.87,4.46,0.18,3.66,0.15,-0.37,0.85,-3.36,68.91,-21.48,1742259164.176579
-0.02,0.51,0.83,-16.05,1.71,0.85,0.24,-0.29,0.86,-15.14,15.32,-17.21,1742259164.295184
0.02,0.52,0.87,31.98,-20.08,-14.16,0.16,-0.41,0.91,8.24,10.19,4.76,1742259164.404383
-0.02,0.36,0.94,29.79,-23.44,-4.03,0.23,-0.36,0.85,8.48,26.92,61.16,1742259164.517302
-0.04,0.38,0.92,-0.73,5.37,3.85,0.28,-0.24,0.96,19.17,10.01,33.87,1742259164.63446
-0.03,0.4,0.92,-2.62,-1.59,4.7,0.35,-0.36,0.76,0.85,-0.67,12.15,1742259164.7445388
-0.03,0.45,0.94,1.04,18.8,-14.16,0.31,-0.31,0.96,-17.94,35.83,-2.81,1742259164.858645
-0.01,0.42,0.91,1.46,1.83,3.23,0.42,-0.42,0.72,16.78,7.08,-14.1,1742259164.9743009
0.03,0.36,0.88,-22.4,-9.7,17.64,0.42,-0.27,0.72,0.12,-21.48,-32.04,1742259165.086642
-0.01,0.44,0.91,3.97,-2.14,0.85,0.3,-0.35,0.79,-51.57,-67.02,-47.73,1742259165.2006452
0.0,0.36,0.92,7.14,3.91,-4.39,0.25,-0.27,0.82,-20.08,-1.46,-41.63,1742259165.3147259
-0.01,0.42,0.92,-16.97,19.96,13.98,0.11,-0.42,0.9,0.49,1.53,-3.11,1742259165.428611
-0.0,0.47,0.88,-7.2,6.16,23.5,0.16,-0.41,0.91,23.25,23.99,59.14,1742259165.542457
0.0,0.44,0.9,-1.22,-1.22,3.05,0.16,-0.39,0.92,13.67,-13.61,67.81,1742259165.656415
-0.01,0.46,0.89,-1.71,-1.53,1.1,0.24,-0.37,0.95,12.08,0.12,47.36,1742259165.7704818
-0.01,0.47,0.88,-2.44,0.12,1.77,0.37,-0.36,0.78,34.36,33.63,32.41,1742259165.884476
-0.0,0.47,0.88,-2.26,-0.98,0.12,0.43,-0.37,0.74,-6.96,-5.92,28.5,1742259165.998566
-0.01,0.47,0.88,-1.34,-0.55,-0.06,0.34,-0.41,0.76,-5.98,-36.25,18.98,1742259166.114937
-0.01,0.48,0.88,-0.73,-0.92,0.06,0.26,-0.25,1.01,-2.14,-41.14,-10.74,1742259166.226624
-0.02,0.49,0.87,-0.79,-0.49,0.43,0.2,-0.41,0.99,15.62,35.77,-5.49,1742259166.340617
-0.02,0.48,0.88,-0.79,-0.06,1.1,0.34,-0.39,0.83,14.59,3.3,36.5,1742259166.45486
-0.01,0.48,0.88,-0.49,0.49,0.24,0.32,-0.37,0.95,-14.22,14.34,-5.13,1742259166.568646
-0.01,0.48,0.88,-2.44,0.61,-2.01,0.38,-0.36,0.81,2.26,36.99,10.13,1742259166.682401
-0.02,0.5,0.88,-7.69,1.22,3.05,0.42,-0.33,0.81,-12.7,-1.1,9.46,1742259166.796556
-0.02,0.49,0.88,3.91,-6.35,3.66,0.4,-0.29,0.89,5.37,4.33,-24.17,1742259166.914785
-0.02,0.41,0.89,28.69,-15.99,30.7,0.37,-0.43,0.82,13.85,-9.89,-21.0,1742259167.024538
-0.07,0.38,0.92,18.68,-10.19,-2.08,0.34,-0.4,0.85,-5.49,-8.06,-10.74,1742259167.1386921
-0.1,0.39,0.94,6.47,-2.44,-3.05,0.34,-0.38,0.83,-2.62,2.69,-0.37,1742259167.2536151
-0.09,0.41,0.91,0.67,-1.1,-3.23,0.34,-0.36,0.85,-8.36,5.31,-7.02,1742259167.3665779
-0.09,0.47,0.9,17.09,-15.08,-26.67,0.34,-0.4,0.83,-5.43,3.66,-26.67,1742259167.480546
-0.07,0.35,0.93,27.04,-19.23,-9.52,0.32,-0.39,0.86,-5.31,2.87,-20.32,1742259167.594594
-0.17,0.22,0.97,12.21,-9.28,1.1,0.31,-0.41,0.85,3.48,1.59,-14.34,1742259167.708559
-0.08,0.25,0.92,-6.53,2.14,21.36,0.31,-0.4,0.85,0.0,1.4,-13.98,1742259167.822368
-0.12,0.34,0.92,-4.58,-2.38,1.95,0.32,-0.38,0.86,7.14,5.74,-25.82,1742259167.936534
-0.09,0.34,0.94,17.7,-7.51,-15.38,0.28,-0.45,0.85,-18.49,16.78,-51.45,1742259168.055104
-0.07,0.32,0.88,22.22,12.76,-39.18,0.25,-0.38,0.84,-14.83,0.24,-55.85,1742259168.1644769
-0.15,0.27,0.95,-2.2,-1.22,11.17,0.24,-0.43,0.83,9.64,-0.24,-29.36,1742259168.278482
-0.11,0.26,0.96,2.44,-0.79,7.45,0.19,-0.45,0.81,21.97,-15.26,-11.66,1742259168.394803
0.02,0.05,0.98,-46.69,52.12,51.76,0.19,-0.55,0.83,-1.95,-24.96,56.46,1742259168.50651
-0.02,0.46,0.86,-144.41,-5.62,80.32,0.15,-0.39,0.88,-15.62,-19.23,27.34,1742259168.6204538
-0.02,0.73,0.64,-15.08,3.36,0.73,0.1,-0.47,0.75,14.59,7.87,4.58,1742259168.7374442
-0.08,0.54,0.84,54.38,-9.4,-8.0,0.14,-0.46,0.94,-24.41,-7.69,24.6,1742259168.847517
-0.1,0.48,0.94,22.89,-8.73,-0.12,0.17,-0.4,0.86,-1.95,-6.65,13.67,1742259168.96147
-0.09,0.47,0.86,18.74,1.16,4.03,0.17,-0.36,0.89,-3.78,3.66,7.75,1742259169.075418
-0.07,0.46,0.86,14.71,-4.76,-10.38,0.17,-0.46,0.85,6.35,1.04,1.28,1742259169.1892889
-0.09,0.43,0.9,16.3,0.61,-4.58,0.18,-0.35,0.88,-8.79,-5.25,8.42,1742259169.302479
-0.08,0.37,0.94,-3.72,5.55,-16.54,0.16,-0.39,0.89,0.67,-7.39,-5.19,1742259169.41642
-0.07,0.41,0.9,-0.79,26.31,-27.53,0.13,-0.45,0.94,-9.64,17.27,28.75,1742259169.53509
0.06,0.41,0.97,7.32,6.04,-15.5,0.18,-0.38,0.97,10.68,-7.02,35.95,1742259169.6443598
0.1,0.37,0.91,-12.08,-27.59,22.77,0.23,-0.41,0.84,18.37,-13.49,36.13,1742259169.758386
0.04,0.38,0.94,-3.42,-10.68,-7.93,0.23,-0.27,1.0,12.39,16.17,-3.6,1742259169.875425
0.06,0.37,0.98,-16.05,-7.08,12.51,0.23,-0.32,0.91,-12.45,0.73,-10.01,1742259169.986507
0.05,0.4,0.89,20.57,-6.59,-1.65,0.21,-0.39,0.86,-2.87,4.7,-36.93,1742259170.100432
-0.0,0.34,0.97,17.21,-22.34,-7.2,0.18,-0.4,0.91,-11.35,-2.38,-11.41,1742259170.2164962
-0.05,0.32,0.98,8.73,-17.03,-14.89,0.18,-0.37,0.89,0.31,-0.85,-10.62,1742259170.328483
-0.16,0.34,0.95,7.02,-4.09,2.01,0.17,-0.37,0.93,-0.98,-29.79,3.48,1742259170.442462
-0.01,0.27,0.94,4.09,16.3,-2.38,0.08,-0.28,0.97,-13.06,-30.76,4.7,1742259170.5564969
0.01,0.29,0.95,3.54,10.99,3.72,0.04,-0.35,0.87,-23.07,-21.67,-6.84,1742259170.674467
-0.0,0.32,0.93,-5.55,2.75,8.79,0.04,-0.29,0.96,-5.68,7.02,-5.98,1742259170.78448
0.01,0.33,0.94,-3.23,-3.48,6.35,0.05,-0.31,0.95,-11.17,1.46,-4.88,1742259170.898507
-0.02,0.36,0.93,1.77,-5.92,1.4,0.07,-0.29,0.9,5.68,9.22,-29.11,1742259171.0157251
-0.03,0.3,0.97,3.42,2.38,-7.2,0.05,-0.28,0.95,-11.47,4.27,-36.93,1742259171.126515
-0.03,0.35,0.99,-14.77,18.8,-17.4,0.06,-0.28,0.94,6.47,9.52,-29.54,1742259171.2405188
0.11,0.26,0.91,-5.92,8.97,-6.23,0.05,-0.32,0.92,-0.67,4.58,-19.1,1742259171.35504
0.04,0.33,0.93,-1.83,1.1,2.69,0.07,-0.3,0.92,-3.78,0.61,-9.22,1742259171.468399
0.07,0.36,0.94,-5.49,-0.43,11.29,0.04,-0.29,0.95,1.04,-1.71,-0.37,1742259171.582649
0.03,0.36,0.96,-9.89,-2.2,4.82,0.07,-0.25,0.94,-0.79,5.98,6.35,1742259171.6962922
0.04,0.37,0.94,-8.61,1.53,0.24,0.06,-0.26,0.93,9.52,2.93,0.0,1742259171.815336
0.03,0.41,0.92,-10.19,-3.3,4.46,0.03,-0.37,0.95,17.76,11.17,26.25,1742259171.9241889
0.04,0.42,0.9,-3.42,4.15,-1.04,0.12,-0.32,0.91,14.16,-5.13,48.22,1742259172.037285
0.03,0.43,0.91,0.61,0.67,0.67,0.16,-0.33,0.88,15.38,7.63,25.09,1742259172.155002
0.04,0.43,0.91,-7.2,-0.73,2.14,0.14,-0.34,0.93,0.0,1.46,22.4,1742259172.264203
0.03,0.46,0.89,-10.86,-1.71,2.32,0.15,-0.35,0.91,14.4,20.87,17.21,1742259172.3771808
0.03,0.47,0.88,-3.11,-0.06,-0.49,0.3,-0.39,0.82,27.59,29.91,5.8,1742259172.4953759
0.02,0.46,0.89,-2.14,-0.12,-0.37,0.41,-0.44,0.75,-0.79,20.26,11.66,1742259172.604337
0.03,0.47,0.89,-0.98,-0.24,-0.06,0.32,-0.37,0.83,-27.59,-36.93,20.81,1742259172.7184331
0.03,0.47,0.88,-2.26,0.0,0.37,0.22,-0.3,0.98,-14.22,-48.83,8.54,1742259172.8354392
0.02,0.47,0.89,-0.67,0.24,0.31,0.19,-0.31,0.96,-4.64,-16.54,3.91,1742259172.946381
0.03,0.47,0.88,0.24,0.24,0.12,0.19,-0.31,0.93,-0.67,7.51,-6.16,1742259173.060349
0.03,0.48,0.88,-0.67,0.12,0.55,0.23,-0.32,0.9,4.15,14.83,-0.55,1742259173.174805
0.03,0.47,0.89,0.49,-0.06,0.12,0.23,-0.35,0.91,-19.71,-10.99,14.22,1742259173.288447
0.02,0.47,0.88,0.49,-0.31,0.73,0.21,-0.33,0.88,-6.65,3.11,-5.43,1742259173.402399
0.02,0.46,0.89,-0.49,0.37,0.98,0.21,-0.31,0.95,4.94,6.53,17.82,1742259173.516184
0.02,0.49,0.88,-4.33,-1.16,1.65,0.29,-0.26,0.88,2.38,14.04,7.57,1742259173.6292071
0.02,0.48,0.88,-1.04,-0.24,-1.46,0.25,-0.27,0.95,-15.44,5.43,-24.96,1742259173.742416
0.02,0.51,0.87,-3.97,0.79,0.18,0.29,-0.3,0.88,6.29,14.47,-4.33,1742259173.8563058
0.02,0.49,0.88,-3.6,2.44,2.99,0.32,-0.31,0.87,9.28,14.16,3.66,1742259173.975327
0.02,0.5,0.88,-1.71,13.85,22.22,0.34,-0.32,0.86,2.81,6.1,0.55,1742259174.083223
0.02,0.52,0.82,16.24,-10.13,20.69,0.34,-0.32,0.88,1.71,2.38,-2.14,1742259174.1972969
-0.07,0.48,0.88,40.1,-38.15,-3.17,0.33,-0.33,0.87,-3.85,-1.95,-1.22,1742259174.314398
-0.09,0.42,0.9,30.4,-24.23,-12.45,0.35,-0.33,0.85,1.28,1.59,1.1,1742259174.425339
-0.12,0.37,0.92,-2.62,8.79,3.91,0.36,-0.31,0.88,8.06,29.24,3.78,1742259174.5392032
0.98,0.16,-0.15,-5.07,-4.64,1.1,-0.11,-0.11,1.05,-6.71,5.49,-1.53,1742250140.8265212
0.96,0.15,-0.14,2.08,-1.22,0.67,-0.13,-0.09,1.06,-7.75,27.4,10.38,1742250140.9421701
0.97,0.16,-0.13,0.98,7.57,-6.47,-0.02,-0.13,1.01,0.79,41.38,20.45,1742250141.054475
0.98,0.12,-0.19,-10.25,8.54,-20.94,0.02,-0.06,1.01,13.43,21.06,21.18,1742250141.168255
0.98,0.12,-0.19,-5.98,8.48,9.16,0.16,-0.16,0.99,15.38,30.94,9.89,1742250141.2832818
0.97,0.12,-0.22,3.23,10.74,3.42,0.2,-0.14,0.96,8.12,17.94,12.45,1742250141.396257
0.95,0.14,-0.23,3.05,4.15,12.7,0.25,-0.13,0.92,8.61,18.07,4.21,1742250141.510238
0.97,0.19,-0.22,4.33,2.08,8.54,0.26,-0.18,0.94,3.66,2.62,-0.18,1742250141.623492
0.95,0.21,-0.23,1.28,-2.32,22.83,0.27,-0.2,0.96,5.13,15.2,-6.96,1742250141.7421708
0.96,0.32,-0.23,-5.49,-8.06,1.89,0.29,-0.24,0.91,-2.08,12.21,-7.75,1742250141.8514152
0.96,0.23,-0.21,7.63,1.53,-13.24,0.28,-0.19,0.9,-15.26,10.44,-13.31,1742250141.965419
0.96,0.24,-0.21,-0.12,1.89,-15.56,0.3,-0.16,0.92,-13.79,-10.93,-18.07,1742250142.0826108
0.95,0.14,-0.19,21.79,-1.16,-17.15,0.26,-0.18,0.97,-16.05,-11.11,-18.86,1742250142.1934788
0.96,0.12,-0.21,-19.23,3.11,-31.56,0.25,-0.19,0.99,0.67,-3.66,-11.54,1742250142.307283
0.96,0.02,-0.2,1.1,-4.88,13.67,0.22,-0.19,0.94,-1.22,3.11,-13.92,1742250142.421899
0.99,0.11,-0.27,12.7,-6.04,33.14,0.23,-0.19,0.93,3.54,-2.08,-14.95,1742250142.535299
0.96,0.23,-0.17,-3.91,7.32,13.43,0.24,-0.21,0.96,-2.62,-7.63,-12.88,1742250142.649413
0.95,0.2,-0.21,2.14,1.46,18.74,0.22,-0.22,0.98,-0.43,-1.34,-9.83,1742250142.7634099
0.95,0.32,-0.19,-0.43,-5.68,9.89,0.22,-0.24,0.92,5.55,-2.56,-7.39,1742250142.882582
0.94,0.25,-0.2,2.75,-0.24,-1.77,0.19,-0.28,0.96,18.55,-2.38,1.95,1742250142.991246
0.95,0.26,-0.16,1.95,2.14,-4.94,0.2,-0.25,0.95,1.53,-0.85,0.24,1742250143.105259
0.94,0.24,-0.22,0.0,-1.89,0.73,0.19,-0.25,0.96,-1.16,0.92,-0.31,1742250143.219332
0.94,0.28,-0.18,-0.12,-1.71,0.85,0.21,-0.24,0.94,-2.93,7.2,0.61,1742250143.333243
0.94,0.24,-0.16,-3.6,-0.24,-0.24,0.21,-0.25,0.93,1.22,1.22,-0.18,1742250143.447244
0.95,0.28,-0.16,-27.83,-1.22,-3.23,0.2,-0.25,0.93,1.71,-1.53,-1.53,1742250143.56206
0.98,0.2,-0.2,0.85,-12.45,-17.88,0.21,-0.25,0.94,3.23,0.37,-0.55,1742250143.675084
0.97,0.23,-0.19,-6.16,-0.79,-12.88,0.19,-0.26,0.96,-2.14,-2.81,-0.61,1742250143.788438
0.99,0.23,-0.18,-13.06,6.53,-17.88,0.2,-0.25,0.96,-3.85,-1.04,-0.79,1742250143.90242
0.94,0.13,-0.11,10.8,-0.98,3.6,0.22,-0.26,0.91,-24.96,-20.69,-5.98,1742250144.016342
0.9,0.31,-0.1,-13.43,41.02,54.2,0.12,-0.18,1.01,-17.15,-11.23,1.22,1742250144.130235
0.95,0.33,-0.14,188.48,52.67,51.94,0.14,-0.2,0.97,-5.25,-0.98,13.31,1742250144.244232
0.85,0.5,-0.21,197.69,34.85,79.47,0.11,-0.15,0.98,-15.99,-22.89,12.33,1742250144.36215
0.76,0.63,0.05,197.94,21.12,49.44,0.05,-0.16,0.97,1.28,-19.53,11.41,1742250144.4720929
0.68,0.77,0.28,286.19,-65.12,99.79,-0.0,-0.1,1.03,-12.39,-23.01,4.88,1742250144.586369
0.41,0.41,0.75,169.86,-36.68,46.45,0.02,-0.1,0.99,-11.05,3.11,-3.36,1742250144.704703
0.3,0.58,0.85,27.65,-59.33,34.61,0.04,-0.12,1.0,-16.05,-2.5,-6.84,1742250144.8143392
0.32,0.44,0.8,-5.07,-22.64,12.45,0.05,-0.08,1.0,6.65,6.9,10.38,1742250144.927989
0.21,0.54,0.94,13.61,-23.19,16.3,-0.03,-0.08,0.99,-0.37,-6.1,-8.06,1742250145.041449
0.15,0.5,0.86,-12.27,-9.52,-2.87,-0.04,-0.13,0.99,25.33,15.99,7.51,1742250145.155225
0.1,0.45,0.88,-7.45,2.01,-4.58,0.06,-0.23,0.94,92.65,-8.91,29.91,1742250145.269064
0.17,0.67,0.82,-106.26,-1.28,-47.55,0.09,-0.27,0.97,5.74,17.52,3.91,1742250145.381972
0.21,0.76,0.67,-108.83,-33.69,-76.72,0.1,-0.33,0.94,-4.09,-0.98,4.82,1742250145.495221
0.29,0.81,0.55,-60.12,-38.7,-75.07,0.08,-0.33,0.96,-8.61,2.5,9.58,1742250145.609092
0.38,0.68,0.5,-77.03,-42.05,-64.03,0.09,-0.29,0.95,-6.59,4.03,20.2,1742250145.725159
0.4,0.74,0.48,-46.75,-8.24,-32.17,0.13,-0.23,0.96,3.11,0.61,23.99,1742250145.841829
0.45,0.72,0.36,-2.81,39.0,4.27,0.13,-0.24,0.97,4.33,5.8,16.72,1742250145.9499478
0.43,0.86,0.36,80.81,60.0,51.09,0.16,-0.24,0.97,9.89,25.02,13.18,1742250146.0629802
0.47,0.81,0.38,54.63,77.64,28.69,0.21,-0.2,0.93,15.44,24.48,-11.47,1742250146.176086
0.53,0.8,0.34,38.09,56.03,0.43,0.22,-0.32,0.9,16.24,16.78,-32.59,1742250146.290091
0.53,0.8,0.37,12.45,17.27,-18.62,0.28,-0.37,0.83,41.44,17.58,-20.69,1742250146.404067
0.55,0.73,0.39,-2.38,7.14,-17.94,0.28,-0.54,0.79,9.58,27.77,-18.68,1742250146.521642
0.57,0.66,0.39,-95.46,-15.99,-13.37,0.31,-0.52,0.8,123.29,-41.56,-36.44,1742250146.632159
0.58,0.74,0.24,-97.84,6.29,-12.27,0.25,-0.79,0.62,36.25,-40.28,2.62,1742250146.7460601
0.61,0.76,0.13,-47.85,37.23,-15.75,0.22,-0.75,0.66,15.44,-39.49,26.25,1742250146.861233
0.62,0.84,-0.02,-18.01,83.92,-14.89,0.2,-0.68,0.69,3.42,-16.05,21.48,1742250146.9729779
0.64,0.76,-0.18,12.82,103.88,-15.75,0.15,-0.67,0.69,-35.34,-36.13,4.76,1742250147.087085
0.64,0.69,-0.23,63.23,42.72,-4.7,0.1,-0.6,0.79,-25.33,-8.42,-5.92,1742250147.204664
0.62,0.81,-0.2,58.96,21.79,3.66,0.12,-0.62,0.72,-15.01,-0.12,-12.15,1742250147.3151202
0.62,0.79,-0.16,43.09,7.81,5.74,0.11,-0.62,0.76,-8.18,-13.24,-2.01,1742250147.42917
0.62,0.79,-0.12,29.11,1.71,-1.71,0.08,-0.58,0.79,0.18,-18.49,2.5,1742250147.5429718
0.63,0.76,-0.02,21.0,-4.21,3.91,0.05,-0.57,0.83,5.43,-9.58,-1.34,1742250147.657779
0.6,0.8,0.01,29.54,-0.61,5.07,0.06,-0.57,0.8,-2.44,10.56,-3.36,1742250147.7711291
0.58,0.78,0.05,12.33,-8.06,10.93,0.07,-0.6,0.82,1.89,20.69,-0.73,1742250147.88495
0.53,0.85,0.1,15.56,-19.47,21.24,0.13,-0.58,0.73,-15.99,8.3,-1.28,1742250148.002142
0.5,0.78,0.11,-10.99,-30.94,37.9,0.1,-0.56,0.83,-7.57,-1.53,-6.1,1742250148.112163
0.46,0.91,0.17,5.25,-17.15,17.88,0.11,-0.56,0.82,2.69,5.62,-3.42,1742250148.225914
0.49,0.88,0.23,20.39,24.66,3.6,0.11,-0.56,0.82,1.1,4.39,-0.67,1742250148.3422332
0.51,0.82,0.32,107.73,41.93,-0.43,0.12,-0.56,0.81,7.32,2.69,0.24,1742250148.4538949
0.55,1.04,0.38,115.42,61.77,8.61,0.1,-0.56,0.82,4.88,4.09,5.74,1742250148.566817
0.56,0.8,0.32,33.33,-14.04,-25.7,0.14,-0.56,0.79,3.6,-0.31,-1.83,1742250148.683597
0.52,0.52,0.48,88.5,-34.97,-52.12,0.12,-0.6,0.84,-5.92,2.08,-0.06,1742250148.7940962
0.46,0.49,0.58,84.35,-81.24,16.91,0.15,-0.56,0.75,3.91,5.62,-0.43,1742250148.907937
0.25,0.46,0.84,56.34,-76.66,37.96,0.14,-0.57,0.83,0.55,-0.12,1.04,1742250149.02194
0.11,0.33,0.81,39.0,-71.35,46.39,0.15,-0.53,0.81,2.14,2.38,-0.85,1742250149.1360698
-0.08,0.36,0.92,40.83,-69.21,56.82,0.13,-0.58,0.81,-3.72,-2.38,-7.14,1742250149.250219
-0.22,0.3,1.01,41.38,-46.2,45.59,0.15,-0.58,0.79,-1.53,2.44,-7.75,1742250149.364084
-0.09,0.13,0.94,34.55,22.95,6.71,0.14,-0.59,0.8,-0.12,3.54,-2.5,1742250149.481353
-0.1,0.1,0.95,11.84,-8.36,-8.73,0.15,-0.57,0.79,2.87,0.61,-0.12,1742250149.591957
-0.15,0.14,0.94,4.46,1.34,2.08,0.13,-0.58,0.8,2.32,0.31,1.22,1742250149.706005
-0.1,0.14,1.02,-5.31,16.11,-18.13,0.15,-0.58,0.81,-5.19,-0.73,-0.12,1742250149.822092
-0.04,0.18,0.98,-25.02,17.03,-28.87,0.14,-0.58,0.78,2.75,3.97,0.0,1742250149.933835
0.01,0.23,0.97,3.91,-7.2,-43.76,0.14,-0.58,0.81,1.46,-0.49,1.46,1742250150.04782
-0.03,0.16,0.98,3.66,-17.46,-36.32,0.13,-0.56,0.82,-0.24,5.07,-1.59,1742250150.162251
-0.07,0.09,0.93,0.85,-6.65,-35.71,0.15,-0.59,0.79,-1.83,3.05,-6.1,1742250150.2749708
-0.08,0.09,0.92,-29.3,-21.85,-21.61,0.16,-0.58,0.8,0.43,4.15,-3.72,1742250150.3888042
-0.15,0.18,0.98,-28.26,-15.81,-26.49,0.17,-0.59,0.78,-1.1,-0.49,-1.53,1742250150.5030909
-0.13,0.23,0.96,18.98,-18.01,-11.17,0.14,-0.58,0.8,2.08,0.61,1.34,1742250150.618836
-0.17,0.19,0.94,10.99,-20.26,-4.64,0.16,-0.56,0.79,-0.92,1.65,-3.97,1742250150.729953
-0.2,0.17,0.94,6.84,-9.46,-6.23,0.15,-0.6,0.79,-1.16,0.43,-3.23,1742250150.844008
-0.22,0.17,0.96,-0.31,-0.06,-2.69,0.16,-0.58,0.79,-0.06,1.04,-1.1,1742250150.961956
-0.22,0.19,0.93,-4.39,-2.01,-0.43,0.15,-0.58,0.78,-1.34,-1.59,-1.22,1742250151.072087
-0.23,0.17,0.97,-1.28,-5.74,1.28,0.15,-0.58,0.79,1.34,-0.98,-0.73,1742250151.185947
-0.22,0.19,0.92,-7.45,-3.05,1.46,0.14,-0.58,0.81,-3.66,-2.62,-1.46,1742250151.301161
-0.22,0.2,0.91,1.4,-1.1,-1.4,0.13,-0.57,0.8,-3.11,-0.61,-0.55,1742250151.41397
-0.26,0.18,0.96,0.92,-0.92,4.33,0.14,-0.55,0.79,0.24,-0.43,-0.06,1742250151.527966
-0.28,0.24,0.97,-12.94,13.92,5.55,0.14,-0.57,0.8,-0.85,-3.11,-1.89,1742250151.642078
-0.25,0.3,0.95,-18.07,25.45,-10.25,0.12,-0.56,0.83,-1.65,2.62,-3.23,1742250151.7558799
-0.25,0.33,0.88,-18.49,21.36,-33.94,0.13,-0.57,0.8,-3.11,1.16,-7.45,1742250151.870108
-0.27,0.59,0.86,-16.72,-0.24,-47.24,0.13,-0.59,0.8,-1.83,-2.99,-3.6,1742250151.983934
-0.08,0.46,0.86,-9.09,-2.01,-61.4,0.12,-0.59,0.79,-0.55,-5.98,2.56,1742250152.101522
-0.02,0.35,0.9,50.66,4.03,-49.56,0.1,-0.58,0.81,1.89,-8.79,5.43,1742250152.2117388
0.09,0.12,0.92,19.65,17.58,-45.35,0.09,-0.56,0.8,0.49,-5.98,8.0,1742250152.324749
0.12,0.12,0.9,41.02,36.74,-13.49,0.09,-0.53,0.82,-2.38,-6.9,-1.4,1742250152.441945
0.14,0.1,1.01,11.11,15.69,-3.3,0.08,-0.58,0.83,2.62,-5.31,-3.3,1742250152.5528262
0.2,0.06,0.96,21.06,11.54,5.74,0.08,-0.57,0.8,2.2,-1.46,-0.06,1742250152.66682
0.13,0.13,1.12,-20.2,11.6,-11.11,0.06,-0.59,0.78,4.7,-2.93,-0.55,1742250152.781079
0.23,0.09,0.91,-8.24,21.0,5.19,0.06,-0.61,0.81,1.22,-5.55,2.14,1742250152.894721
0.26,0.18,0.9,-21.67,8.48,-18.13,0.06,-0.55,0.85,-4.15,-13.98,7.45,1742250153.0088341
0.24,0.15,0.92,-44.8,0.31,-18.92,0.04,-0.61,0.81,-14.83,1.83,-2.93,1742250153.122846
0.22,0.28,0.99,-12.88,0.92,-0.24,0.06,-0.57,0.78,-11.47,-14.83,12.51,1742250153.241151
0.28,0.3,0.93,-39.37,16.11,-17.4,0.05,-0.53,0.84,5.31,-16.54,14.34,1742250153.3507378
0.31,0.23,0.9,-19.96,-4.52,-19.53,0.02,-0.55,0.84,-1.4,-10.25,6.04,1742250153.464855
0.31,0.32,0.9,10.5,14.77,1.77,0.02,-0.54,0.85,0.37,-2.99,7.57,1742250153.580896
0.42,0.27,0.9,14.34,49.56,-9.58,0.02,-0.54,0.83,-1.89,0.49,2.62,1742250153.6927
0.35,0.27,0.83,30.4,-1.34,22.03,0.03,-0.54,0.81,-2.32,6.59,-2.87,1742250153.8068511
0.35,0.3,0.92,17.09,3.05,33.45,0.09,-0.52,0.83,-20.39,20.81,-12.94,1742250153.921969
0.33,0.31,0.87,28.93,-8.48,22.58,0.08,-0.53,0.86,-56.52,38.64,-5.25,1742250154.034772
0.32,0.32,0.86,18.98,-8.3,13.49,0.15,-0.31,0.94,-41.99,27.77,-14.53,1742250154.148742
0.34,0.27,0.93,9.03,15.08,0.55,0.2,-0.32,0.94,-18.8,25.76,-21.36,1742250154.262812
0.34,0.27,0.91,8.36,17.88,-5.62,0.19,-0.39,0.91,-27.77,15.5,-23.5,1742250154.380824
0.38,0.18,0.84,43.64,-11.41,32.17,0.26,-0.31,0.86,-27.89,9.22,-32.71,1742250154.49154
0.39,0.29,0.9,47.67,-34.3,107.85,0.21,-0.28,1.01,-23.56,10.07,-32.35,1742250154.604867
0.26,0.27,0.94,13.24,-14.59,11.78,0.23,-0.29,0.88,-21.36,-8.18,-29.36,1742250154.7188601
0.26,0.13,0.96,7.81,11.96,2.56,0.22,-0.24,0.93,-8.24,0.06,-19.84,1742250154.832743
0.21,0.09,1.0,13.61,-6.71,3.36,0.22,-0.18,0.95,-11.84,-4.64,-20.32,1742250154.946849
0.23,0.09,0.96,3.42,-0.98,1.28,0.16,-0.31,0.96,5.19,9.09,-17.64,1742250155.0618398
0.28,0.09,0.99,-5.13,-1.28,3.91,0.18,-0.32,0.97,31.19,21.06,-0.43,1742250155.1746528
0.29,0.24,0.77,-18.86,26.12,10.44,0.27,-0.46,0.82,40.22,1.34,32.59,1742250155.288564
0.32,0.1,0.95,4.27,42.18,4.21,0.27,-0.33,0.88,67.81,-42.72,73.18,1742250155.401679
0.43,0.12,0.94,-3.78,18.07,-1.28,0.19,-0.3,0.93,-13.67,-24.78,42.42,1742250155.515789
0.4,0.18,0.87,-6.16,17.4,1.4,0.21,-0.33,0.91,1.95,1.53,26.55,1742250155.62958
0.44,0.16,0.81,6.53,0.67,-8.0,0.22,-0.25,0.93,-18.55,-5.62,-25.39,1742250155.742815
0.43,0.08,0.86,16.91,-30.15,-14.34,0.21,-0.48,0.91,-10.38,4.76,-0.98,1742250155.857168
0.42,0.01,1.0,-22.52,-9.89,-0.18,0.25,-0.34,0.88,5.07,0.31,1.83,1742250155.970776
0.0,-0.25,1.16,-206.6,-139.95,-62.99,0.23,-0.34,0.96,2.56,-4.64,5.92,1742250156.083651
0.13,0.36,0.78,-42.54,251.34,134.77,0.23,-0.35,0.9,47.06,-10.07,-24.05,1742250156.197762
0.36,0.76,0.36,103.76,27.59,211.43,0.14,-0.52,0.8,46.81,-2.75,-17.33,1742250156.327101
0.17,0.83,0.45,-96.5,-103.15,62.87,0.17,-0.69,0.66,35.03,41.56,-65.61,1742250156.4257002
0.15,0.69,0.6,-42.42,-39.98,-8.3,0.18,-0.71,0.72,-29.17,-7.81,-18.8,1742250156.541961
-0.12,1.05,0.76,0.92,-15.69,-11.6,0.07,-0.46,0.79,-28.32,-0.85,0.31,1742250156.653763
-0.05,0.89,0.58,22.46,21.73,-18.62,0.25,-0.34,0.98,41.63,25.27,-5.49,1742250156.767951
0.07,0.8,0.63,47.97,45.1,-36.62,0.15,-0.47,0.77,10.62,14.04,-9.77,1742250156.882475
0.2,0.86,0.62,-21.06,28.93,-40.77,0.19,-0.6,0.82,19.84,29.17,2.56,1742250156.995438
0.27,0.74,0.57,-2.93,-12.76,-28.2,0.27,-0.6,0.69,4.39,17.03,-4.09,1742250157.10849
0.27,0.7,0.6,-11.78,-28.69,-20.02,0.23,-0.73,0.77,1.77,13.18,-10.74,1742250157.2243001
0.25,0.7,0.65,-11.29,-33.33,-22.09,0.28,-0.64,0.65,-18.25,0.24,-8.06,1742250157.3419409
0.27,0.71,0.68,-8.85,-25.33,-21.97,0.24,-0.68,0.78,-3.6,7.32,-17.4,1742250157.450656
0.26,0.69,0.72,-11.9,-10.93,-14.77,0.26,-0.59,0.72,-31.25,12.33,-1.83,1742250157.564666
0.21,0.68,0.79,40.77,12.82,-26.12,0.28,-0.49,0.82,-15.75,17.88,0.73,1742250157.680811
0.33,0.56,0.65,4.7,-19.9,3.78,0.27,-0.51,0.76,-8.91,3.66,-0.12,1742250157.7926972
0.21,0.72,0.72,2.08,-4.82,-3.11,0.31,-0.51,0.83,-3.23,-0.98,-2.08,1742250157.906941
0.27,0.67,0.76,5.0,-12.7,-5.31,0.29,-0.47,0.8,-8.3,0.61,-7.51,1742250158.022527
0.22,0.67,0.71,8.91,-14.28,-6.59,0.28,-0.52,0.83,-4.46,-4.15,-5.74,1742250158.134926
0.21,0.66,0.74,18.25,-13.67,-9.64,0.27,-0.52,0.82,-9.64,-0.79,4.15,1742250158.2486598
0.22,0.72,0.72,1.28,-2.81,-4.21,0.33,-0.4,0.81,-7.81,-4.76,-1.46,1742250158.362766
0.21,0.6,0.72,13.06,4.33,-3.48,0.29,-0.47,0.84,-5.25,0.55,0.85,1742250158.47733
0.23,0.68,0.74,-1.65,-1.95,-1.04,0.28,-0.45,0.85,1.46,0.85,2.32,1742250158.590465
0.21,0.65,0.74,-1.65,-1.34,-1.71,0.32,-0.4,0.84,-1.59,-1.16,0.55,1742250158.704948
0.25,0.62,0.74,-4.94,-1.28,-2.38,0.28,-0.46,0.85,-1.95,-1.1,1.65,1742250158.8224692
0.22,0.65,0.73,4.82,-7.26,-1.34,0.28,-0.43,0.85,-8.91,-5.74,4.27,1742250158.9326699
0.19,0.67,0.73,-1.16,-4.88,2.99,0.28,-0.44,0.86,-7.81,-6.41,2.87,1742250159.046678
0.17,0.68,0.89,28.63,24.9,9.7,0.27,-0.42,0.87,-17.46,-9.95,4.09,1742250159.1636071
0.31,0.65,0.72,25.33,63.23,-26.12,0.26,-0.38,0.87,-10.01,-8.12,-1.71,1742250159.274755
0.4,0.76,0.56,-127.01,5.98,-120.06,0.23,-0.39,0.89,-13.85,-13.73,-4.64,1742250159.3886561
0.61,0.62,0.48,-109.92,12.15,-134.09,0.2,-0.34,0.9,-15.5,-9.83,-1.59,1742250159.502787
0.68,0.69,0.33,-160.89,8.18,-103.15,0.2,-0.31,0.94,-12.7,-7.2,-6.04,1742250159.6216152
0.8,0.54,0.1,-218.99,-17.4,-77.15,0.21,-0.3,0.93,-7.02,2.75,-8.91,1742250159.730557
0.89,0.41,-0.02,-122.13,-33.57,-49.01,0.19,-0.32,0.93,0.67,6.47,8.42,1742250159.844457
0.89,0.38,0.0,-64.7,-37.84,-13.24,0.22,-0.28,0.92,4.58,5.98,9.89,1742250159.9612968
0.9,0.37,0.0,-44.01,-12.94,0.37,0.23,-0.29,0.91,0.61,-7.75,6.59,1742250160.071414
0.93,0.44,-0.08,-23.68,-9.16,-0.31,0.22,-0.31,0.96,-2.14,0.06,3.05,1742250160.185409
0.93,0.36,-0.04,-7.69,-5.49,-10.13,0.23,-0.32,0.93,0.0,10.38,2.99,1742250160.3023639
0.93,0.34,-0.04,-17.88,-3.6,-8.73,0.25,-0.32,0.88,2.56,5.25,3.11,1742250160.412328
0.95,0.37,-0.04,-13.67,1.16,-11.96,0.25,-0.32,0.91,0.31,-2.26,0.92,1742250160.5254269
0.95,0.32,-0.06,7.26,1.04,-9.77,0.27,-0.31,0.89,2.69,-2.75,-0.43,1742250160.6435862
0.93,0.31,-0.05,10.86,-9.89,1.59,0.22,-0.33,0.93,1.22,-4.21,-0.85,1742250160.753533
0.93,0.32,-0.03,-5.43,1.04,-0.31,0.24,-0.34,0.93,-1.77,-3.6,1.34,1742250160.8675368
0.93,0.33,-0.04,7.81,0.31,0.85,0.24,-0.32,0.92,1.16,3.66,2.69,1742250160.982055
0.95,0.31,-0.05,10.5,-1.4,-3.85,0.24,-0.33,0.91,0.98,2.08,0.55,1742250161.094305
0.94,0.3,-0.05,8.54,-6.71,1.53,0.25,-0.32,0.92,-0.43,-0.55,2.93,1742250161.2075598
0.92,0.28,-0.02,11.54,-0.85,4.7,0.24,-0.32,0.91,-0.85,0.0,1.1,1742250161.321408
0.91,0.33,0.03,29.24,-2.2,15.69,0.24,-0.31,0.91,-1.04,-0.85,-0.24,1742250161.4356601
0.89,0.42,0.05,67.69,15.99,23.74,0.25,-0.32,0.91,-2.01,-1.83,-0.55,1742250161.549623
0.87,0.45,0.12,114.75,22.52,50.9,0.24,-0.32,0.93,0.12,-1.59,2.5,1742250161.663459
0.85,0.49,0.16,143.74,26.86,77.15,0.26,-0.29,0.91,1.16,-0.43,8.0,1742250161.782142
0.8,0.43,0.24,174.8,-10.56,90.21,0.2,-0.31,0.89,-6.41,-15.69,-20.26,1742250161.891646
0.55,0.92,0.49,122.38,-8.36,75.68,0.2,-0.37,0.91,11.29,2.44,-4.94,1742250162.005431
0.53,0.69,0.61,21.06,-13.85,63.78,0.21,-0.37,0.93,4.21,2.14,4.27,1742250162.121581
0.5,0.65,0.62,40.16,-13.67,45.17,0.26,-0.3,0.91,-11.78,11.84,13.61,1742250162.233351
0.42,0.6,0.67,31.74,-4.21,30.09,0.26,-0.38,0.89,4.27,2.81,3.05,1742250162.346217
0.37,0.64,0.75,24.6,-5.13,15.87,0.28,-0.33,0.9,-3.66,-0.73,4.21,1742250162.461586
0.37,0.58,0.76,3.23,-3.6,-3.66,0.28,-0.32,0.89,-2.62,0.43,1.1,1742250162.5733151
0.38,0.57,0.72,0.98,1.1,-5.07,0.28,-0.33,0.89,2.08,2.69,0.85,1742250162.687222
0.38,0.58,0.74,1.83,-1.28,-5.86,0.28,-0.35,0.89,8.61,3.11,6.35,1742250162.802082
0.38,0.48,0.65,-0.98,-3.23,6.16,0.3,-0.35,0.88,9.16,1.4,9.34,1742250162.913356
0.31,0.61,0.77,27.16,-23.32,18.49,0.32,-0.35,0.87,13.73,3.11,14.16,1742250163.027243
0.34,0.59,0.79,-6.35,-4.76,-1.1,0.32,-0.35,0.87,1.04,2.38,13.06,1742250163.1416562
0.31,0.58,0.76,-0.85,7.63,2.99,0.3,-0.43,0.87,4.09,2.93,2.69,1742250163.2532392
0.32,0.57,0.76,4.82,2.81,-0.06,0.34,-0.34,0.88,-7.45,-0.79,3.05,1742250163.366333
0.33,0.56,0.75,2.32,3.42,0.73,0.33,-0.38,0.86,1.65,0.06,-0.37,1742250163.482122
0.32,0.55,0.76,2.14,-1.4,-1.65,0.34,-0.35,0.88,1.71,2.2,1.04,1742250163.594124
0.33,0.57,0.75,-0.79,-2.56,-0.12,0.32,-0.41,0.85,2.5,-0.55,1.65,1742250163.707231
0.33,0.57,0.74,-1.83,2.5,-1.16,0.34,-0.37,0.88,6.1,-0.18,4.39,1742250163.821311
0.33,0.57,0.76,3.36,6.71,2.93,0.34,-0.38,0.85,5.62,-1.04,2.08,1742250163.9345798
0.33,0.56,0.73,1.53,1.59,3.05,0.35,-0.35,0.86,0.18,-0.55,-1.1,1742250164.0483441
0.34,0.58,0.74,1.28,1.53,3.3,0.32,-0.38,0.87,-5.55,-5.62,-4.46,1742250164.162668
0.34,0.56,0.76,4.15,-1.4,0.0,0.33,-0.37,0.86,-23.68,-15.08,-10.68,1742250164.276455
0.32,0.57,0.76,3.72,-1.1,-0.49,0.29,-0.39,0.85,6.65,-3.3,-4.58,1742250164.390353
0.33,0.55,0.76,4.15,0.49,-0.24,0.31,-0.34,0.91,-2.5,-0.79,-1.4,1742250164.504433
0.33,0.55,0.77,4.52,0.12,-0.18,0.29,-0.36,0.86,2.08,-0.24,-0.55,1742250164.62161
0.33,0.53,0.77,2.93,0.24,-0.85,0.3,-0.35,0.88,1.71,0.12,-0.85,1742250164.7322361
0.34,0.54,0.77,0.67,-0.85,-0.61,0.29,-0.35,0.88,-0.61,0.37,-0.06,1742250164.846328
0.33,0.53,0.77,1.28,-0.79,-0.49,0.29,-0.37,0.87,-0.37,-1.22,-1.53,1742250164.96101
0.33,0.54,0.78,0.92,-0.73,-0.55,0.29,-0.37,0.88,0.06,-1.77,-5.31,1742250165.074315
0.33,0.55,0.78,0.67,-0.61,-0.06,0.28,-0.37,0.9,-5.68,-5.43,-5.0,1742250165.188412
0.33,0.54,0.78,2.5,-1.65,-0.12,0.26,-0.35,0.91,-5.62,-3.3,-2.38,1742250165.3024058
0.32,0.55,0.79,0.18,-2.87,0.31,0.26,-0.35,0.9,-5.62,-2.2,-0.37,1742250165.416445
0.32,0.54,0.78,0.49,-0.92,-0.12,0.26,-0.34,0.9,-0.67,-1.28,0.67,1742250165.530305
0.32,0.54,0.78,0.06,-1.22,0.06,0.26,-0.32,0.91,-2.26,-1.28,0.92,1742250165.64435
0.32,0.55,0.78,0.12,-1.22,-0.37,0.26,-0.34,0.91,-2.62,-1.1,-0.18,1742250165.7616918
0.32,0.54,0.79,2.26,-0.49,-0.67,0.25,-0.33,0.91,-0.98,-0.98,0.37,1742250165.8723662
0.31,0.52,0.79,1.28,-1.16,-0.67,0.25,-0.33,0.92,0.24,-0.06,-0.18,1742250165.986331
0.31,0.52,0.79,1.53,-0.37,-0.37,0.25,-0.32,0.92,-1.22,-0.24,0.0,1742250166.10129
0.31,0.52,0.79,0.43,-0.06,-0.37,0.25,-0.33,0.9,-0.85,-0.06,-0.37,1742250166.214456
0.31,0.52,0.79,0.43,0.24,-0.37,0.25,-0.33,0.91,0.18,0.0,-0.06,1742250166.32823
0.31,0.52,0.79,0.12,0.24,-0.06,0.25,-0.33,0.91,0.79,-0.06,-0.49,1742250166.442299
0.31,0.52,0.8,-0.37,0.0,0.37,0.25,-0.32,0.9,2.14,0.55,-0.18,1742250166.556162
0.31,0.52,0.78,-0.43,-0.43,-0.06,0.26,-0.35,0.91,0.85,-2.44,-1.04,1742250166.670357
0.31,0.52,0.79,0.61,-0.06,-0.18,0.25,-0.34,0.91,-1.46,0.06,0.0,1742250166.7841
0.32,0.52,0.79,-0.55,-0.18,0.12,0.25,-0.33,0.9,-0.18,-0.18,0.67,1742250166.901767
0.31,0.52,0.79,-0.61,0.24,0.0,0.25,-0.33,0.92,0.18,-2.01,1.46,1742250167.012264
0.31,0.52,0.79,0.12,0.55,-0.18,0.25,-0.33,0.91,-1.22,-1.04,-0.92,1742250167.1263099
0.31,0.52,0.78,0.18,-0.31,-0.18,0.24,-0.3,0.94,1.65,0.73,0.12,1742250167.240821
0.31,0.53,0.79,0.37,0.18,-0.31,0.26,-0.33,0.9,5.68,1.34,0.61,1742250167.353055
0.31,0.53,0.78,-0.12,-0.43,-0.12,0.24,-0.33,0.92,0.24,-0.31,0.0,1742250167.466103
0.31,0.53,0.79,0.24,-0.55,0.24,0.25,-0.32,0.91,0.98,0.0,-0.31,1742250167.5813398
0.31,0.52,0.79,0.24,-0.37,0.06,0.24,-0.33,0.91,0.49,0.49,-0.37,1742250167.69409
0.31,0.52,0.79,0.43,-0.43,-0.06,0.25,-0.32,0.92,0.85,0.06,-0.18,1742250167.808136
0.31,0.52,0.79,-0.12,-0.18,-0.18,0.25,-0.33,0.9,-0.55,0.24,0.06,1742250167.9221592
0.31,0.52,0.79,0.0,0.06,-0.06,0.25,-0.34,0.91,0.06,-0.37,-0.43,1742250168.0362492
0.31,0.52,0.79,0.43,0.06,-0.12,0.25,-0.34,0.91,1.28,0.43,-0.37,1742250168.150147
0.31,0.52,0.79,0.43,-0.12,-0.18,0.24,-0.33,0.91,0.61,0.31,0.0,1742250168.264016
0.3,0.52,0.79,0.12,0.18,-0.06,0.25,-0.33,0.91,0.55,0.31,-0.24,1742250168.380845
0.31,0.52,0.79,0.37,0.12,-0.37,0.24,-0.34,0.91,-1.04,-0.18,-0.43,1742250168.491231
0.31,0.52,0.79,-0.43,0.43,-0.24,0.24,-0.33,0.91,0.37,0.06,-0.12,1742250168.605073
0.31,0.53,0.79,0.55,-0.31,0.0,0.25,-0.33,0.91,-0.31,-0.31,0.0,1742250168.7183092
0.3,0.52,0.79,0.98,0.0,-0.12,0.25,-0.34,0.91,-0.12,0.06,0.06,1742250168.832031
0.31,0.53,0.79,0.0,0.12,-0.18,0.24,-0.33,0.91,-0.43,-0.18,0.18,1742250168.9461
0.31,0.53,0.79,-0.73,0.24,-0.24,0.25,-0.34,0.91,0.12,-0.06,-0.43,1742250169.0610409
0.31,0.52,0.79,0.18,0.0,-0.18,0.24,-0.33,0.91,0.31,0.43,0.0,1742250169.173901
0.31,0.52,0.79,0.24,0.18,-0.06,0.25,-0.33,0.91,1.59,-0.67,-0.37,1742250169.2871501
0.3,0.53,0.79,-0.12,-0.12,-0.18,0.24,-0.34,0.91,1.22,0.12,-0.12,1742250169.401014
0.31,0.53,0.79,0.49,-0.37,-0.18,0.24,-0.34,0.91,0.12,0.0,0.24,1742250169.5149498
0.3,0.52,0.79,2.14,-0.31,-0.18,0.25,-0.34,0.91,1.16,0.12,0.0,1742250169.6279428
0.3,0.52,0.79,1.53,-0.18,-0.12,0.25,-0.33,0.91,0.98,0.06,-0.06,1742250169.74103
0.3,0.52,0.79,1.04,-0.18,-0.12,0.25,-0.34,0.91,-0.43,-0.06,0.12,1742250169.8551471
0.3,0.52,0.79,0.55,-0.18,-0.24,0.24,-0.34,0.91,0.12,0.24,0.24,1742250169.968933
0.3,0.52,0.8,0.31,-0.06,-0.06,0.25,-0.34,0.91,-0.18,-0.49,0.18,1742250170.082129
0.3,0.52,0.8,-0.06,-0.12,-0.24,0.24,-0.34,0.9,0.43,-0.12,0.0,1742250170.1960151
0.3,0.52,0.8,0.49,-0.61,-0.24,0.25,-0.34,0.91,0.37,-0.06,-0.18,1742250170.3091352
0.3,0.52,0.8,2.01,-0.12,-0.18,0.25,-0.34,0.9,-0.06,0.31,-0.12,1742250170.423095
0.3,0.51,0.8,0.79,-0.43,-0.18,0.24,-0.34,0.91,-0.06,0.0,0.06,1742250170.540095
0.3,0.51,0.8,0.12,0.06,-0.18,0.24,-0.34,0.91,-0.06,0.06,-0.12,1742250170.651124
0.3,0.51,0.8,0.67,0.31,-0.06,0.24,-0.35,0.91,-0.24,-0.73,-0.37,1742250170.765242
0.3,0.51,0.8,0.0,0.67,-0.06,0.24,-0.34,0.91,0.18,0.37,-0.24,1742250170.880639
0.3,0.51,0.8,-0.79,0.06,-0.12,0.25,-0.35,0.9,-0.31,-0.18,-0.24,1742250170.993203
0.3,0.51,0.8,0.0,0.61,0.0,0.25,-0.34,0.91,0.31,-0.12,-0.12,1742250171.107117
0.3,0.51,0.8,0.06,0.24,-0.12,0.24,-0.34,0.91,-0.24,0.37,-0.31,1742250171.223475
0.3,0.51,0.8,-0.24,0.24,-0.24,0.25,-0.34,0.91,-1.34,-0.43,-0.37,1742250171.335264
0.3,0.51,0.8,-0.31,0.37,-0.24,0.25,-0.34,0.9,0.43,0.49,-0.79,1742250171.449023
0.3,0.51,0.8,0.37,0.0,-0.12,0.25,-0.34,0.91,0.24,-0.18,0.18,1742250171.5629811
0.3,0.51,0.8,0.18,0.24,-0.18,0.24,-0.33,0.9,-0.31,-0.31,0.0,1742250171.677032
0.3,0.51,0.8,-0.85,0.18,-0.24,0.25,-0.34,0.91,0.55,0.0,-0.06,1742250171.7909079
0.3,0.51,0.8,0.49,0.0,-0.06,0.24,-0.34,0.91,-0.12,0.24,-0.18,1742250171.904006
0.3,0.51,0.8,0.0,0.0,-0.18,0.24,-0.34,0.9,-0.12,-0.24,-0.12,1742250172.019616
0.3,0.51,0.8,0.61,1.34,-1.22,0.24,-0.34,0.91,-0.18,0.37,-0.06,1742250172.132116
0.31,0.51,0.8,0.49,0.0,-0.31,0.24,-0.34,0.91,-1.59,-0.43,-0.18,1742250172.246132
0.3,0.52,0.8,-0.18,-0.18,0.0,0.24,-0.34,0.91,-0.85,-0.18,-0.12,1742250172.360141
0.3,0.52,0.8,-0.49,0.18,-0.18,0.24,-0.34,0.91,-0.43,0.12,-0.18,1742250172.474028
0.3,0.51,0.8,0.55,0.06,-0.31,0.24,-0.34,0.91,-0.31,0.12,0.0,1742250172.587899
0.31,0.52,0.8,0.31,-0.37,-0.06,0.24,-0.34,0.91,-0.43,0.06,0.06,1742250172.702773
0.3,0.51,0.8,0.37,-0.12,-0.06,0.25,-0.34,0.91,0.49,0.37,-0.37,1742250172.8149078
0.3,0.51,0.8,0.18,0.06,-0.18,0.24,-0.34,0.9,1.28,0.31,-0.31,1742250172.9288871
0.3,0.52,0.8,0.18,-0.31,-0.06,0.25,-0.34,0.91,0.61,0.31,0.0,1742250173.041746
0.3,0.52,0.8,0.18,-0.55,-0.06,0.24,-0.34,0.9,-0.18,0.37,0.0,1742250173.154856
0.3,0.51,0.8,0.06,0.0,-0.61,0.24,-0.35,0.91,0.49,0.12,-0.06,1742250173.268878
0.3,0.51,0.8,0.06,0.31,-0.49,0.25,-0.34,0.9,1.95,1.28,1.53,1742250173.38281
0.3,0.5,0.8,-0.24,-0.18,-0.43,0.24,-0.36,0.92,1.71,2.26,4.46,1742250173.4957361
0.3,0.51,0.8,0.98,3.11,-2.75,0.26,-0.34,0.92,1.65,5.31,13.31,1742250173.6088169
0.31,0.52,0.79,-2.08,8.3,-1.77,0.28,-0.29,0.92,7.39,5.43,10.93,1742250173.7231948
0.33,0.53,0.79,-9.64,6.04,-6.47,0.28,-0.36,0.9,1.46,-6.16,4.64,1742250173.834904
0.34,0.5,0.76,-21.79,-15.14,1.53,0.25,-0.47,0.83,39.49,-8.0,9.4,1742250173.948877
0.27,0.56,0.77,-23.19,-19.35,4.33,0.27,-0.46,0.84,19.23,-8.85,18.49,1742250174.062926
0.24,0.66,0.79,-49.99,30.58,34.85,0.28,-0.45,0.84,15.99,-3.91,15.44,1742250174.1769228
0.25,0.72,0.61,-17.03,34.55,34.61,0.28,-0.44,0.86,26.12,-2.81,9.89,1742250174.29089
0.27,0.71,0.6,-23.62,29.79,34.24,0.34,-0.34,0.9,22.4,6.65,-19.29,1742250174.404769
0.22,0.76,0.42,-113.04,59.14,81.79,0.23,-0.63,0.76,-34.97,63.11,-81.97,1742250174.520024
0.07,1.01,0.12,-47.24,-42.18,78.86,0.19,-0.58,0.73,-60.3,-14.4,-104.55,1742250174.632085
-0.03,1.02,0.25,-31.25,-65.61,-2.32,0.09,-0.58,0.77,-15.99,-22.71,-14.47,1742250174.746021
-0.03,1.1,0.09,-148.38,-37.41,-11.29,0.27,-0.41,0.82,-65.55,-5.0,35.95,1742250174.860285
-0.08,1.31,0.04,55.18,34.97,-38.76,-0.05,-0.63,0.85,52.55,-9.16,1.89,1742250174.973894
0.02,1.09,0.15,79.96,11.78,-72.02,-0.03,-0.73,0.8,33.2,7.57,33.63,1742250175.0877812
0.14,0.99,0.22,7.93,4.15,-48.1,0.28,-0.75,0.73,39.06,14.83,37.35,1742250175.2031412
0.23,0.91,0.15,-11.66,12.76,-42.85,0.23,-0.67,0.67,9.09,-15.14,28.38,1742250175.31382
0.3,0.91,0.09,-1.22,26.37,-19.59,0.25,-0.63,0.7,3.17,-13.98,42.05,1742250175.4277508
0.34,0.96,0.0,6.77,47.18,-16.91,0.25,-0.55,0.77,5.74,-16.3,31.56,1742250175.540756
0.46,0.93,-0.05,2.26,40.71,-18.74,0.22,-0.55,0.79,-5.55,-23.5,13.24,1742250175.653954
0.48,0.83,-0.08,1.16,23.13,-8.0,0.2,-0.49,0.81,-20.14,-39.98,-9.89,1742250175.7680142
0.35,0.86,-0.13,23.5,15.75,14.1,0.0,-0.63,0.97,-57.86,-15.99,-1.22,1742250175.882018
0.34,0.91,-0.05,5.19,20.26,33.75,0.12,-0.46,0.82,-51.7,-30.33,-8.79,1742250175.9960032
0.34,1.0,-0.1,-19.71,22.46,39.12,0.08,-0.45,0.88,-30.03,-21.91,4.03,1742250176.109897
0.28,0.96,-0.03,-10.74,6.41,20.63,-0.01,-0.26,0.94,-61.4,-45.47,-16.48,1742250176.224027
0.23,0.98,-0.09,2.75,1.53,16.11,-0.15,-0.17,0.95,-43.58,-27.83,-20.02,1742250176.340215
0.18,1.01,-0.09,-7.93,10.8,30.4,-0.2,-0.1,0.99,-11.11,-6.35,-9.64,1742250176.45203
0.17,1.01,-0.09,7.87,-5.25,13.18,-0.19,-0.06,1.04,-2.75,-4.21,9.7,1742250176.566004
0.09,0.99,-0.05,43.33,-6.71,26.61,-0.18,-0.14,0.91,20.02,-4.94,28.63,1742250176.681637
-0.0,0.99,0.02,59.02,-1.16,23.74,-0.1,-0.1,1.01,14.77,51.21,16.48,1742250176.793694
0.02,1.06,0.12,35.58,35.03,-9.89,-0.04,-0.24,0.94,-8.0,29.42,7.93,1742250176.90677
-0.01,1.06,0.24,30.33,16.85,2.69,0.01,-0.25,0.96,-6.47,22.16,-2.14,1742250177.0207942
-0.05,1.25,0.44,285.64,118.84,14.1,-0.0,-0.12,0.96,4.7,4.76,28.2,1742250177.1346738
0.4,0.45,0.44,103.88,54.87,-23.07,0.03,-0.16,0.97,15.44,13.67,27.4,1742250177.247571
0.5,0.2,0.56,59.69,110.96,-35.64,0.07,-0.16,0.97,5.07,6.9,19.84,1742250177.36062
0.05,0.63,0.83,-66.22,-1.04,-51.57,0.13,-0.27,0.97,9.58,8.79,1.65,1742250177.473621
0.42,0.62,0.6,-110.66,-3.72,-109.92,0.18,-0.32,0.95,6.9,26.43,-32.23,1742250177.5867069
0.44,0.63,0.55,-184.14,-107.6,-130.55,0.21,-0.34,0.93,10.38,13.31,-11.05,1742250177.7033532
0.43,0.89,0.51,-163.57,-101.81,-68.54,0.21,-0.27,0.93,36.99,10.56,-14.89,1742250177.814734
0.51,0.58,0.52,-21.85,-44.07,-41.5,0.16,-0.39,0.88,116.58,2.32,-7.2,1742250177.9287522
0.41,0.73,0.57,-72.63,-13.79,10.19,0.16,-0.56,0.7,99.91,-7.51,2.5,1742250178.042664
0.37,0.92,0.31,-80.44,16.17,13.61,0.16,-0.68,0.69,133.61,2.93,6.65,1742250178.156557
0.38,0.96,0.08,-24.35,11.41,-18.25,0.22,-0.92,0.4,149.17,-21.97,18.01,1742250178.269689
0.51,0.9,0.05,-8.67,-7.32,-34.79,0.3,-0.86,0.28,56.34,-28.63,18.92,1742250178.383692
0.59,0.78,0.08,-8.12,-25.82,-25.02,0.24,-0.95,0.22,11.66,-25.45,10.93,1742250178.500872
0.58,0.79,0.12,-4.7,-35.4,-3.42,0.21,-0.93,0.29,7.2,-39.12,0.12,1742250178.611579
0.58,0.8,0.16,-5.49,-29.48,-1.71,0.2,-0.92,0.33,-3.48,-23.32,0.92,1742250178.72576
0.58,0.81,0.2,15.62,-23.99,-2.56,0.19,-0.9,0.34,-5.43,-20.14,-7.26,1742250178.8411362
0.56,0.79,0.26,-1.28,-29.79,1.16,0.15,-0.91,0.31,10.19,-12.21,-13.37,1742250178.953706
0.51,0.81,0.32,14.71,-18.07,-0.61,0.14,-0.92,0.28,14.22,-12.39,-17.27,1742250179.0678048
0.53,0.8,0.29,-5.37,-17.33,-7.51,0.13,-0.96,0.25,5.49,-20.69,-15.38,1742250179.1824589
0.56,0.74,0.31,-3.05,-28.32,-12.39,0.05,-1.01,0.28,2.5,-24.35,-4.09,1742250179.2957041
0.55,0.71,0.35,-11.9,-20.39,-9.83,0.05,-0.95,0.29,-7.87,-3.91,4.52,1742250179.409693
0.51,0.79,0.4,-4.27,-12.08,0.79,0.06,-0.96,0.27,5.98,-15.5,10.38,1742250179.5235698
0.54,0.78,0.34,-3.78,7.45,-0.85,0.05,-0.95,0.3,-13.67,-1.28,4.82,1742250179.64105
0.54,0.78,0.33,-2.01,-1.53,-4.76,0.08,-0.88,0.34,-16.66,7.87,3.6,1742250179.7516239
0.55,0.75,0.37,11.54,6.53,-7.75,0.07,-0.93,0.35,-4.76,7.81,-1.4,1742250179.86567
0.56,0.73,0.33,12.82,-0.98,-0.37,0.09,-0.93,0.37,6.84,0.06,3.91,1742250179.980955
0.55,0.78,0.28,-55.18,-4.58,-4.64,0.1,-0.94,0.31,1.4,5.19,2.08,1742250180.092493
0.56,0.77,0.29,-9.64,-9.77,-1.53,0.11,-0.94,0.3,7.87,4.15,3.66,1742250180.205478
0.54,0.76,0.3,-3.66,-11.84,-5.37,0.11,-0.92,0.31,3.3,4.15,-0.73,1742250180.320377
0.56,0.77,0.3,2.99,7.14,-1.53,0.1,-0.94,0.31,0.31,3.72,-0.37,1742250180.432609
0.55,0.78,0.3,10.31,-0.92,3.48,0.12,-0.92,0.34,-1.59,1.46,-0.98,1742250180.5467021
0.55,0.77,0.31,7.45,7.26,-5.62,0.12,-0.93,0.33,-2.01,2.99,-2.93,1742250180.662101
0.56,0.75,0.33,7.69,11.6,-2.62,0.12,-0.92,0.33,8.85,10.31,2.62,1742250180.774527
0.58,0.77,0.32,10.5,17.82,-3.3,0.13,-0.95,0.28,10.25,15.08,1.71,1742250180.887597
0.6,0.75,0.3,0.0,19.47,-6.1,0.13,-0.94,0.25,0.37,4.82,-2.81,1742250181.00161
0.61,0.74,0.26,-3.48,7.45,0.73,0.13,-0.95,0.29,-1.89,1.34,-2.81,1742250181.115614
0.61,0.74,0.28,-0.73,6.53,0.61,0.13,-0.94,0.28,0.61,0.98,-1.65,1742250181.22961
0.61,0.75,0.27,-1.28,2.26,-0.49,0.12,-0.94,0.28,-0.49,-0.06,-0.43,1742250181.343741
0.6,0.76,0.26,1.83,3.72,-0.67,0.12,-0.95,0.27,-4.64,-2.44,-0.43,1742250181.461487
0.61,0.76,0.26,0.67,-4.21,3.05,0.12,-0.94,0.29,-4.03,-4.09,0.98,1742250181.5716999
0.6,0.75,0.26,0.0,-7.02,-1.53,0.12,-0.93,0.31,-2.62,-0.79,-1.28,1742250181.685673
0.6,0.76,0.29,0.79,-3.36,3.11,0.12,-0.93,0.3,1.22,0.92,0.31,1742250181.8015292
0.59,0.75,0.28,-2.2,0.79,-0.31,0.12,-0.94,0.29,-0.85,1.46,0.12,1742250181.913485
0.59,0.76,0.27,-1.28,6.1,-0.49,0.12,-0.94,0.29,1.1,-0.24,-1.65,1742250182.027616
0.59,0.75,0.26,-4.03,5.92,1.71,0.12,-0.93,0.3,0.0,0.98,-0.43,1742250182.141421
0.6,0.76,0.25,2.26,4.64,0.0,0.12,-0.94,0.31,0.18,0.18,-2.08,1742250182.2545128
0.59,0.76,0.24,5.37,3.36,4.46,0.12,-0.95,0.29,1.04,0.06,-0.92,1742250182.368457
0.6,0.76,0.26,0.06,1.16,1.71,0.11,-0.93,0.29,-0.37,-1.1,-0.24,1742250182.48267
0.6,0.76,0.26,0.43,0.73,0.18,0.11,-0.94,0.3,0.61,-0.12,-1.34,1742250182.6008692
0.6,0.77,0.25,-0.06,3.3,0.49,0.11,-0.94,0.29,-0.98,0.12,-1.77,1742250182.710604
0.6,0.76,0.26,2.5,1.34,3.85,0.1,-0.94,0.29,-1.95,2.5,-0.92,1742250182.824585
0.59,0.77,0.25,0.06,3.23,-0.06,0.11,-0.94,0.3,-1.4,4.03,-0.73,1742250182.940326
0.59,0.76,0.23,0.55,3.66,1.95,0.1,-0.94,0.3,-0.55,2.44,-1.65,1742250183.052608
0.59,0.77,0.23,-2.08,3.97,2.08,0.1,-0.94,0.3,-1.1,2.2,-0.92,1742250183.166572
0.59,0.77,0.24,-1.83,0.79,1.71,0.11,-0.94,0.3,-0.85,0.18,-1.04,1742250183.281556
0.58,0.78,0.24,0.37,0.73,1.53,0.1,-0.94,0.3,-1.46,1.53,0.18,1742250183.394482
0.59,0.78,0.23,-0.06,1.04,0.85,0.11,-0.93,0.3,-1.16,0.0,-0.06,1742250183.5086021
0.59,0.78,0.23,0.24,0.92,-0.79,0.11,-0.93,0.31,-0.67,0.18,-0.12,1742250183.6226208
0.58,0.78,0.22,0.31,0.73,-0.18,0.11,-0.94,0.3,-1.34,-0.31,0.24,1742250183.740659
0.59,0.79,0.23,-0.98,0.61,0.0,0.1,-0.93,0.3,-1.77,-0.79,0.79,1742250183.850498
0.59,0.78,0.22,0.43,1.04,-0.43,0.11,-0.93,0.32,-1.4,-4.09,1.71,1742250183.964583
0.58,0.76,0.23,5.07,-4.76,-1.89,0.11,-0.91,0.32,-5.62,-6.59,2.01,1742250184.081414
0.58,0.78,0.25,1.1,-16.54,-2.99,0.1,-0.92,0.34,-1.83,-4.03,2.62,1742250184.1925461
0.58,0.77,0.28,5.43,-4.58,-0.79,0.11,-0.94,0.31,0.67,0.85,1.77,1742250184.3062642
0.58,0.77,0.27,0.98,-0.37,-1.53,0.1,-0.93,0.32,5.8,4.09,3.48,1742250184.4214149
0.58,0.77,0.28,-2.14,-2.75,-1.77,0.12,-0.93,0.32,2.87,2.75,2.14,1742250184.533278
0.59,0.76,0.26,0.98,-2.2,-2.87,0.12,-0.93,0.31,-0.55,-0.67,0.24,1742250184.646435
0.58,0.76,0.29,0.98,-1.65,-0.31,0.13,-0.93,0.3,-2.08,1.16,0.98,1742250184.761748
0.59,0.77,0.28,5.37,-4.64,-0.92,0.12,-0.93,0.3,-1.46,-0.12,-0.61,1742250184.874604
0.57,0.75,0.31,4.03,-1.71,-0.98,0.13,-0.94,0.31,1.71,0.0,-1.59,1742250184.988331
0.59,0.76,0.31,6.29,-1.53,1.1,0.13,-0.93,0.31,-1.1,-0.55,-0.24,1742250185.102571
0.58,0.75,0.32,2.93,0.0,-0.61,0.12,-0.92,0.32,0.06,2.62,-1.04,1742250185.216337
0.59,0.74,0.32,1.4,3.05,-0.24,0.12,-0.94,0.3,0.79,5.92,-3.3,1742250185.3293839
0.57,0.78,0.36,12.51,6.59,2.69,0.12,-0.94,0.31,0.73,-0.67,-1.4,1742250185.443415
0.57,0.78,0.29,2.32,-1.46,1.28,0.12,-0.93,0.31,-1.04,-0.06,-0.06,1742250185.561173
0.58,0.74,0.33,2.5,0.49,-0.06,0.12,-0.93,0.31,0.06,1.34,-0.12,1742250185.671369
0.58,0.75,0.33,0.43,0.12,-0.85,0.12,-0.93,0.3,1.22,-0.06,0.55,1742250185.7853389
0.58,0.75,0.34,0.37,1.53,-1.22,0.12,-0.93,0.31,1.59,-0.06,-0.24,1742250185.9008708
0.58,0.75,0.33,2.32,1.16,-0.73,0.12,-0.93,0.31,0.12,1.1,-0.18,1742250186.013344
0.59,0.74,0.33,1.22,0.06,-0.12,0.12,-0.93,0.3,0.73,0.31,-0.06,1742250186.127362
0.58,0.75,0.33,0.18,0.18,-0.43,0.12,-0.93,0.3,-0.98,0.55,-0.37,1742250186.2414138
0.58,0.74,0.34,0.0,0.12,-0.24,0.13,-0.93,0.3,0.12,-1.46,-0.49,1742250186.3554728
0.58,0.74,0.36,-4.09,0.92,0.55,0.12,-0.93,0.3,0.0,0.18,-0.85,1742250186.4693792
0.58,0.75,0.32,-5.43,1.71,3.11,0.11,-0.93,0.33,3.36,3.54,-2.87,1742250186.5833201
0.57,0.75,0.31,-0.73,4.52,3.91,0.14,-0.85,0.39,-14.1,33.26,-13.31,1742250186.6974661
0.56,0.75,0.36,5.13,9.58,1.4,0.11,-0.95,0.32,-25.57,9.7,-6.04,1742250186.811465
0.6,0.73,0.32,43.82,13.67,5.31,0.11,-0.91,0.39,-19.17,11.72,-2.93,1742250186.9253361
0.61,0.72,0.41,36.32,12.27,0.92,0.1,-0.91,0.35,-5.74,13.73,-0.85,1742250187.041879
0.58,0.7,0.41,14.1,9.83,1.71,0.12,-0.88,0.35,0.37,5.55,-2.56,1742250187.153365
0.58,0.68,0.39,5.0,4.82,4.94,0.12,-0.91,0.4,-0.73,2.44,-3.36,1742250187.267359
0.6,0.69,0.43,5.37,-0.79,5.07,0.12,-0.91,0.38,-0.61,2.2,-1.77,1742250187.3814888
0.59,0.7,0.43,2.08,0.37,0.18,0.11,-0.91,0.36,5.19,-1.34,0.49,1742250187.495272
0.58,0.69,0.43,0.55,0.55,2.38,0.11,-0.91,0.37,26.92,-18.74,-0.43,1742250187.609378
0.58,0.7,0.43,-1.53,-3.05,2.99,0.11,-0.92,0.35,8.3,-0.31,-1.95,1742250187.7243462
0.58,0.69,0.44,-0.73,-0.55,0.49,0.09,-0.95,0.33,-3.05,-1.46,-0.43,1742250187.840956
0.58,0.7,0.43,0.92,-2.44,-0.12,0.1,-0.91,0.35,-2.81,-5.07,3.54,1742250187.951338
0.57,0.68,0.43,2.08,-1.4,-0.31,0.11,-0.9,0.36,0.43,-0.79,0.24,1742250188.065235
0.57,0.7,0.45,3.48,-0.98,2.2,0.1,-0.93,0.36,-0.43,-2.38,0.31,1742250188.1826382
0.57,0.71,0.45,8.42,1.59,-0.37,0.1,-0.92,0.35,0.06,-0.18,-0.85,1742250188.293392
0.57,0.68,0.46,2.69,-0.12,1.77,0.09,-0.93,0.35,-0.67,-1.04,-1.16,1742250188.407396
0.57,0.7,0.46,4.52,0.43,2.01,0.1,-0.92,0.36,-0.79,1.4,-0.73,1742250188.521446
0.57,0.68,0.46,0.24,0.43,0.37,0.1,-0.93,0.37,-2.99,1.83,-0.43,1742250188.635378
0.56,0.68,0.46,2.99,-1.4,1.89,0.1,-0.92,0.37,-3.48,3.23,0.12,1742250188.749161
0.57,0.69,0.47,2.75,-0.73,1.04,0.12,-0.91,0.39,-4.94,2.81,0.43,1742250188.8623528
0.6,0.67,0.47,3.36,-1.53,0.67,0.13,-0.86,0.44,-16.05,19.35,-3.17,1742250188.977083
0.62,0.68,0.54,36.87,-2.87,0.12,0.11,-0.92,0.41,-10.07,34.36,-6.84,1742250189.090304
0.6,0.57,0.56,57.5,-32.17,28.87,0.18,-0.77,0.46,-41.56,39.12,-13.43,1742250189.204341
0.43,0.66,0.71,93.14,-77.51,67.75,0.1,-0.93,0.44,-32.65,35.71,-9.22,1742250189.320849
0.24,0.49,0.8,74.1,-69.89,89.05,0.14,-0.86,0.45,-9.34,10.38,-9.03,1742250189.4322822
0.12,0.5,0.87,4.15,-13.92,22.09,0.14,-0.85,0.52,-5.43,-4.21,-5.86,1742250189.5463529
0.08,0.45,0.91,9.34,-2.93,-0.79,0.17,-0.8,0.57,-37.96,12.39,2.87,1742250189.662077
