L-AccX,L-AccY,L-AccZ,L-GyrX,L-GyrY,L-GyrZ,R-AccX,R-AccY,R-AccZ,R-GyrX,R-GyrY,R-GyrZ,timestamp
0.5,0.26,-0.82,-1.71,-0.67,2.75,0.2,-0.2,0.94,-5.8,-0.49,-0.79,1742257048.194541
0.5,0.28,-0.79,2.56,4.52,-1.89,0.2,-0.2,0.94,-3.97,-0.18,-1.71,1742257048.1965818
0.5,0.25,-0.83,1.1,-0.73,3.42,0.21,-0.17,0.95,1.1,4.76,0.24,1742257048.1968179
0.51,0.26,-0.82,1.95,-0.06,5.13,0.21,-0.2,0.95,3.48,1.89,-1.83,1742257048.197013
0.5,0.27,-0.82,2.56,0.79,5.0,0.22,-0.21,0.94,4.27,2.69,-2.01,1742257048.197203
0.5,0.29,-0.83,-0.18,0.61,3.48,0.24,-0.24,0.95,1.95,3.36,-0.43,1742257048.197404
0.49,0.28,-0.82,-1.22,-1.83,-0.79,0.23,-0.21,0.93,-0.79,0.79,2.81,1742257048.197599
0.49,0.28,-0.82,1.65,1.4,4.94,0.23,-0.22,0.93,4.52,0.18,-2.62,1742257048.197789
0.48,0.3,-0.81,1.53,2.01,5.74,0.24,-0.24,0.92,4.82,1.28,-3.23,1742257048.19798
0.47,0.31,-0.82,1.1,4.52,3.78,0.24,-0.25,0.92,5.31,0.67,-1.83,1742257048.198175
0.48,0.33,-0.82,0.12,2.38,2.62,0.26,-0.27,0.91,4.15,3.23,0.12,1742257048.198362
0.47,0.31,-0.83,-1.04,1.46,-2.38,0.25,-0.26,0.93,0.98,-2.44,3.23,1742257048.198556
0.47,0.29,-0.82,0.79,-0.92,-0.67,0.24,-0.26,0.92,1.4,0.37,0.55,1742257048.1987479
0.47,0.3,-0.83,-0.73,0.55,1.28,0.23,-0.26,0.93,0.85,-0.49,-1.65,1742257048.198936
0.46,0.31,-0.82,-1.89,1.28,1.04,0.24,-0.27,0.92,0.85,-0.31,-1.46,1742257048.19913
0.46,0.31,-0.83,0.18,0.24,0.12,0.25,-0.28,0.92,0.67,0.0,-0.55,1742257048.199323
0.45,0.3,-0.83,-2.93,1.46,-2.38,0.24,-0.27,0.92,0.67,-0.92,1.46,1742257048.199512
0.46,0.29,-0.84,-3.17,2.81,-1.1,0.24,-0.27,0.93,0.79,0.37,0.73,1742257048.1996999
0.46,0.28,-0.83,-3.97,3.17,-1.4,0.25,-0.26,0.92,0.31,-0.61,-0.67,1742257048.199906
0.46,0.29,-0.84,-1.22,3.05,0.06,0.23,-0.27,0.92,0.24,0.0,-1.34,1742257048.200095
0.46,0.29,-0.84,0.37,1.46,-1.04,0.24,-0.26,0.92,0.61,2.32,0.0,1742257048.2002811
0.46,0.29,-0.84,0.98,1.1,-2.08,0.24,-0.27,0.92,-0.12,1.34,1.22,1742257048.200523
0.45,0.29,-0.84,1.71,-0.61,-0.49,0.25,-0.26,0.92,0.43,2.62,0.61,1742257048.200727
0.45,0.29,-0.84,-1.04,0.73,-0.37,0.25,-0.27,0.92,-0.06,-0.24,-0.49,1742257048.200926
0.45,0.29,-0.84,-0.37,0.85,-1.22,0.25,-0.27,0.92,-0.12,-0.12,0.61,1742257048.201129
0.46,0.29,-0.84,-0.92,3.48,-1.04,0.25,-0.26,0.91,-0.06,0.43,0.49,1742257048.20133
0.45,0.28,-0.85,0.0,0.24,-0.85,0.24,-0.26,0.92,-0.43,0.18,0.49,1742257048.201524
0.44,0.28,-0.85,0.06,1.16,-0.12,0.25,-0.26,0.92,-0.18,0.18,-0.49,1742257048.2017229
0.45,0.28,-0.85,-0.49,-0.49,-1.22,0.25,-0.26,0.92,-0.37,1.53,0.67,1742257048.202982
0.45,0.28,-0.85,0.49,-0.06,0.06,0.25,-0.26,0.92,0.31,1.16,-0.18,1742257048.2033439
0.44,0.28,-0.84,0.06,-0.24,0.0,0.25,-0.26,0.92,0.24,0.61,-0.37,1742257048.203666
0.45,0.28,-0.84,0.61,-0.18,1.34,0.25,-0.25,0.91,0.37,0.73,-1.4,1742257048.20419
0.45,0.29,-0.85,-1.4,0.85,-0.12,0.25,-0.27,0.93,-0.37,-0.43,-0.24,1742257048.204397
0.44,0.27,-0.84,0.06,0.43,-0.98,0.25,-0.26,0.92,0.37,-0.61,0.06,1742257048.2046
0.44,0.28,-0.85,0.06,0.37,-0.24,0.24,-0.26,0.92,0.31,0.31,-0.12,1742257048.2051961
0.45,0.29,-0.85,-0.61,0.37,-0.79,0.25,-0.26,0.93,-0.61,0.12,0.24,1742257048.20559
0.45,0.28,-0.85,-0.98,-0.24,-2.14,0.24,-0.26,0.92,-1.1,0.31,1.16,1742257048.212262
0.45,0.27,-0.85,-1.04,-0.12,-1.77,0.25,-0.25,0.92,-0.98,-0.37,0.73,1742257048.212948
0.44,0.27,-0.85,-1.4,-0.79,-1.77,0.25,-0.25,0.93,-0.98,0.18,0.79,1742257048.213805
0.45,0.26,-0.85,-1.89,-0.98,-1.34,0.24,-0.25,0.93,-2.32,0.67,0.98,1742257048.214011
0.45,0.27,-0.85,-1.53,-0.55,-0.85,0.25,-0.24,0.92,-1.65,-1.1,-0.31,1742257048.214218
0.45,0.26,-0.85,-1.22,0.06,-0.49,0.25,-0.25,0.93,-0.31,-0.06,-0.31,1742257048.214494
0.44,0.26,-0.85,-1.28,0.31,-1.46,0.25,-0.25,0.93,-0.37,-1.04,0.73,1742257048.214835
0.44,0.25,-0.85,-0.79,1.46,-0.43,0.24,-0.23,0.92,1.22,-0.79,-0.37,1742257048.215123
0.44,0.26,-0.86,-0.31,0.24,-0.24,0.24,-0.25,0.94,0.55,0.24,0.06,1742257048.215363
0.45,0.25,-0.85,-0.37,0.92,-0.12,0.24,-0.24,0.93,-0.12,-0.92,-0.31,1742257048.21558
0.44,0.26,-0.85,-0.24,0.67,0.31,0.25,-0.25,0.93,0.67,-0.79,-0.73,1742257048.215775
0.45,0.25,-0.87,-1.4,1.1,-0.24,0.23,-0.24,0.94,0.67,-0.31,-1.34,1742257048.216018
0.43,0.29,-0.85,0.79,-0.79,-1.34,0.25,-0.27,0.91,0.49,0.98,2.5,1742257048.2162821
0.45,0.24,-0.85,0.18,0.98,-3.6,0.25,-0.23,0.93,0.73,-0.85,3.11,1742257048.216521
0.44,0.24,-0.87,-0.55,-0.18,-1.53,0.23,-0.23,0.93,-0.06,0.12,0.49,1742257048.2170272
0.44,0.24,-0.86,-1.89,0.37,2.26,0.23,-0.24,0.93,-0.12,-0.43,-2.87,1742257048.217303
0.44,0.26,-0.86,-0.24,-0.37,0.49,0.24,-0.26,0.92,0.55,0.85,-0.12,1742257048.2473521
0.45,0.24,-0.86,-0.98,0.31,-1.04,0.24,-0.24,0.93,-0.31,-0.55,0.61,1742257048.2476969
0.45,0.24,-0.86,-4.46,-0.37,-0.12,0.24,-0.23,0.93,-1.53,-0.43,-0.37,1742257048.248142
0.44,0.24,-0.86,-1.04,-2.69,-0.55,0.23,-0.23,0.92,-1.95,-2.81,-0.31,1742257048.24858
0.44,0.24,-0.86,0.37,0.61,-1.59,0.22,-0.25,0.94,-0.92,-4.88,-1.46,1742257048.265888
0.44,0.22,-0.9,0.24,0.49,1.34,0.22,-0.23,0.95,0.79,0.18,-1.89,1742257048.270352
0.45,0.25,-0.87,1.71,2.01,2.75,0.23,-0.24,0.92,2.2,0.73,-2.2,1742257048.278676
0.44,0.26,-0.86,3.91,1.16,0.79,0.23,-0.24,0.94,1.89,-3.36,-0.12,1742257048.2863061
0.44,0.26,-0.86,1.53,-0.18,-2.62,0.21,-0.25,0.93,1.28,-0.06,1.53,1742257048.286804
0.44,0.24,-0.86,0.67,1.1,-0.79,0.21,-0.23,0.93,0.43,-0.18,-0.73,1742257048.287934
0.44,0.27,-0.86,-1.83,1.1,-0.24,0.22,-0.26,0.94,-1.65,-0.92,0.18,1742257048.288855
0.44,0.24,-0.86,-1.34,-0.06,-3.3,0.21,-0.23,0.94,-4.03,-2.87,2.5,1742257048.289679
0.44,0.24,-0.86,-1.83,-0.85,-2.44,0.21,-0.23,0.95,-2.75,0.18,1.4,1742257048.291588
0.44,0.24,-0.86,-3.05,-1.71,-1.53,0.21,-0.23,0.94,-2.14,0.12,1.4,1742257048.297565
0.44,0.23,-0.85,-2.75,-2.2,-3.17,0.22,-0.22,0.93,-3.42,0.98,2.93,1742257048.298912
0.45,0.22,-0.87,-1.4,-3.11,-1.83,0.21,-0.21,0.94,-4.15,-0.49,1.77,1742257048.3005388
0.46,0.21,-0.85,-0.43,-2.62,-1.83,0.22,-0.19,0.94,-2.2,1.04,1.22,1742257048.3044639
0.46,0.22,-0.85,-0.98,-0.79,-1.22,0.22,-0.2,0.94,-1.53,0.37,0.73,1742257048.307722
0.46,0.22,-0.86,0.98,-1.83,0.61,0.22,-0.2,0.94,0.0,2.26,-0.06,1742257048.30807
0.47,0.22,-0.85,1.04,-0.61,0.12,0.23,-0.2,0.95,-0.31,1.59,0.31,1742257048.308289
0.47,0.22,-0.85,-0.49,-0.73,-1.1,0.23,-0.19,0.94,-1.77,0.0,0.73,1742257048.3084831
0.46,0.22,-0.86,-0.24,0.85,-0.92,0.23,-0.2,0.95,-0.43,-0.37,0.24,1742257048.308682
0.47,0.21,-0.85,-1.16,-0.55,-1.28,0.23,-0.19,0.94,-2.14,-1.22,0.0,1742257048.308882
0.46,0.23,-0.85,-1.59,0.55,-1.83,0.22,-0.2,0.94,-1.59,-1.4,1.04,1742257048.3090692
0.47,0.21,-0.86,-1.59,0.43,-3.11,0.22,-0.18,0.96,-0.67,1.16,1.95,1742257048.309264
0.46,0.2,-0.85,1.59,1.16,-1.95,0.23,-0.18,0.95,-0.24,2.69,1.53,1742257048.309453
0.47,0.2,-0.86,1.53,-1.28,-4.39,0.23,-0.17,0.95,0.0,0.18,2.62,1742257048.30964
0.48,0.2,-0.85,2.87,-2.01,-1.34,0.23,-0.16,0.94,2.32,5.19,0.55,1742257048.309831
0.47,0.21,-0.85,2.69,-1.28,-0.61,0.24,-0.19,0.94,2.75,3.72,0.61,1742257048.3100128
0.47,0.2,-0.85,0.49,0.55,-0.85,0.24,-0.17,0.94,0.67,-0.61,-0.18,1742257048.3102138
0.47,0.22,-0.85,0.98,0.67,2.75,0.25,-0.2,0.95,1.16,0.73,-2.2,1742257048.310407
0.47,0.22,-0.85,0.85,-0.31,-0.18,0.25,-0.19,0.93,0.18,0.55,-0.67,1742257048.310611
0.47,0.23,-0.86,0.92,0.61,0.31,0.25,-0.2,0.95,1.4,1.59,-0.85,1742257048.310812
0.47,0.23,-0.85,-0.24,-0.61,-1.71,0.25,-0.19,0.94,-0.24,1.46,0.67,1742257048.311015
0.47,0.21,-0.86,-0.12,-1.65,0.98,0.25,-0.19,0.94,-0.24,2.75,-0.73,1742257048.311231
0.48,0.23,-0.84,0.12,-2.75,2.08,0.27,-0.19,0.93,0.55,3.54,-1.46,1742257048.311755
0.47,0.24,-0.83,-1.4,-0.37,-1.77,0.27,-0.2,0.93,-0.12,4.09,1.1,1742257048.311959
0.49,0.21,-0.84,-0.18,0.18,-2.5,0.27,-0.18,0.93,-0.12,-0.43,0.49,1742257048.3121579
0.48,0.23,-0.85,0.79,0.12,-1.04,0.27,-0.2,0.94,0.18,-0.67,0.37,1742257048.312629
0.48,0.22,-0.84,-1.04,-1.16,-1.89,0.26,-0.19,0.93,-2.2,-0.24,0.06,1742257048.312829
0.48,0.22,-0.84,-1.4,-0.85,0.31,0.26,-0.18,0.94,-1.04,0.12,-1.34,1742257048.313029
0.49,0.22,-0.84,-0.31,-1.83,-0.98,0.28,-0.19,0.93,-1.16,0.18,0.31,1742257048.3132238
0.49,0.21,-0.83,-0.55,-1.28,-2.26,0.27,-0.17,0.93,-1.28,-0.31,1.04,1742257048.3134332
0.5,0.22,-0.83,0.79,0.61,-3.36,0.28,-0.17,0.93,1.77,-2.38,0.06,1742257048.313636
0.47,0.21,-0.86,0.43,0.73,-2.87,0.25,-0.2,0.95,1.04,-0.49,1.22,1742257048.3138292
0.49,0.2,-0.84,0.0,-0.67,-2.26,0.26,-0.17,0.94,-0.49,-0.61,0.24,1742257048.314028
0.49,0.22,-0.84,-1.1,0.61,-0.67,0.26,-0.18,0.93,-0.85,-1.1,0.06,1742257048.314226
0.49,0.2,-0.84,0.49,-0.49,-0.49,0.26,-0.17,0.94,0.61,1.53,0.18,1742257048.3144279
0.49,0.21,-0.84,-0.18,0.31,0.18,0.27,-0.18,0.93,0.0,-0.49,-0.37,1742257048.31462
0.5,0.21,-0.84,-0.12,0.92,-0.24,0.26,-0.18,0.94,-0.12,0.24,0.0,1742257048.314833
0.48,0.21,-0.83,-0.24,0.73,-0.37,0.26,-0.18,0.94,-5.98,0.06,0.31,1742257048.3150358
0.48,0.21,-0.85,1.77,1.59,-1.65,0.26,-0.17,0.94,1.34,0.06,0.98,1742257048.315284
0.5,0.21,-0.84,-1.1,1.71,-0.49,0.27,-0.18,0.94,-2.14,1.71,0.24,1742257048.3155022
0.48,0.2,-0.85,-1.16,2.5,-2.01,0.26,-0.17,0.94,-1.22,-0.24,1.04,1742257048.315702
0.49,0.2,-0.85,-3.05,1.53,-0.12,0.27,-0.14,0.95,-4.15,0.43,0.49,1742257048.315918
0.48,0.2,-0.85,-1.4,2.2,-1.1,0.25,-0.16,0.93,-0.24,0.0,1.77,1742257048.316117
0.48,0.19,-0.85,-0.61,0.98,-0.85,0.26,-0.14,0.94,0.43,1.1,0.18,1742257048.31631
0.46,0.19,-0.86,-0.18,0.49,-0.18,0.27,-0.15,0.96,1.22,-0.24,0.12,1742257048.316501
0.46,0.18,-0.86,0.24,0.49,-0.61,0.27,-0.16,0.93,0.85,0.92,-0.18,1742257048.3166878
0.48,0.18,-0.86,-4.52,-0.55,4.88,0.26,-0.14,0.95,-18.74,0.0,-3.6,1742257048.3168871
0.47,0.18,-0.86,-0.67,-0.79,1.65,0.27,-0.12,0.95,-1.04,1.22,-1.77,1742257048.317079
0.47,0.19,-0.86,0.24,-0.92,0.0,0.28,-0.13,0.94,-0.06,1.71,-0.49,1742257048.3172648
0.46,0.19,-0.86,-0.85,0.43,-1.71,0.28,-0.12,0.96,0.12,1.16,0.79,1742257048.317454
0.46,0.17,-0.86,-1.53,6.53,-1.53,0.27,-0.13,0.95,5.13,6.9,-1.22,1742257048.317641
0.47,0.18,-0.86,3.3,-0.85,-2.62,0.31,-0.14,0.94,-0.18,3.23,1.59,1742257048.3178298
0.46,0.18,-0.86,-0.67,1.83,0.79,0.31,-0.14,0.93,-0.31,-0.37,-1.34,1742257048.3180218
0.46,0.19,-0.87,-1.34,1.34,-0.18,0.31,-0.14,0.94,0.67,0.61,0.79,1742257048.318211
0.46,0.19,-0.85,-3.23,2.14,2.44,0.31,-0.13,0.92,3.17,0.43,-1.28,1742257048.318401
0.46,0.17,-0.91,-10.19,13.61,0.12,0.29,-0.15,0.96,0.43,1.04,-1.46,1742257048.318594
0.43,0.2,-0.89,1.28,-1.59,-5.19,0.3,-0.15,0.93,-0.43,2.14,3.91,1742257048.318795
0.43,0.16,-0.87,0.43,-2.62,-0.92,0.31,-0.13,0.94,0.55,1.34,1.16,1742257048.319013
0.42,0.16,-0.89,0.12,1.77,-0.61,0.3,-0.15,0.93,0.73,-1.1,-1.28,1742257048.319207
0.44,0.18,-0.87,0.12,0.73,2.08,0.3,-0.16,0.92,-1.53,0.18,-3.36,1742257048.319392
0.47,0.19,-0.89,-7.2,2.14,3.54,0.27,-0.15,0.94,-10.01,-18.31,-1.16,1742257048.319594
0.45,0.16,-0.87,0.12,-1.77,6.23,0.29,-0.11,0.95,-0.92,0.0,-4.15,1742257048.319786
0.43,0.18,-0.88,-1.95,-1.71,15.01,0.27,-0.13,0.95,-1.04,-1.16,-8.12,1742257048.320051
0.43,0.23,-0.86,2.69,1.16,6.47,0.29,-0.16,0.92,4.15,-1.77,-5.74,1742257048.3202481
0.43,0.21,-0.88,5.0,2.2,-3.66,0.27,-0.14,0.94,4.15,-1.16,-1.28,1742257048.32045
0.45,0.21,-0.87,4.58,-0.18,-0.18,0.25,-0.14,0.94,4.39,1.4,-4.15,1742257048.320713
0.45,0.22,-0.86,8.54,-0.61,5.62,0.25,-0.15,0.92,4.88,-0.73,-7.93,1742257048.320981
0.45,0.28,-0.86,3.11,-2.38,3.6,0.25,-0.19,0.93,-1.28,-8.36,-8.48,1742257048.321223
0.43,0.25,-0.9,10.99,-5.37,-5.68,0.23,-0.16,0.98,-2.08,2.2,-0.79,1742257048.3214378
0.44,0.28,-0.82,9.83,-4.76,2.44,0.26,-0.18,0.93,3.11,3.42,-4.46,1742257048.321632
0.46,0.31,-0.84,4.15,0.73,3.23,0.26,-0.2,0.94,0.98,-0.12,-3.66,1742257048.321825
0.45,0.31,-0.83,0.31,0.18,0.85,0.26,-0.19,0.93,1.77,4.21,-1.1,1742257048.322016
0.46,0.28,-0.84,2.75,2.2,4.39,0.25,-0.17,0.94,0.06,1.89,-5.07,1742257048.322238
0.44,0.33,-0.84,2.62,3.23,6.23,0.26,-0.2,0.93,-3.11,0.85,-4.88,1742257048.326981
0.44,0.31,-0.84,0.92,0.79,2.5,0.26,-0.18,0.94,-3.42,1.83,-1.22,1742257048.3272161
0.44,0.32,-0.85,3.97,-1.59,2.32,0.27,-0.16,0.94,-9.16,5.07,1.1,1742257048.3274062
0.44,0.34,-0.84,7.32,-0.67,-0.37,0.28,-0.17,0.92,3.11,4.27,2.01,1742257048.327601
0.44,0.33,-0.83,-3.36,2.44,0.31,0.27,-0.15,0.92,1.77,4.03,1.34,1742257048.328197
0.43,0.32,-0.85,0.06,-1.77,2.5,0.28,-0.17,0.94,-0.24,3.78,-1.83,1742257048.329341
0.44,0.32,-0.83,1.4,-2.62,2.2,0.29,-0.14,0.94,-1.53,2.56,-1.1,1742257048.32974
0.43,0.32,-0.82,5.37,-3.11,6.65,0.29,-0.14,0.92,-0.73,1.95,-5.68,1742257048.3299541
0.44,0.36,-0.82,6.84,-2.87,12.45,0.29,-0.15,0.94,-0.79,3.05,-9.64,1742257048.330301
0.44,0.33,-0.8,28.08,-7.26,20.08,0.2,-0.02,0.96,-6.59,5.25,-24.11,1742257048.3307352
0.51,0.26,-0.56,146.67,27.59,3.85,-0.03,0.31,0.73,-5.49,34.85,-139.34,1742257048.331003
0.29,0.84,-0.58,284.79,-73.91,52.92,0.04,-0.29,0.8,-127.56,-0.67,-239.07,1742257048.33123
0.36,0.89,0.18,242.68,-131.1,11.29,0.35,-0.75,1.19,-13.37,56.95,-89.72,1742257048.331529
0.14,0.92,0.77,174.62,-75.13,-76.78,0.31,-0.33,0.91,-20.75,29.66,-25.45,1742257048.3318741
0.25,0.44,0.73,63.48,-77.03,-23.44,0.27,-0.2,0.98,15.38,12.7,6.35,1742257048.332117
0.14,0.44,0.84,39.73,-31.43,8.61,0.37,-0.41,1.01,10.68,57.31,8.3,1742257048.332314
0.1,0.54,0.91,2.69,-8.97,30.46,0.47,-0.4,0.79,33.45,13.79,-26.86,1742257048.332505
0.18,0.5,0.79,-1.59,15.26,9.09,0.44,-0.2,0.89,30.82,-5.62,-4.7,1742257048.332695
0.17,0.49,0.86,-1.16,10.19,-5.49,0.39,-0.45,0.88,-1.71,16.97,-18.49,1742257048.332886
0.16,0.53,0.85,-25.21,10.25,0.24,0.46,-0.27,0.8,-8.73,5.07,-9.16,1742257048.3330739
0.17,0.59,0.77,-56.58,2.69,3.66,0.41,-0.33,0.94,1.28,0.18,-19.35,1742257048.333261
0.18,0.66,0.74,-30.21,8.18,-1.89,0.43,-0.31,0.83,1.83,-1.89,-4.39,1742257048.333536
0.2,0.66,0.75,-34.61,11.41,-3.17,0.41,-0.3,0.84,-0.79,-1.53,3.42,1742257048.333836
0.25,0.68,0.72,-82.58,39.18,19.65,0.43,-0.3,0.84,-0.37,0.18,0.18,1742257048.334046
0.23,0.89,0.34,-131.71,58.11,35.77,0.41,-0.3,0.82,-2.08,-2.62,12.08,1742257048.334246
0.24,0.96,0.13,-93.32,29.36,4.58,0.42,-0.31,0.89,2.44,-3.72,-0.92,1742257048.3344362
0.18,1.03,-0.0,-102.11,32.47,-13.92,0.43,-0.65,0.97,17.03,-16.42,32.78,1742257048.334639
0.3,0.93,-0.24,-81.91,33.51,-24.72,0.4,0.15,0.7,-7.87,5.62,32.78,1742257048.394612
0.26,0.8,-0.42,-86.73,28.14,-44.43,0.44,-1.57,0.83,165.77,-18.01,100.22,1742257048.5086699
0.39,0.8,-0.72,-73.79,32.65,-75.87,-0.08,0.15,0.81,51.27,-88.44,259.34,1742257048.6240058
0.45,0.52,-0.5,-65.67,4.82,-60.12,0.16,-0.02,0.83,-14.53,-99.61,67.75,1742257048.736665
0.47,0.32,-0.77,-44.68,18.86,-17.82,0.17,-0.17,1.0,-11.41,-36.38,7.39,1742257048.850825
0.45,0.45,-0.83,-19.23,12.27,0.18,0.24,-0.24,0.92,-10.74,-16.91,-3.36,1742257048.9648159
0.43,0.42,-0.8,-8.0,3.85,-4.21,0.25,-0.17,0.96,-6.35,-0.43,2.44,1742257049.078764
0.44,0.4,-0.81,-4.46,-2.81,-3.3,0.24,-0.23,0.93,-4.33,-1.65,-1.16,1742257049.192889
0.43,0.41,-0.79,-4.46,-4.39,-1.16,0.24,-0.17,0.91,-5.0,3.66,4.94,1742257049.3066912
0.43,0.39,-0.8,-8.48,-10.38,2.81,0.25,-0.16,0.93,6.59,1.53,3.23,1742257049.4206002
0.5,0.36,-0.82,-9.22,1.77,-8.61,0.26,-0.23,0.95,3.11,-6.23,11.23,1742257049.533668
0.51,0.36,-0.77,5.98,2.99,-11.96,0.25,-0.12,0.99,-16.85,-8.91,5.55,1742257049.647805
0.43,0.38,-0.79,3.42,-5.19,-3.05,0.22,-0.17,0.89,-4.76,-0.61,4.46,1742257049.764277
0.49,0.36,-0.8,-14.28,-0.98,-1.71,0.22,-0.11,0.98,-5.0,-3.3,0.73,1742257049.875795
0.48,0.29,-0.79,-19.9,-6.9,11.96,0.22,-0.14,0.96,-10.74,-13.49,-6.71,1742257049.98999
0.48,0.35,-0.81,-14.28,-8.42,8.42,0.19,-0.13,0.94,1.28,-8.18,-7.02,1742257050.104494
0.5,0.28,-0.8,-3.3,-2.44,-2.08,0.2,-0.11,0.93,6.9,3.6,-0.79,1742257050.2178829
0.5,0.29,-0.82,-6.84,2.08,-1.16,0.2,-0.16,0.96,3.3,6.9,1.34,1742257050.331816
0.48,0.26,-0.82,-12.02,6.23,-6.04,0.19,-0.14,0.98,6.53,0.18,3.05,1742257050.445861
0.51,0.2,-0.85,0.79,-5.98,3.3,0.21,-0.11,0.95,22.64,15.87,-3.17,1742257050.5641081
0.52,0.29,-0.83,-7.08,2.69,5.0,0.25,-0.25,0.96,-0.61,-8.42,-4.03,1742257050.6740742
0.5,0.26,-0.82,-3.36,-3.48,-5.55,0.22,-0.17,0.94,-1.53,-2.26,3.91,1742257050.788109
0.5,0.24,-0.84,-3.36,1.71,0.98,0.21,-0.21,0.95,2.08,-1.28,-2.2,1742257050.90215
0.48,0.27,-0.84,2.08,-0.61,-7.69,0.2,-0.22,0.94,-3.48,-4.21,8.0,1742257051.019406
0.5,0.24,-0.8,7.45,-2.93,-10.25,0.22,-0.16,0.92,2.5,3.36,9.52,1742257051.1299672
0.49,0.24,-0.82,6.35,5.86,-7.81,0.22,-0.18,0.93,11.66,-2.08,8.73,1742257051.245271
0.51,0.24,-0.83,-4.15,10.8,-7.2,0.2,-0.16,0.97,16.91,-2.87,5.98,1742257051.35804
0.5,0.2,-0.88,19.47,-5.07,-2.56,0.16,-0.17,0.95,20.26,18.55,1.4,1742257051.471853
0.49,0.23,-0.79,5.68,4.58,11.9,0.27,-0.26,0.91,7.51,-0.61,-13.31,1742257051.586209
0.44,0.29,-0.82,-15.32,17.52,17.7,0.23,-0.34,0.91,7.45,-23.38,-18.07,1742257051.70516
0.43,0.31,-0.86,-6.96,11.96,4.94,0.18,-0.33,0.91,4.46,-6.35,-3.85,1742257051.814096
0.4,0.25,-0.88,-3.72,5.74,3.42,0.14,-0.31,0.92,1.34,-5.25,-2.87,1742257051.930609
0.4,0.25,-0.9,-5.07,2.62,0.37,0.14,-0.31,0.93,-4.27,-4.21,0.43,1742257052.0447628
0.39,0.23,-0.9,-5.31,-2.2,-2.08,0.13,-0.29,0.94,-5.13,0.73,1.77,1742257052.15601
0.41,0.22,-0.88,-1.16,-4.94,-3.23,0.18,-0.29,0.92,-3.6,2.5,3.72,1742257052.2699971
0.42,0.22,-0.88,-1.65,3.48,-2.38,0.14,-0.27,0.95,1.77,-3.3,1.28,1742257052.387178
0.4,0.22,-0.89,2.26,1.53,1.59,0.14,-0.3,0.93,3.11,3.11,-1.1,1742257052.498053
0.4,0.24,-0.89,2.87,-1.04,2.08,0.16,-0.32,0.93,2.26,6.04,0.06,1742257052.6120582
0.41,0.23,-0.89,-0.92,-4.03,0.24,0.17,-0.29,0.93,-2.26,5.13,0.0,1742257052.7260811
0.41,0.21,-0.87,-0.73,-1.89,0.49,0.18,-0.27,0.92,2.44,2.38,-1.53,1742257052.8401
0.41,0.24,-0.88,3.6,-0.18,1.65,0.18,-0.31,0.92,1.46,2.01,-0.55,1742257052.95407
0.41,0.23,-0.88,-0.24,-1.83,-1.04,0.17,-0.3,0.93,-1.22,2.44,0.73,1742257053.068112
0.41,0.24,-0.88,0.06,-2.56,-0.18,0.19,-0.3,0.92,0.06,2.26,1.4,1742257053.183307
0.41,0.25,-0.86,-0.12,-2.56,-2.93,0.2,-0.29,0.92,-1.34,1.34,2.5,1742257053.296132
0.43,0.22,-0.87,-1.22,-2.87,-1.28,0.2,-0.26,0.93,-3.54,2.38,0.43,1742257053.4100852
0.43,0.24,-0.87,1.83,-0.85,0.85,0.2,-0.28,0.92,-0.92,2.01,-0.12,1742257053.52481
0.43,0.24,-0.87,-1.04,-0.98,1.16,0.2,-0.28,0.93,-0.43,2.38,-0.73,1742257053.6382551
0.44,0.24,-0.87,-1.71,-1.4,0.31,0.21,-0.27,0.93,-1.16,0.85,0.24,1742257053.7522078
0.44,0.23,-0.86,-1.46,-0.67,-0.43,0.21,-0.28,0.92,-1.46,-0.79,0.98,1742257053.866564
0.43,0.25,-0.87,-1.65,-0.12,-4.21,0.2,-0.3,0.93,-0.61,-3.17,3.54,1742257053.9809868
0.43,0.22,-0.88,0.0,-2.99,-9.95,0.2,-0.27,0.93,-3.23,-0.24,9.22,1742257054.09443
0.45,0.19,-0.85,-3.23,-3.05,-5.74,0.21,-0.24,0.93,-4.94,-1.28,3.66,1742257054.208321
0.46,0.19,-0.87,-3.42,-0.73,-1.95,0.2,-0.24,0.94,-3.72,-2.44,0.18,1742257054.3248892
0.45,0.19,-0.87,-2.93,-0.79,-0.92,0.2,-0.24,0.94,-1.53,-0.55,0.31,1742257054.4364429
0.45,0.2,-0.87,-1.16,-0.12,-1.83,0.2,-0.24,0.94,-0.37,0.79,1.77,1742257054.550325
0.46,0.19,-0.87,-0.61,-1.22,-1.89,0.2,-0.24,0.95,-0.49,0.61,2.01,1742257054.664741
0.46,0.2,-0.86,2.01,-2.14,-0.98,0.22,-0.24,0.92,0.92,2.75,4.52,1742257054.778244
0.46,0.18,-0.86,-0.85,0.79,-4.03,0.2,-0.23,0.95,1.34,0.85,5.07,1742257054.8921652
0.46,0.17,-0.86,0.12,0.24,-4.88,0.2,-0.22,0.93,-0.24,-0.98,2.69,1742257055.006368
0.47,0.18,-0.86,0.85,0.55,1.77,0.22,-0.25,0.94,1.59,1.22,-1.53,1742257055.122784
0.46,0.21,-0.87,0.98,-1.65,0.12,0.21,-0.26,0.93,0.67,1.89,2.01,1742257055.2343
0.46,0.19,-0.85,2.08,-3.36,-1.28,0.23,-0.23,0.92,-0.31,2.99,2.44,1742257055.348417
0.46,0.18,-0.86,-2.26,3.72,-0.31,0.21,-0.26,0.94,-4.27,-4.88,-1.28,1742257055.4660978
0.47,0.18,-0.88,-3.6,-1.22,-5.13,0.21,-0.23,0.95,-5.13,-1.1,3.6,1742257055.576441
0.5,0.17,-0.86,-2.38,-10.8,-0.43,0.25,-0.19,0.93,-6.29,10.99,4.33,1742257055.690442
0.48,0.18,-0.84,-0.37,-4.21,-2.87,0.24,-0.2,0.94,-2.5,0.06,3.11,1742257055.8048298
0.49,0.17,-0.84,0.98,-2.38,-2.26,0.24,-0.22,0.93,-9.89,4.46,0.31,1742257055.918462
0.49,0.17,-0.85,-2.01,-2.26,-2.2,0.25,-0.18,0.94,-6.53,0.49,3.17,1742257056.0345259
0.51,0.16,-0.84,8.06,1.59,-8.36,0.25,-0.17,0.94,0.79,3.11,2.62,1742257056.1462662
0.5,0.16,-0.84,1.22,-0.31,1.28,0.26,-0.17,0.94,-0.06,2.87,-1.22,1742257056.259496
0.5,0.17,-0.85,0.67,-1.89,1.95,0.27,-0.17,0.94,-1.83,0.79,-1.83,1742257056.373516
0.52,0.17,-0.82,-1.65,-0.85,0.79,0.27,-0.14,0.94,-12.76,-3.36,-4.82,1742257056.4876401
0.51,0.15,-0.85,-2.62,1.83,2.93,0.23,-0.15,0.95,-5.49,-1.46,-8.3,1742257056.604994
0.5,0.19,-0.84,1.04,-1.28,-0.85,0.24,-0.14,0.96,-4.39,1.77,-1.59,1742257056.715613
0.51,0.16,-0.84,-1.4,-1.65,0.61,0.24,-0.13,0.95,-2.2,0.24,-3.3,1742257056.82953
0.51,0.17,-0.85,0.67,-4.46,0.31,0.24,-0.14,0.96,-1.59,0.61,-0.18,1742257056.944681
0.5,0.13,-0.8,-7.14,1.16,-0.12,0.24,-0.1,0.95,1.59,-2.5,-0.24,1742257057.057559
0.5,0.16,-0.81,6.59,-9.22,-1.89,0.25,-0.15,0.94,5.0,-3.54,2.44,1742257057.171529
0.53,0.16,-0.83,1.89,-2.44,-1.77,0.24,-0.13,0.96,1.4,-0.31,2.14,1742257057.285567
0.53,0.17,-0.81,-0.73,1.34,-0.49,0.25,-0.14,0.95,3.23,-2.08,2.14,1742257057.39953
0.52,0.18,-0.84,0.06,4.58,-0.73,0.23,-0.16,0.95,2.69,-0.24,1.53,1742257057.513576
0.52,0.17,-0.84,8.97,-4.21,-3.3,0.24,-0.15,0.94,2.87,4.76,1.89,1742257057.627313
0.54,0.16,-0.81,-0.61,-0.06,4.21,0.26,-0.15,0.94,1.4,2.93,-6.04,1742257057.741259
0.52,0.2,-0.83,-1.65,2.93,5.8,0.25,-0.18,0.94,1.53,0.67,-5.25,1742257057.85445
0.51,0.21,-0.85,0.0,1.28,-0.31,0.24,-0.19,0.94,-1.28,-3.78,2.32,1742257057.968596
0.51,0.18,-0.82,0.18,1.59,-3.72,0.24,-0.15,0.95,0.06,-1.65,3.05,1742257058.085833
0.51,0.18,-0.84,0.12,-0.24,0.06,0.24,-0.16,0.95,-0.79,1.1,0.0,1742257058.196556
0.52,0.19,-0.83,-1.22,-1.28,1.04,0.25,-0.16,0.94,-1.04,0.55,-0.49,1742257058.31059
0.52,0.19,-0.83,-4.27,0.49,-2.69,0.24,-0.15,0.94,-1.83,-1.04,1.34,1742257058.425007
0.52,0.16,-0.82,-5.25,2.2,-1.95,0.25,-0.14,0.95,-0.73,-3.78,-1.04,1742257058.538681
0.52,0.16,-0.84,-4.21,4.33,0.92,0.23,-0.14,0.94,1.28,-1.04,-2.2,1742257058.65261
0.51,0.14,-0.83,-3.3,4.15,0.79,0.23,-0.13,0.95,2.99,-2.38,-1.28,1742257058.766641
0.53,0.15,-0.82,-1.34,7.02,-2.01,0.27,-0.13,0.95,8.06,-6.29,1.34,1742257058.8805382
0.5,0.14,-0.84,2.99,12.27,-5.74,0.21,-0.15,0.94,10.5,-9.46,2.2,1742257058.994557
0.45,0.12,-0.9,2.2,16.05,-3.17,0.16,-0.18,0.97,13.85,-6.23,-1.89,1742257059.108624
0.41,0.14,-0.89,3.85,12.7,5.68,0.17,-0.24,0.95,13.67,-3.91,-7.45,1742257059.22558
0.39,0.19,-0.93,2.99,10.44,6.65,0.16,-0.3,0.96,11.6,-0.67,-7.08,1742257059.336629
0.36,0.22,-0.93,3.6,3.85,1.22,0.14,-0.32,0.92,6.29,0.85,0.85,1742257059.4504588
0.37,0.18,-0.9,5.25,-1.71,2.87,0.14,-0.27,0.94,7.39,9.89,-2.32,1742257059.5652559
0.38,0.19,-0.89,4.64,-5.25,10.5,0.21,-0.27,0.91,4.82,7.32,-6.41,1742257059.678602
0.4,0.24,-0.91,1.22,-1.1,6.1,0.22,-0.31,0.94,2.32,3.42,-1.89,1742257059.7926059
0.41,0.24,-0.86,2.56,-0.73,-1.71,0.23,-0.29,0.91,2.08,-0.85,1.65,1742257059.907936
0.4,0.22,-0.89,0.12,2.69,-3.17,0.19,-0.29,0.93,1.95,-1.46,0.85,1742257060.0257049
0.4,0.2,-0.9,-1.71,1.89,0.73,0.19,-0.3,0.92,0.43,-1.77,-2.93,1742257060.134697
0.38,0.23,-0.89,-1.46,1.53,1.16,0.19,-0.3,0.91,0.92,-0.73,-2.14,1742257060.248702
0.36,0.22,-0.89,1.95,2.62,2.75,0.18,-0.32,0.91,4.33,0.92,-3.48,1742257060.364188
0.36,0.24,-0.91,3.48,0.98,5.31,0.18,-0.34,0.91,4.03,4.7,-2.81,1742257060.476685
0.36,0.26,-0.89,2.08,-2.01,2.93,0.22,-0.35,0.9,0.98,2.01,-1.22,1742257060.5907252
0.38,0.26,-0.9,0.06,-1.16,-0.98,0.2,-0.33,0.92,-0.49,2.38,1.65,1742257060.704833
0.39,0.25,-0.91,-0.12,-2.93,-1.53,0.21,-0.31,0.91,-2.75,1.53,1.59,1742257060.818815
0.38,0.24,-0.88,0.06,-2.38,-0.06,0.2,-0.32,0.9,-1.71,2.81,0.18,1742257060.932794
0.38,0.25,-0.87,-1.65,-0.79,-0.43,0.22,-0.31,0.89,-1.46,-1.04,1.16,1742257061.046718
0.39,0.26,-0.83,-0.06,3.78,-6.71,0.27,-0.32,0.89,8.85,-5.74,7.45,1742257061.1615841
0.39,0.27,-0.96,-1.95,11.47,-26.55,0.17,-0.33,0.95,2.26,-11.54,26.43,1742257061.274614
0.39,0.11,-0.92,-1.28,2.2,-20.69,0.12,-0.23,0.98,1.71,-0.98,10.5,1742257061.388601
0.4,0.1,-0.95,0.0,-4.15,9.22,0.14,-0.27,0.93,-1.95,10.86,-12.82,1742257061.50512
0.37,0.23,-0.88,0.0,-8.42,23.07,0.23,-0.36,0.88,0.85,10.07,-13.67,1742257061.6156428
0.4,0.27,-0.9,8.67,-8.73,4.76,0.22,-0.28,0.91,8.06,17.09,7.75,1742257061.729547
0.43,0.22,-0.86,11.6,-5.68,6.84,0.29,-0.34,0.88,6.96,13.85,-4.39,1742257061.845796
0.39,0.32,-0.85,5.62,-5.19,10.62,0.3,-0.38,0.85,0.18,8.18,-4.39,1742257061.956692
0.43,0.31,-0.83,-1.28,-3.78,6.59,0.32,-0.34,0.88,1.77,6.53,-3.17,1742257062.070722
0.42,0.32,-0.84,1.71,-3.78,1.77,0.32,-0.34,0.85,-0.61,2.69,0.92,1742257062.1851652
0.47,0.29,-0.8,0.43,2.26,3.05,0.36,-0.32,0.86,10.01,0.85,-7.02,1742257062.298696
0.41,0.35,-0.86,0.12,8.24,1.04,0.31,-0.42,0.86,1.65,-6.96,-0.73,1742257062.412808
0.41,0.28,-0.83,-5.43,7.39,-4.15,0.29,-0.35,0.87,1.83,-9.28,-1.53,1742257062.526811
0.38,0.29,-0.87,-5.49,10.07,-3.17,0.26,-0.39,0.88,0.79,-10.38,-1.65,1742257062.640815
0.38,0.28,-0.88,-6.65,9.7,-6.29,0.24,-0.38,0.88,0.12,-11.78,0.06,1742257062.754731
0.37,0.25,-0.89,-6.41,9.03,-5.25,0.22,-0.36,0.89,2.14,-10.8,-1.04,1742257062.8689122
0.34,0.24,-0.9,-6.96,9.77,-3.54,0.2,-0.38,0.89,2.99,-10.56,-0.98,1742257062.9857368
0.33,0.22,-0.92,-6.1,8.91,-3.17,0.17,-0.39,0.91,1.89,-8.73,-1.83,1742257063.096842
0.31,0.21,-0.94,-3.42,4.52,-2.2,0.14,-0.39,0.91,2.62,-2.44,-1.28,1742257063.2108428
0.31,0.21,-0.94,-0.79,0.24,0.98,0.15,-0.41,0.9,0.79,-1.04,-2.26,1742257063.325202
0.3,0.21,-0.92,-2.44,0.79,0.61,0.15,-0.39,0.9,0.18,-0.24,-1.22,1742257063.438881
0.31,0.22,-0.94,1.89,-1.71,0.55,0.16,-0.4,0.91,0.73,3.3,0.49,1742257063.552704
0.33,0.21,-0.94,3.48,-9.16,2.81,0.17,-0.4,0.9,-3.48,2.26,-1.16,1742257063.666911
0.33,0.25,-0.94,3.23,-18.98,7.39,0.18,-0.42,0.89,-19.84,0.24,-0.85,1742257063.7836711
0.37,0.25,-0.9,-1.71,-21.91,2.75,0.17,-0.29,0.93,-29.36,-5.62,4.09,1742257063.8949351
0.41,0.22,-0.86,-16.05,-12.08,7.08,0.14,-0.21,0.94,-6.23,-8.85,-7.57,1742257064.0090182
0.42,0.25,-0.91,-11.54,16.17,2.56,0.09,-0.35,0.93,16.6,-13.79,-3.3,1742257064.1257799
0.4,0.24,-0.88,-0.92,-8.3,-5.19,0.12,-0.3,0.92,-5.55,5.49,4.39,1742257064.236852
0.43,0.2,-0.87,6.84,-9.22,-4.27,0.12,-0.25,0.93,2.62,5.62,4.64,1742257064.350801
0.42,0.2,-0.88,-2.99,4.82,5.07,0.12,-0.29,0.93,7.39,4.52,-2.69,1742257064.464962
0.42,0.23,-0.88,-0.92,-1.89,5.62,0.15,-0.32,0.92,-0.73,5.74,0.85,1742257064.578917
0.43,0.24,-0.87,-1.04,-5.98,2.44,0.17,-0.32,0.93,0.67,7.75,2.87,1742257064.692786
0.43,0.21,-0.87,-1.53,-4.7,0.12,0.16,-0.29,0.93,7.39,14.53,1.28,1742257064.806747
0.43,0.2,-0.88,5.62,-2.26,4.82,0.21,-0.32,0.9,2.5,11.17,-4.09,1742257064.920809
0.43,0.25,-0.85,5.68,-0.67,5.19,0.22,-0.34,0.9,-4.09,1.59,-2.56,1742257065.0348842
0.43,0.24,-0.84,0.0,-2.32,1.22,0.23,-0.32,0.9,4.15,2.26,-0.98,1742257065.148921
0.45,0.24,-0.86,-0.24,1.4,0.06,0.24,-0.34,0.91,2.14,0.24,-0.73,1742257065.265555
0.44,0.24,-0.85,0.12,2.08,-1.4,0.23,-0.32,0.89,2.38,-0.73,-0.55,1742257065.377009
0.43,0.24,-0.86,-1.04,4.52,2.2,0.22,-0.33,0.89,4.03,-3.11,-3.3,1742257065.4909282
0.42,0.24,-0.86,-0.85,6.9,1.95,0.23,-0.34,0.9,5.55,-4.15,-4.64,1742257065.605361
0.41,0.25,-0.87,-1.77,7.87,1.71,0.21,-0.37,0.89,4.88,-5.31,-3.6,1742257065.7190669
0.4,0.24,-0.89,-2.32,6.65,-1.34,0.19,-0.34,0.89,5.43,-4.7,-3.23,1742257065.832912
0.37,0.24,-0.87,-1.77,11.54,2.81,0.17,-0.39,0.89,6.9,-7.32,-5.43,1742257065.946931
0.35,0.23,-0.95,-3.17,13.18,0.24,0.12,-0.41,0.92,8.12,-3.78,-2.01,1742257066.061064
0.32,0.21,-0.9,1.46,4.64,3.6,0.12,-0.41,0.89,5.49,1.4,-6.1,1742257066.1748369
0.31,0.23,-0.91,-3.91,4.03,6.77,0.16,-0.41,0.88,2.26,-4.09,-7.45,1742257066.2890198
0.3,0.24,-0.93,-1.34,7.69,3.97,0.11,-0.45,0.89,3.17,-1.53,-5.37,1742257066.403035
0.29,0.26,-0.96,2.81,-0.24,1.4,0.13,-0.45,0.87,2.62,3.66,2.01,1742257066.516704
0.31,0.23,-0.92,3.36,-2.44,-1.28,0.14,-0.42,0.88,3.05,6.41,0.61,1742257066.629984
0.31,0.24,-0.93,2.62,0.18,1.4,0.14,-0.45,0.88,-0.12,2.87,-0.85,1742257066.745311
0.31,0.26,-0.92,4.21,-2.87,0.37,0.15,-0.43,0.87,-1.53,4.09,0.85,1742257066.857962
0.32,0.27,-0.92,8.67,-6.35,-0.92,0.16,-0.47,0.88,-1.65,6.77,1.83,1742257066.9719732
0.33,0.27,-0.89,0.98,-7.14,-2.75,0.19,-0.41,0.86,3.6,0.18,4.39,1742257067.085854
0.34,0.29,-0.9,0.49,-3.17,0.55,0.19,-0.42,0.85,4.46,7.39,1.83,1742257067.199956
0.34,0.29,-0.85,1.53,-2.99,-0.98,0.19,-0.45,0.86,-5.37,-5.98,0.43,1742257067.313947
0.34,0.28,-0.93,3.66,-3.05,-3.36,0.17,-0.44,0.88,-5.43,4.52,2.81,1742257067.429047
0.37,0.27,-0.89,1.4,-7.2,-3.17,0.19,-0.4,0.88,-0.67,5.74,3.3,1742257067.545538
0.38,0.28,-0.88,0.98,-6.9,0.61,0.21,-0.4,0.87,0.73,7.51,1.89,1742257067.6557581
0.39,0.29,-0.87,2.14,-6.96,2.08,0.23,-0.42,0.86,-8.24,-1.59,1.46,1742257067.769025
0.39,0.32,-0.87,0.37,-7.2,0.06,0.23,-0.41,0.88,-7.2,0.73,3.17,1742257067.887392
0.42,0.3,-0.85,1.71,-7.08,-0.24,0.24,-0.38,0.87,0.49,7.69,1.89,1742257067.9967518
0.44,0.28,-0.84,0.43,-4.39,-0.49,0.26,-0.38,0.87,-2.32,5.13,-1.22,1742257068.1099892
0.44,0.31,-0.83,-1.1,-4.15,-0.61,0.26,-0.39,0.87,-14.77,-6.41,1.4,1742257068.22542
0.44,0.29,-0.86,-6.53,-1.65,-4.33,0.23,-0.33,0.89,-11.6,-5.07,1.4,1742257068.3379788
0.45,0.28,-0.84,-1.65,-2.08,0.06,0.24,-0.34,0.9,-1.28,3.11,-1.83,1742257068.451985
0.45,0.29,-0.84,-3.66,-2.87,0.92,0.24,-0.33,0.89,1.59,5.62,-1.34,1742257068.5659132
0.48,0.29,-0.84,-0.12,-1.95,0.31,0.26,-0.34,0.91,-1.65,1.95,-0.43,1742257068.6800551
0.46,0.29,-0.84,-1.95,-0.92,-4.27,0.25,-0.34,0.9,-7.45,-3.23,5.0,1742257068.794027
0.46,0.26,-0.81,0.0,-0.73,-7.02,0.26,-0.3,0.89,1.46,-0.55,4.03,1742257068.9081311
0.47,0.24,-0.84,-0.67,2.81,-2.87,0.25,-0.32,0.91,1.77,-2.5,0.12,1742257069.025655
0.46,0.26,-0.85,-1.59,1.89,0.0,0.25,-0.32,0.89,3.05,-1.34,-1.46,1742257069.136012
0.46,0.25,-0.83,0.43,3.97,-0.98,0.25,-0.31,0.89,4.15,-3.3,-2.56,1742257069.25004
0.44,0.26,-0.84,0.06,7.51,0.0,0.24,-0.33,0.9,4.88,-5.07,-1.4,1742257069.366941
0.43,0.26,-0.85,1.34,7.63,-2.69,0.23,-0.34,0.89,4.64,-5.98,0.67,1742257069.478058
0.42,0.22,-0.86,-2.75,9.03,-2.14,0.2,-0.32,0.89,5.37,-10.07,-4.58,1742257069.592117
0.38,0.25,-0.9,2.93,13.0,4.64,0.18,-0.42,0.89,9.58,-3.05,-4.64,1742257069.706045
0.37,0.25,-0.9,-2.08,7.39,0.06,0.19,-0.4,0.89,5.98,-5.98,-2.01,1742257069.820195
0.35,0.24,-0.91,-2.01,7.45,-3.78,0.14,-0.38,0.9,4.94,-4.03,0.06,1742257069.933952
0.35,0.22,-0.91,-0.61,5.07,1.16,0.16,-0.41,0.89,2.5,-0.49,-4.52,1742257070.0481641
0.34,0.26,-0.92,0.79,3.23,1.65,0.16,-0.43,0.89,2.81,-0.37,-0.18,1742257070.165775
0.34,0.25,-0.91,1.77,0.67,1.65,0.15,-0.44,0.88,-0.98,2.26,-0.12,1742257070.276041
0.33,0.25,-0.91,-3.97,-5.0,5.31,0.15,-0.43,0.87,-2.87,3.48,-1.65,1742257070.3901281
0.35,0.24,-0.91,-1.77,-5.19,2.99,0.16,-0.42,0.89,-1.34,7.08,-1.34,1742257070.506132
0.35,0.24,-0.91,0.12,-7.81,3.48,0.19,-0.41,0.88,-2.01,7.32,-0.06,1742257070.6181
0.36,0.26,-0.89,0.67,-6.16,2.93,0.21,-0.41,0.88,-0.49,6.16,-0.37,1742257070.732092
0.38,0.25,-0.92,3.11,-4.94,3.11,0.2,-0.42,0.87,-1.53,7.39,0.18,1742257070.845963
0.38,0.26,-0.87,1.95,-4.7,3.11,0.24,-0.4,0.87,0.12,7.39,-1.46,1742257070.959949
0.38,0.29,-0.87,1.46,-1.77,3.54,0.24,-0.42,0.87,2.2,5.92,2.14,1742257071.073981
0.4,0.27,-0.89,2.38,-4.82,-1.89,0.25,-0.41,0.87,-0.37,8.48,4.15,1742257071.187999
0.4,0.27,-0.86,4.03,-5.49,0.31,0.26,-0.4,0.89,2.62,7.39,2.44,1742257071.3051689
0.4,0.3,-0.85,3.72,-6.16,-0.31,0.29,-0.41,0.84,1.71,7.57,3.72,1742257071.4148412
0.43,0.29,-0.83,5.37,-5.25,-1.71,0.29,-0.38,0.86,1.46,7.75,3.36,1742257071.527856
0.43,0.29,-0.85,4.7,-6.04,3.17,0.32,-0.4,0.85,0.18,5.31,0.0,1742257071.64337
0.45,0.31,-0.84,-0.12,-5.55,1.71,0.34,-0.4,0.85,-2.93,2.62,0.67,1742257071.7559838
0.45,0.33,-0.81,0.98,-1.28,-3.05,0.33,-0.37,0.83,0.92,1.1,2.81,1742257071.8698418
0.45,0.32,-0.82,1.59,-1.22,3.78,0.34,-0.41,0.84,0.85,2.93,-3.91,1742257071.985916
0.44,0.33,-0.84,-3.85,2.32,-2.26,0.33,-0.39,0.84,-3.42,-5.92,0.55,1742257072.097184
0.45,0.32,-0.83,0.49,0.98,-0.85,0.33,-0.4,0.85,1.1,-0.12,0.98,1742257072.210987
0.43,0.31,-0.83,-1.34,1.28,0.0,0.32,-0.4,0.84,0.31,-2.26,-0.73,1742257072.3254158
0.44,0.31,-0.83,-0.85,0.85,0.31,0.32,-0.4,0.85,1.53,0.31,-0.49,1742257072.439063
0.44,0.32,-0.83,-0.49,1.1,-1.16,0.32,-0.4,0.85,0.18,-2.69,0.92,1742257072.5530272
0.44,0.31,-0.83,-0.55,2.2,-2.14,0.31,-0.4,0.85,0.73,-2.32,0.85,1742257072.666928
0.44,0.29,-0.86,-2.69,1.77,-3.78,0.31,-0.39,0.86,-0.67,-1.16,0.67,1742257072.7819588
0.44,0.28,-0.85,-2.81,1.34,-0.98,0.31,-0.38,0.86,0.12,0.55,-1.95,1742257072.895075
0.44,0.3,-0.85,-0.49,0.49,-0.92,0.31,-0.39,0.85,1.16,0.79,0.61,1742257073.008894
0.41,0.27,-0.84,0.12,1.77,-0.18,0.29,-0.38,0.83,3.48,-1.95,-2.81,1742257073.125759
0.42,0.31,-0.86,-2.38,3.3,2.08,0.31,-0.42,0.86,3.36,-1.83,-1.83,1742257073.23613
0.43,0.29,-0.85,-1.53,4.33,-2.56,0.3,-0.4,0.85,1.28,-4.09,-1.34,1742257073.350118
0.41,0.29,-0.86,-1.89,4.21,-0.37,0.29,-0.41,0.86,-0.24,-4.58,-2.26,1742257073.465635
0.4,0.3,-0.87,-1.28,3.54,0.06,0.29,-0.42,0.85,1.4,-2.14,-0.24,1742257073.578082
0.4,0.3,-0.87,-4.88,3.36,-4.76,0.28,-0.42,0.86,-3.85,-7.87,1.95,1742257073.692169
0.4,0.26,-0.87,-7.57,2.93,-5.98,0.24,-0.4,0.87,-3.3,-5.19,1.16,1742257073.8060338
0.4,0.26,-0.88,-5.55,0.61,-2.62,0.25,-0.4,0.88,-3.36,-2.87,1.04,1742257073.920079
0.41,0.24,-0.9,-3.17,-3.6,1.28,0.23,-0.38,0.89,-1.83,6.23,-1.1,1742257074.034069
0.41,0.24,-0.87,-0.79,-2.62,1.71,0.26,-0.38,0.86,-1.46,0.98,-1.53,1742257074.148076
0.37,0.24,-0.87,11.11,6.35,-6.96,0.25,-0.38,0.87,1.71,-2.56,0.12,1742257074.265128
0.4,0.25,-0.89,1.04,2.81,-3.6,0.25,-0.39,0.88,1.95,-3.36,2.93,1742257074.3760169
0.38,0.23,-0.9,0.0,1.34,-2.5,0.24,-0.38,0.88,1.28,-1.65,1.04,1742257074.48994
0.39,0.24,-0.89,-0.12,2.01,0.55,0.26,-0.39,0.88,0.37,-3.97,0.0,1742257074.605632
0.38,0.25,-0.89,0.73,4.52,-4.21,0.24,-0.37,0.88,2.14,-5.31,4.39,1742257074.717964
0.37,0.22,-0.91,0.98,5.74,-4.58,0.23,-0.38,0.9,-0.67,-9.09,3.23,1742257074.8320892
0.38,0.21,-0.92,-4.21,7.39,-5.8,0.2,-0.36,0.9,-3.78,-10.38,1.53,1742257074.946047
0.37,0.21,-0.9,0.61,8.0,-2.01,0.2,-0.37,0.89,1.1,-5.13,0.67,1742257075.0600371
0.34,0.24,-0.92,3.3,3.42,0.79,0.19,-0.39,0.89,-1.83,-0.37,2.14,1742257075.174121
0.34,0.21,-0.92,0.61,-3.17,2.38,0.19,-0.37,0.9,-1.04,6.59,0.49,1742257075.28796
0.35,0.23,-0.88,2.75,-5.07,3.36,0.24,-0.37,0.85,0.79,17.03,-8.97,1742257075.401988
0.34,0.27,-0.9,2.14,0.49,4.46,0.25,-0.41,0.85,2.14,5.0,-2.08,1742257075.5160031
0.33,0.29,-0.9,1.83,-1.71,1.71,0.26,-0.4,0.87,0.85,1.71,2.32,1742257075.629861
0.36,0.26,-0.89,1.28,-2.75,-2.2,0.25,-0.39,0.88,-6.16,3.23,1.59,1742257075.7459211
0.36,0.27,-0.88,0.98,-1.77,0.18,0.27,-0.37,0.88,-2.44,2.5,-1.95,1742257075.8580968
0.34,0.28,-0.9,0.31,1.65,2.2,0.27,-0.39,0.87,1.77,-1.59,-1.16,1742257075.972111
0.34,0.27,-0.89,-0.37,3.17,-0.24,0.24,-0.37,0.9,6.47,0.67,-1.95,1742257076.0859892
0.34,0.27,-0.91,4.46,2.2,2.81,0.25,-0.42,0.88,11.9,-0.43,-6.04,1742257076.2000241
0.32,0.3,-0.91,1.83,-0.67,1.16,0.25,-0.4,0.87,0.37,0.37,0.0,1742257076.313844
0.35,0.34,-0.85,16.78,5.62,-5.43,0.26,-0.4,0.88,-3.78,3.78,0.43,1742257076.4294348
0.32,0.19,-0.94,7.02,-1.28,-5.74,0.23,-0.35,0.9,-11.41,4.7,-1.71,1742257076.5452979
0.33,0.29,-0.91,0.85,-1.16,11.11,0.26,-0.4,0.87,-7.87,6.84,-2.44,1742257076.655023
0.34,0.32,-0.88,5.13,-1.46,-2.26,0.23,-0.34,0.93,3.66,1.16,11.54,1742257076.7690601
0.35,0.32,-0.88,65.49,1.16,-33.94,0.04,0.12,0.99,-38.57,11.78,-28.63,1742257076.883015
0.36,0.33,-0.81,20.26,19.1,-8.79,0.21,0.03,0.7,-73.24,-1.04,-198.12,1742257076.996166
0.31,0.39,-0.87,11.84,13.85,6.04,0.01,-0.29,0.84,-34.42,-73.0,-213.75,1742257077.110137
0.31,0.44,-0.84,10.31,9.52,4.03,-0.19,-0.46,0.93,16.48,16.48,-78.25,1742257077.22592
0.29,0.46,-0.84,18.55,11.84,-3.78,-0.23,-0.35,1.13,-5.49,27.28,-28.63,1742257077.338259
0.26,0.47,-0.84,15.5,8.97,-0.06,-0.06,-0.34,0.94,-4.33,19.47,-3.42,1742257077.4522
0.22,0.54,-0.85,7.2,2.62,4.52,-0.03,-0.05,1.05,-36.44,21.79,-4.64,1742257077.56618
0.25,0.54,-0.78,1.16,7.69,-4.03,-0.07,-0.12,0.97,23.86,5.07,-10.07,1742257078.022173
0.24,0.5,-0.85,2.2,5.13,-6.16,-0.03,-0.21,0.87,-10.44,-38.82,23.86,1742257078.24233
0.24,0.52,-0.83,-1.28,8.0,-10.38,-0.14,-0.15,0.95,-18.74,-24.96,6.23,1742257078.6021702
0.25,0.46,-0.86,2.87,8.18,-12.82,-0.1,-0.16,0.96,-18.98,15.26,12.15,1742257078.900277
