L-AccX,L-AccY,L-AccZ,L-GyrX,L-GyrY,L-GyrZ,R-AccX,R-AccY,R-AccZ,R-GyrX,R-GyrY,R-GyrZ,timestamp
-0.44,0.63,-0.72,26.12,9.46,-28.44,-1.06,-0.56,0.77,87.28,9.34,-0.79,1742249975.8115032
-0.35,0.54,-0.67,32.71,-6.29,-0.43,-0.49,-0.47,0.59,141.66,-34.55,53.59,1742249975.9261062
-0.34,0.66,-0.45,-5.86,17.46,39.43,-0.16,-0.66,0.68,115.84,-81.85,-50.72,1742249976.046339
-0.49,0.74,-0.61,-11.41,38.7,33.45,-0.41,-0.67,-0.0,130.62,-69.76,-135.62,1742249976.1538801
-0.51,0.67,-0.56,-8.42,30.7,11.78,-0.7,-0.76,-0.22,78.86,-44.49,-93.14,1742249976.2676659
-0.61,0.65,-0.53,3.36,15.81,10.62,-0.87,-0.46,-0.2,84.72,-67.93,-96.13,1742249976.386315
-0.67,0.65,-0.52,6.23,8.54,3.23,-1.01,-0.38,-0.44,32.65,-2.01,-23.5,1742249976.4957051
-0.63,0.62,-0.48,5.92,3.78,-4.15,-0.97,-0.19,-0.21,4.52,40.47,2.56,1742249976.609495
-0.66,0.7,-0.37,-7.02,28.81,12.15,-0.94,-0.22,-0.22,17.4,24.11,-10.31,1742249976.7247438
-0.58,0.62,-0.46,15.2,8.73,14.47,-0.93,-0.23,-0.35,14.77,3.42,-17.52,1742249976.838335
-0.72,0.61,-0.34,7.02,2.14,25.51,-0.84,-0.14,-0.34,1.4,1.77,-8.42,1742249976.951589
-0.69,0.59,-0.4,-5.55,-6.65,31.8,-0.99,-0.15,-0.36,12.57,-0.12,-22.4,1742249977.0659158
-0.75,0.58,-0.43,-5.74,-4.88,27.16,-0.92,-0.08,-0.35,12.82,-4.76,-20.51,1742249977.1796741
-0.75,0.5,-0.42,-5.8,-4.82,23.5,-0.92,-0.05,-0.36,10.56,0.43,-7.81,1742249977.2936058
-0.77,0.45,-0.42,-2.56,-1.16,12.15,-0.94,-0.05,-0.37,12.39,-2.26,1.77,1742249977.407546
-0.79,0.48,-0.43,2.56,-3.23,3.3,-0.92,-0.03,-0.36,4.15,-0.49,3.91,1742249977.525768
-0.78,0.44,-0.43,5.07,2.14,-2.87,-0.94,-0.02,-0.37,0.0,0.79,-1.28,1742249977.6355898
-0.79,0.45,-0.42,-0.12,0.67,2.44,-0.94,0.0,-0.37,-0.43,2.75,2.99,1742249977.74948
-0.79,0.46,-0.42,4.7,0.73,-8.85,-0.93,-0.04,-0.36,-0.67,-0.06,0.24,1742249977.8657432
-0.77,0.48,-0.41,-1.59,-1.1,-2.38,-0.93,-0.03,-0.35,0.73,-0.49,3.97,1742249977.984712
-0.77,0.47,-0.42,1.1,-1.89,-4.21,-0.93,-0.06,-0.36,-0.61,-0.49,5.92,1742249978.091682
-0.77,0.48,-0.42,2.69,-3.78,-4.03,-0.92,-0.07,-0.37,-5.68,1.53,2.32,1742249978.209501
-0.75,0.5,-0.43,-3.3,-6.96,-2.56,-0.94,-0.06,-0.36,-0.92,-0.12,0.37,1742249978.325902
-0.75,0.5,-0.44,-1.95,0.79,-0.55,-0.92,-0.07,-0.35,-0.43,1.16,1.1,1742249978.433475
-0.74,0.49,-0.43,0.73,-1.89,-0.73,-0.93,-0.07,-0.35,1.53,0.73,1.04,1742249978.5473769
-0.75,0.5,-0.43,1.1,-0.49,-0.79,-0.92,-0.08,-0.35,0.98,-0.61,-1.59,1742249978.6672242
-0.75,0.5,-0.44,1.77,-0.43,3.05,-0.93,-0.05,-0.35,1.28,0.0,-0.37,1742249978.775486
-0.75,0.48,-0.43,2.5,1.04,1.4,-0.94,-0.06,-0.36,2.5,-0.06,0.12,1742249978.8894851
-0.75,0.49,-0.44,0.85,-0.49,0.73,-0.92,-0.06,-0.35,0.31,-0.55,0.67,1742249979.005258
-0.76,0.48,-0.42,2.2,2.26,0.12,-0.93,-0.08,-0.35,4.58,-0.43,-0.67,1742249979.117586
-0.77,0.49,-0.42,6.29,-0.12,4.94,-0.92,-0.06,-0.36,2.62,-0.55,-0.67,1742249979.2315872
-0.76,0.48,-0.42,1.46,-0.24,1.04,-0.93,-0.06,-0.36,-1.4,1.53,-0.61,1742249979.345578
-0.77,0.48,-0.42,-1.16,0.12,-1.04,-0.93,-0.06,-0.35,-0.31,1.4,-0.61,1742249979.464939
-0.77,0.49,-0.42,-0.37,0.37,0.0,-0.92,-0.05,-0.35,1.04,-1.16,-2.38,1742249979.57358
-0.76,0.48,-0.41,-2.44,0.98,1.77,-0.94,-0.04,-0.36,1.71,-0.79,-4.58,1742249979.68759
-0.78,0.47,-0.43,-2.99,-0.67,3.97,-0.93,-0.04,-0.36,1.4,-0.37,-0.43,1742249979.803822
-0.77,0.47,-0.43,-0.31,-0.85,1.16,-0.93,-0.02,-0.35,2.75,-0.55,-1.04,1742249979.915584
-0.76,0.45,-0.43,-0.18,-0.06,1.71,-0.93,-0.01,-0.35,4.94,-0.43,-1.65,1742249980.029574
-0.77,0.45,-0.43,0.73,-1.16,3.11,-0.93,-0.01,-0.35,5.31,0.55,-2.93,1742249980.145338
-0.78,0.44,-0.43,2.81,-0.12,4.7,-0.92,0.01,-0.35,6.1,2.44,-8.85,1742249980.257389
-0.76,0.43,-0.43,-1.28,-2.99,9.52,-0.97,-0.02,-0.36,2.75,1.22,-0.06,1742249980.3713741
-0.8,0.47,-0.43,1.83,0.55,1.95,-0.92,0.01,-0.35,-0.37,0.37,0.73,1742249980.485441
-0.79,0.43,-0.42,-0.67,0.49,-3.48,-0.93,0.01,-0.34,-1.53,2.32,0.31,1742249980.603688
-0.78,0.44,-0.43,0.73,0.18,-0.12,-0.91,-0.01,-0.33,-0.24,1.22,2.14,1742249980.713345
-0.77,0.44,-0.41,3.36,-1.34,1.4,-0.96,-0.02,-0.34,-2.56,3.23,1.71,1742249980.8274848
-0.81,0.46,-0.43,2.44,0.18,1.22,-0.93,-0.01,-0.32,0.73,-0.85,0.31,1742249980.942898
-0.77,0.44,-0.42,-0.31,-0.43,-1.65,-0.95,0.02,-0.34,-1.34,2.69,-0.18,1742249981.0553532
-0.78,0.42,-0.43,-0.73,-0.37,-3.23,-0.94,-0.04,-0.33,-8.97,1.22,5.98,1742249981.16936
-0.77,0.46,-0.44,-4.15,1.34,-9.64,-0.94,-0.04,-0.33,-8.97,-3.23,3.3,1742249981.284037
-0.79,0.47,-0.44,-4.03,1.59,-11.29,-0.96,-0.06,-0.33,-6.71,2.26,0.49,1742249981.397373
-0.75,0.5,-0.44,-3.36,0.0,-5.8,-0.93,-0.03,-0.32,-0.98,1.77,-5.86,1742249981.5114508
-0.75,0.47,-0.44,-4.09,-3.3,2.08,-0.95,-0.02,-0.32,2.01,0.49,-4.76,1742249981.625345
-0.77,0.46,-0.47,-6.84,-7.26,6.47,-0.95,-0.02,-0.3,0.79,-5.19,0.61,1742249981.743395
-0.76,0.46,-0.47,1.71,1.77,3.23,-0.93,-0.03,-0.32,4.52,-3.42,0.24,1742249981.853355
-0.74,0.46,-0.45,4.03,0.79,3.05,-0.92,-0.04,-0.33,4.21,-3.54,2.32,1742249981.96736
-0.75,0.46,-0.45,2.5,-4.46,4.82,-0.95,-0.01,-0.34,1.1,-3.3,4.33,1742249982.083006
-0.77,0.44,-0.45,4.94,10.01,-2.62,-0.95,-0.07,-0.32,-6.04,18.07,-0.61,1742249982.195455
-0.78,0.49,-0.42,7.39,5.49,-2.14,-0.94,-0.03,-0.29,-6.04,5.43,-7.51,1742249982.309515
-0.77,0.44,-0.4,3.78,4.03,8.18,-0.95,-0.02,-0.28,4.33,3.42,-4.03,1742249982.423396
-0.77,0.44,-0.43,0.0,-2.81,4.88,-0.94,-0.04,-0.28,2.62,3.11,-1.65,1742249982.541837
-0.77,0.46,-0.41,0.31,-4.76,2.2,-0.99,-0.01,-0.3,-0.67,-0.61,2.56,1742249982.651528
-0.83,0.46,-0.45,2.01,0.55,-0.98,-0.95,-0.03,-0.29,-1.77,0.0,1.59,1742249982.7653718
-0.78,0.45,-0.42,0.24,1.59,-1.83,-0.96,-0.02,-0.28,-3.11,0.92,2.69,1742249982.883353
-0.79,0.45,-0.43,-2.93,3.85,-3.54,-0.94,-0.01,-0.27,0.98,0.61,-5.37,1742249982.993404
-0.77,0.44,-0.41,-2.14,2.69,1.46,-0.95,-0.0,-0.27,2.93,1.89,0.12,1742249983.107221
-0.78,0.44,-0.42,2.81,-1.83,0.31,-0.95,-0.01,-0.28,3.54,1.59,-3.97,1742249983.221347
-0.79,0.43,-0.42,0.79,-5.25,2.38,-0.96,-0.0,-0.27,-2.01,-0.18,0.98,1742249983.335371
-0.79,0.44,-0.43,0.49,-0.12,-1.4,-0.96,0.0,-0.27,-0.12,-0.79,0.18,1742249983.449312
-0.79,0.43,-0.42,-0.61,1.22,-0.67,-0.96,-0.0,-0.27,0.24,-0.43,-0.37,1742249983.563333
-0.79,0.43,-0.43,-0.55,0.31,-0.06,-0.96,-0.01,-0.27,-0.06,-0.31,-0.43,1742249983.6774452
-0.78,0.44,-0.43,-0.49,0.73,-0.06,-0.96,-0.0,-0.27,0.67,-1.4,-1.83,1742249983.791345
-0.79,0.44,-0.43,-0.98,0.61,1.28,-0.96,-0.01,-0.27,0.43,-0.79,0.12,1742249983.9052632
-0.79,0.44,-0.43,-0.06,0.61,0.49,-0.96,0.0,-0.27,0.31,-0.37,-0.73,1742249984.022464
-0.79,0.44,-0.42,-0.73,0.61,0.79,-0.96,0.0,-0.28,-0.61,-0.79,-0.12,1742249984.133485
-0.79,0.44,-0.42,0.06,0.18,0.0,-0.96,0.01,-0.28,2.01,-1.59,0.0,1742249984.2472079
-0.79,0.43,-0.42,1.16,-0.24,-0.49,-0.95,0.0,-0.28,1.22,-2.56,-0.18,1742249984.362628
-0.79,0.44,-0.43,2.69,0.43,0.49,-0.95,0.0,-0.29,-0.73,-0.61,-0.49,1742249984.475338
-0.79,0.43,-0.42,0.49,-0.31,0.06,-0.95,0.01,-0.29,2.62,-1.4,-3.66,1742249984.589382
-0.79,0.43,-0.42,-1.89,-0.49,0.55,-0.95,0.01,-0.29,-3.23,-2.14,-0.79,1742249984.706645
-0.79,0.43,-0.42,-1.34,0.31,1.4,-0.95,0.01,-0.28,-0.12,2.14,-0.73,1742249984.821214
-0.8,0.43,-0.43,7.51,0.12,4.03,-0.96,0.01,-0.29,1.16,1.46,-1.46,1742249984.9311712
-0.8,0.43,-0.42,3.11,-1.1,2.81,-0.95,0.02,-0.28,-0.12,1.16,-1.04,1742249985.0451992
-0.8,0.42,-0.42,-2.44,0.67,-0.55,-0.95,0.02,-0.28,0.61,1.04,-1.53,1742249985.15919
-0.8,0.42,-0.42,0.12,-0.98,0.85,-0.95,0.02,-0.28,1.04,0.18,-0.98,1742249985.273298
-0.8,0.42,-0.42,1.04,-1.22,1.16,-0.96,0.03,-0.28,0.79,0.12,-1.71,1742249985.3870752
-0.81,0.42,-0.43,-2.08,0.37,1.46,-0.95,0.02,-0.28,-0.79,1.28,-0.61,1742249985.5024111
-0.8,0.41,-0.42,-1.4,0.12,-0.37,-0.95,0.03,-0.27,-2.14,0.37,0.06,1742249985.615084
-0.8,0.41,-0.43,-1.95,0.12,-1.22,-0.95,0.02,-0.27,0.67,-0.31,-0.37,1742249985.729156
-0.8,0.41,-0.43,0.37,0.12,0.0,-0.96,0.03,-0.28,0.37,0.31,0.24,1742249985.842962
-0.8,0.41,-0.43,1.22,-0.67,-0.24,-0.96,0.03,-0.28,-0.24,-0.06,-0.43,1742249985.957259
-0.8,0.41,-0.43,-0.43,0.37,-0.73,-0.96,0.03,-0.28,0.12,0.79,-0.49,1742249986.0710568
-0.8,0.41,-0.43,-0.67,-0.06,-0.18,-0.95,0.03,-0.28,0.18,0.37,0.0,1742249986.1849458
-0.8,0.41,-0.43,0.18,-0.24,-0.24,-0.98,0.01,-0.29,-9.28,-3.54,12.08,1742249986.3022919
-0.84,0.43,-0.44,-1.46,6.96,-6.9,-0.97,-0.0,-0.29,3.11,-0.73,4.09,1742249986.4131992
-0.8,0.44,-0.43,5.25,-0.49,-2.69,-0.95,-0.0,-0.28,0.85,-0.31,-2.38,1742249986.5272791
-0.79,0.43,-0.41,0.98,0.06,1.95,-0.95,0.01,-0.28,-1.04,1.34,-2.2,1742249986.6429482
-0.8,0.42,-0.42,-1.77,-0.31,-0.24,-0.99,0.02,-0.29,-4.64,0.43,2.93,1742249986.755092
-0.81,0.43,-0.42,-4.64,4.52,-1.4,-0.95,-0.0,-0.28,0.92,-0.24,2.14,1742249986.869202
-0.8,0.43,-0.41,3.85,0.31,-2.5,-0.96,-0.01,-0.29,0.43,0.37,0.0,1742249986.9831932
-0.8,0.44,-0.41,1.1,-0.67,0.18,-0.96,-0.0,-0.28,-1.22,0.49,-0.31,1742249987.101215
-0.8,0.43,-0.41,-0.73,0.18,-0.92,-0.95,-0.01,-0.28,-0.67,0.67,-0.37,1742249987.2113001
-0.79,0.43,-0.41,-0.55,-0.85,-0.73,-0.96,-0.0,-0.28,0.06,-0.61,-0.61,1742249987.3252852
-0.8,0.43,-0.42,-1.59,0.85,0.55,-0.94,-0.01,-0.28,-0.12,0.49,-0.06,1742249987.441748
-0.79,0.42,-0.41,0.24,-0.24,-0.98,-0.96,-0.0,-0.28,0.06,1.22,-0.43,1742249987.553278
-0.79,0.42,-0.41,-2.08,0.43,-1.46,-0.96,-0.01,-0.27,-0.12,0.06,-0.12,1742249987.667274
-0.79,0.43,-0.42,-0.79,0.06,-0.06,-0.96,-0.0,-0.28,0.06,0.18,-0.37,1742249987.781721
-0.8,0.43,-0.42,-0.55,0.43,0.49,-0.96,-0.01,-0.28,-0.06,0.06,-0.31,1742249987.895257
-0.8,0.43,-0.42,-0.43,0.06,0.43,-0.96,-0.01,-0.27,-0.85,-0.31,-0.79,1742249988.009349
-0.8,0.43,-0.42,-1.71,0.18,0.18,-0.96,-0.0,-0.27,-0.06,-0.55,-0.49,1742249988.1233711
-0.79,0.43,-0.41,-0.31,-0.18,-0.12,-0.96,-0.0,-0.28,-0.43,-0.24,-0.24,1742249988.2411468
-0.8,0.43,-0.42,-0.06,0.37,0.12,-0.96,-0.0,-0.27,-0.06,-0.55,-1.04,1742249988.351398
-0.79,0.42,-0.42,-0.79,0.79,0.31,-0.96,0.0,-0.28,0.06,-0.06,-0.43,1742249988.465055
-0.8,0.42,-0.42,-1.34,0.06,0.24,-0.96,-0.0,-0.28,1.53,1.22,0.06,1742249988.5811079
-0.79,0.42,-0.42,0.73,-0.85,0.12,-0.95,-0.0,-0.27,-0.55,0.31,0.49,1742249988.6930041
-0.79,0.42,-0.42,-0.24,-0.37,-0.98,-0.96,-0.01,-0.27,-1.16,-0.24,-0.18,1742249988.8072278
-0.79,0.43,-0.42,-0.67,0.06,-0.12,-0.95,-0.01,-0.27,-0.37,-0.06,-0.92,1742249988.921332
-0.79,0.42,-0.42,-0.73,0.37,-0.12,-0.96,-0.01,-0.27,1.53,1.71,0.73,1742249989.034933
-0.8,0.43,-0.42,0.0,-1.28,-1.59,-0.95,-0.01,-0.27,-1.22,0.61,0.61,1742249989.149007
-0.79,0.43,-0.42,0.06,-0.43,-0.73,-0.97,0.0,-0.27,-1.16,-0.43,2.14,1742249989.2630248
-0.8,0.43,-0.43,-1.28,-0.06,0.49,-0.96,-0.02,-0.27,-0.73,0.31,0.43,1742249989.377054
-0.8,0.42,-0.43,-0.67,0.31,-0.18,-0.96,-0.02,-0.26,-0.55,0.67,1.22,1742249989.491014
-0.8,0.43,-0.43,0.18,-0.79,-2.14,-0.96,-0.02,-0.27,0.49,2.5,0.67,1742249989.604922
-0.79,0.42,-0.43,0.98,-1.71,-0.98,-0.98,-0.01,-0.26,0.18,0.12,2.93,1742249989.719739
-0.79,0.43,-0.44,0.79,0.55,-2.44,-0.96,-0.02,-0.26,-0.43,0.0,-0.37,1742249989.8331578
-0.79,0.43,-0.43,-0.61,0.79,-0.31,-0.96,-0.02,-0.26,1.1,0.31,-1.4,1742249989.947061
-0.79,0.43,-0.43,-0.67,-0.12,0.31,-0.96,-0.02,-0.26,1.53,-0.43,-2.87,1742249990.061035
-0.79,0.42,-0.43,-0.79,-0.18,0.73,-0.97,-0.02,-0.27,-1.83,-0.43,1.46,1742249990.175148
-0.81,0.43,-0.44,-0.18,1.22,-0.92,-0.93,-0.02,-0.26,0.24,-0.61,0.43,1742249990.288955
-0.78,0.42,-0.42,1.46,0.37,-1.53,-0.96,-0.01,-0.26,-0.18,-1.1,-0.85,1742249990.40327
-0.79,0.43,-0.42,-0.18,1.04,-0.18,-0.96,-0.02,-0.27,0.55,-0.49,-1.65,1742249990.5203562
-0.79,0.42,-0.42,0.31,-0.43,0.55,-0.97,-0.02,-0.27,-0.98,-0.18,-0.24,1742249990.631178
-0.8,0.43,-0.43,-0.73,-0.61,1.04,-0.95,-0.02,-0.27,-1.59,-1.4,0.67,1742249990.745064
-0.8,0.42,-0.43,-0.73,0.92,-0.31,-0.95,-0.02,-0.27,0.06,-0.24,-0.55,1742249990.8613708
-0.79,0.42,-0.42,0.12,0.06,-0.18,-0.95,-0.02,-0.27,0.85,-0.31,-0.79,1742249990.973093
-0.79,0.42,-0.43,0.85,-0.06,0.12,-0.96,-0.02,-0.27,0.24,-0.49,-0.85,1742249991.087011
-0.8,0.42,-0.43,0.0,-0.12,0.24,-0.96,-0.02,-0.27,-0.79,0.31,-0.31,1742249991.201031
-0.79,0.42,-0.42,-0.24,0.55,-0.24,-0.96,-0.02,-0.27,-0.43,0.31,-0.18,1742249991.3150148
-0.79,0.42,-0.42,-0.73,-0.12,0.31,-0.96,-0.02,-0.27,0.06,-0.12,-0.31,1742249991.4290502
-0.8,0.42,-0.42,-0.18,0.61,0.24,-0.96,-0.02,-0.27,-0.24,0.43,-0.31,1742249991.543017
-0.8,0.42,-0.43,-0.18,-0.55,-0.31,-0.96,-0.02,-0.27,-0.06,0.37,-0.49,1742249991.657012
-0.79,0.42,-0.43,-0.55,0.06,-0.24,-0.96,-0.02,-0.27,0.24,-0.06,-0.18,1742249991.771029
-0.8,0.42,-0.43,-0.43,-0.06,-0.24,-0.96,-0.01,-0.27,-0.49,0.06,0.37,1742249991.884927
-0.8,0.42,-0.44,-2.14,0.18,-0.61,-0.96,-0.02,-0.27,-1.4,0.24,-1.22,1742249992.0012832
-0.79,0.42,-0.43,-0.98,-0.06,-0.37,-0.96,-0.02,-0.27,0.18,0.0,-0.73,1742249992.1131861
-0.8,0.42,-0.43,-0.61,0.06,0.43,-0.96,-0.01,-0.27,0.79,-0.61,-0.49,1742249992.2269728
-0.8,0.42,-0.43,1.1,0.06,0.73,-0.97,-0.02,-0.27,0.12,-0.61,-0.31,1742249992.341161
-0.8,0.42,-0.43,-0.24,0.55,0.55,-0.93,-0.01,-0.26,0.0,2.01,6.41,1742249992.4548638
-0.78,0.42,-0.41,6.59,-1.59,-6.23,-0.94,-0.01,-0.26,0.24,0.43,0.49,1742249992.568774
-0.78,0.42,-0.42,0.67,-0.49,-2.32,-0.95,-0.01,-0.27,-0.43,-0.43,-0.12,1742249992.6835809
-0.79,0.42,-0.43,0.37,0.67,0.06,-0.96,-0.02,-0.27,-0.18,0.12,-1.16,1742249992.797044
-0.79,0.42,-0.43,-1.04,0.31,0.43,-0.96,-0.01,-0.27,-1.4,1.16,-1.04,1742249992.910954
-0.79,0.42,-0.43,-2.93,0.92,0.12,-0.96,-0.01,-0.26,0.0,0.67,-0.92,1742249993.024919
-0.79,0.42,-0.43,-0.92,-0.79,0.67,-0.97,-0.01,-0.27,-0.61,-0.06,-0.24,1742249993.140756
-0.8,0.41,-0.43,-0.98,-0.06,0.49,-0.96,-0.01,-0.26,-0.24,0.49,-0.31,1742249993.252958
-0.79,0.41,-0.43,-0.12,-0.18,0.31,-0.96,-0.01,-0.26,-1.1,0.31,-0.24,1742249993.3669178
-0.8,0.41,-0.43,-1.04,-0.12,-0.92,-0.96,-0.01,-0.26,-0.85,0.43,0.61,1742249993.481437
-0.8,0.42,-0.44,-0.18,-0.31,-0.98,-0.96,-0.0,-0.26,-0.37,0.06,-0.12,1742249993.594949
-0.79,0.4,-0.43,-0.24,0.06,-0.67,-0.96,-0.02,-0.26,0.0,0.12,-0.43,1742249993.7088509
-0.79,0.42,-0.44,-0.31,0.06,0.18,-0.96,-0.01,-0.26,-0.06,-0.12,-0.12,1742249993.8230112
-0.79,0.41,-0.44,0.24,0.06,-0.31,-0.96,-0.02,-0.27,-1.83,-0.67,0.18,1742249993.9369411
-0.8,0.41,-0.44,-1.71,1.53,-0.85,-0.97,-0.01,-0.26,-1.95,0.0,0.0,1742249994.0508502
-0.8,0.42,-0.44,-7.26,4.7,-0.98,-0.95,-0.01,-0.26,0.24,0.12,0.31,1742249994.1647732
-0.79,0.41,-0.43,1.95,-1.16,-0.92,-0.96,-0.01,-0.26,0.12,-0.31,0.06,1742249994.281331
-0.8,0.4,-0.44,0.24,0.61,-0.49,-0.96,-0.02,-0.27,0.85,0.61,0.31,1742249994.3927932
-0.8,0.41,-0.44,0.55,-0.24,0.12,-0.97,-0.01,-0.26,0.12,-0.18,-0.24,1742249994.506984
-0.8,0.4,-0.44,0.43,0.43,-0.06,-0.96,-0.02,-0.26,-0.31,0.12,0.31,1742249994.6211982
-0.8,0.41,-0.44,0.24,0.12,-0.18,-0.95,-0.02,-0.26,0.06,-0.06,0.92,1742249994.73488
-0.8,0.41,-0.43,1.53,0.0,-0.79,-0.96,-0.02,-0.26,0.67,-0.12,0.55,1742249994.84879
-0.8,0.41,-0.43,2.44,-0.73,-0.24,-0.96,-0.02,-0.27,0.31,-0.37,-0.43,1742249994.962917
-0.8,0.41,-0.43,0.06,0.73,-0.06,-0.96,-0.02,-0.26,-0.73,-0.31,0.24,1742249995.076853
-0.8,0.41,-0.43,-0.61,0.67,-0.49,-0.96,-0.02,-0.26,-0.06,0.0,-0.31,1742249995.190828
-0.8,0.41,-0.43,-0.37,0.0,-0.37,-0.96,-0.02,-0.26,-0.06,0.24,0.12,1742249995.304724
-0.8,0.41,-0.43,0.0,-0.31,-0.49,-0.96,-0.01,-0.26,0.49,0.37,-0.67,1742249995.420948
-0.8,0.41,-0.43,-0.12,-0.06,-0.37,-0.97,-0.02,-0.27,-0.61,0.31,-0.37,1742249995.5328472
-0.8,0.41,-0.43,-0.55,-0.06,0.61,-0.96,-0.02,-0.26,-0.37,0.18,0.12,1742249995.646753
-0.8,0.41,-0.43,-0.31,-0.06,-0.92,-0.96,-0.02,-0.26,0.18,0.0,-0.12,1742249995.76118
-0.8,0.41,-0.43,0.31,0.06,-0.31,-0.96,-0.02,-0.26,0.12,-0.06,-0.37,1742249995.874826
-0.8,0.41,-0.43,0.67,0.06,-0.12,-0.96,-0.02,-0.26,-0.18,0.0,-0.31,1742249995.988819
-0.8,0.41,-0.44,0.12,0.0,0.06,-0.96,-0.02,-0.26,0.24,0.12,-0.12,1742249996.102775
-0.8,0.41,-0.43,-0.31,0.24,-0.06,-0.96,-0.01,-0.26,-0.61,0.06,0.06,1742249996.217788
-0.8,0.41,-0.43,-0.24,0.12,-0.24,-0.96,-0.02,-0.26,0.0,0.67,0.37,1742249996.330656
-0.79,0.41,-0.43,0.79,0.79,0.12,-0.96,-0.02,-0.26,-0.24,0.12,0.0,1742249996.4446988
-0.8,0.41,-0.43,-0.49,0.73,0.0,-0.95,-0.01,-0.26,0.43,-0.18,-0.37,1742249996.560787
-0.8,0.4,-0.43,0.18,-0.18,0.12,-0.96,-0.02,-0.26,1.22,0.12,-0.73,1742249996.6727622
-0.8,0.4,-0.43,0.61,-0.18,0.49,-0.96,-0.01,-0.26,1.83,-0.43,-1.04,1742249996.7868302
-0.8,0.4,-0.43,0.43,-0.24,1.16,-0.96,-0.01,-0.27,-0.55,-0.24,-1.95,1742249996.900915
-0.8,0.4,-0.43,-1.95,0.85,1.28,-0.96,-0.01,-0.26,-0.49,0.24,-1.1,1742249997.0148401
-0.8,0.39,-0.43,-0.55,0.49,1.46,-0.96,-0.0,-0.26,1.4,-0.31,-1.4,1742249997.128851
-0.81,0.4,-0.43,0.24,0.24,1.22,-0.96,0.0,-0.26,1.83,-1.89,-3.11,1742249997.242712
-0.81,0.39,-0.43,-0.67,0.18,2.2,-0.96,0.01,-0.26,0.55,-0.24,-1.04,1742249997.3567271
-0.81,0.39,-0.43,-0.61,0.06,-0.18,-0.96,0.01,-0.27,0.37,0.06,-2.44,1742249997.470657
-0.81,0.38,-0.43,-1.22,0.24,0.67,-0.95,0.01,-0.26,1.53,0.06,-4.03,1742249997.584642
-0.8,0.38,-0.43,-1.22,0.06,2.5,-0.97,0.03,-0.27,3.05,0.55,-4.46,1742249997.698598
-0.81,0.37,-0.44,-1.46,-0.73,4.03,-0.95,0.02,-0.26,1.16,0.43,-2.14,1742249997.81264
-0.81,0.37,-0.43,-0.55,-1.22,1.1,-0.97,0.04,-0.27,-0.61,0.18,-4.76,1742249997.926743
-0.82,0.36,-0.44,-2.44,-0.06,3.48,-0.96,0.03,-0.26,2.26,-0.92,-4.94,1742249998.0407271
-0.81,0.36,-0.44,-2.81,0.67,3.11,-0.96,0.05,-0.27,2.5,-0.24,-5.25,1742249998.154592
-0.8,0.33,-0.44,-4.15,-0.49,5.43,-0.96,0.05,-0.27,2.38,1.34,-4.52,1742249998.268543
-0.82,0.33,-0.44,0.0,-2.62,4.82,-0.95,0.06,-0.26,0.55,1.04,-1.4,1742249998.3825548
-0.81,0.33,-0.45,-1.1,-0.73,2.62,-0.96,0.08,-0.26,-0.61,0.98,-1.28,1742249998.496646
-0.83,0.32,-0.45,-2.75,0.37,0.61,-0.96,0.07,-0.25,-0.37,0.79,-0.85,1742249998.6105332
-0.82,0.32,-0.45,-0.85,0.49,0.37,-0.96,0.07,-0.25,-1.1,-0.18,0.12,1742249998.724614
-0.83,0.32,-0.45,-1.34,0.06,0.37,-0.97,0.07,-0.26,0.12,0.85,-1.4,1742249998.840704
-0.83,0.32,-0.45,-1.28,0.0,1.16,-0.96,0.07,-0.25,-0.43,0.49,-0.55,1742249998.952598
-0.81,0.31,-0.45,-1.34,-0.37,1.59,-0.96,0.08,-0.25,-0.18,0.55,-0.43,1742249999.066606
-0.83,0.31,-0.46,-0.61,0.12,-0.12,-0.95,0.07,-0.25,0.06,0.31,-0.49,1742249999.1833868
-0.83,0.31,-0.46,0.37,0.31,0.18,-0.97,0.08,-0.26,0.73,0.06,-0.85,1742249999.29442
-0.83,0.3,-0.46,-0.85,0.79,1.59,-0.96,0.08,-0.26,0.06,-0.06,0.12,1742249999.4084978
-0.83,0.3,-0.46,-0.85,0.18,-0.37,-0.96,0.08,-0.25,-0.18,-0.24,-0.49,1742249999.5227048
-0.83,0.3,-0.45,-1.4,0.37,-0.12,-0.96,0.08,-0.26,-0.79,0.61,-0.79,1742249999.636629
-0.84,0.3,-0.46,-1.4,0.24,0.31,-0.96,0.08,-0.25,-0.24,0.24,-0.37,1742249999.750546
-0.83,0.3,-0.46,-0.85,0.18,-0.31,-0.96,0.08,-0.25,-0.37,0.24,0.37,1742249999.8644102
-0.84,0.3,-0.46,-0.24,-0.06,-0.37,-0.96,0.07,-0.25,0.18,0.18,-0.43,1742249999.980051
-0.83,0.29,-0.45,-0.37,0.37,0.37,-0.96,0.08,-0.25,0.0,0.0,-0.31,1742250000.092413
-0.83,0.29,-0.45,-0.06,0.0,-0.18,-0.96,0.08,-0.25,0.0,0.0,-0.43,1742250000.206544
-0.83,0.29,-0.46,-0.12,0.12,-0.12,-0.96,0.08,-0.25,-0.37,0.06,-0.06,1742250000.320599
-0.83,0.3,-0.46,-0.24,0.18,-0.37,-0.96,0.08,-0.25,-0.12,-0.49,0.49,1742250000.434556
-0.83,0.29,-0.46,0.24,0.49,-0.73,-0.96,0.08,-0.25,-0.06,-0.37,0.43,1742250000.548623
-0.83,0.3,-0.46,-0.12,0.31,-0.73,-0.96,0.08,-0.25,0.12,-0.31,0.49,1742250000.66255
-0.84,0.29,-0.46,-0.06,0.12,-0.61,-0.96,0.08,-0.25,-0.73,0.12,0.43,1742250000.7765481
-0.84,0.29,-0.46,-1.1,0.55,-0.79,-0.96,0.07,-0.25,-0.37,0.18,0.31,1742250000.890387
-0.83,0.3,-0.46,-0.67,0.24,-0.73,-0.96,0.07,-0.26,0.43,0.06,0.18,1742250001.004297
-0.83,0.3,-0.46,0.06,0.24,-0.24,-0.96,0.08,-0.25,-0.12,-0.37,0.67,1742250001.1207502
-0.84,0.29,-0.46,0.12,0.24,-0.61,-0.96,0.08,-0.25,0.31,-0.12,0.49,1742250001.232481
-0.83,0.29,-0.46,-0.79,0.0,-0.85,-0.96,0.07,-0.25,0.12,-0.24,0.31,1742250001.346378
-0.83,0.3,-0.46,0.12,0.18,-0.37,-0.96,0.07,-0.25,0.06,0.0,0.18,1742250001.460899
-0.83,0.29,-0.46,0.18,0.06,-0.55,-0.96,0.07,-0.25,0.12,-0.12,0.49,1742250001.5744069
-0.83,0.3,-0.46,-0.49,-0.06,-0.73,-0.96,0.07,-0.25,-0.12,2.81,6.35,1742250001.688388
-0.84,0.3,-0.46,1.89,-0.67,-3.42,-0.96,0.06,-0.25,-0.67,0.55,1.28,1742250001.802437
-0.83,0.3,-0.46,0.43,0.12,-0.73,-0.96,0.06,-0.25,0.0,0.06,-0.12,1742250001.916406
-0.83,0.3,-0.46,-0.79,0.0,-0.31,-0.97,0.06,-0.25,-0.49,1.04,0.24,1742250002.0304031
-0.83,0.3,-0.46,-0.31,-0.12,-0.43,-0.97,0.06,-0.25,-0.06,0.18,-0.12,1742250002.1444979
-0.83,0.3,-0.46,0.0,0.06,0.12,-0.97,0.06,-0.25,0.43,0.43,-1.04,1742250002.260727
-0.83,0.3,-0.46,-0.67,0.55,0.18,-0.96,0.06,-0.24,0.98,0.24,-0.18,1742250002.3724039
-0.83,0.3,-0.45,0.37,0.0,-0.49,-0.97,0.06,-0.24,-1.89,2.5,1.89,1742250002.486439
-0.83,0.3,-0.46,-0.06,0.06,-1.59,-0.95,0.04,-0.24,-0.55,0.61,3.23,1742250002.60042
-0.82,0.31,-0.46,1.71,0.06,-1.95,-0.96,0.05,-0.24,0.24,1.16,-0.06,1742250002.714516
-0.82,0.3,-0.45,1.46,-0.49,-0.06,-0.97,0.06,-0.23,0.31,-0.49,0.0,1742250002.828415
-0.83,0.3,-0.46,0.18,-0.61,-0.92,-0.97,0.05,-0.24,1.16,0.67,0.92,1742250002.942174
-0.82,0.31,-0.46,2.5,-1.16,-1.1,-0.97,0.05,-0.24,1.71,-0.06,0.98,1742250003.0565288
-0.83,0.31,-0.46,1.89,-0.18,-0.31,-0.97,0.05,-0.24,-0.24,0.24,0.37,1742250003.170306
-0.83,0.31,-0.46,-0.18,0.49,-0.31,-0.96,0.04,-0.24,-0.12,0.31,0.55,1742250003.28431
-0.83,0.32,-0.46,-0.43,-0.06,-1.04,-0.96,0.04,-0.24,0.31,-0.06,0.24,1742250003.400629
-0.83,0.31,-0.46,0.49,0.0,-0.55,-0.97,0.04,-0.24,0.18,-0.31,0.18,1742250003.512314
-0.83,0.31,-0.46,-0.18,0.18,-0.73,-0.96,0.04,-0.24,-0.18,-0.43,0.43,1742250003.6264052
-0.83,0.31,-0.46,-0.67,0.12,-0.85,-0.97,0.04,-0.24,-0.12,0.0,0.55,1742250003.740931
-0.82,0.32,-0.46,0.43,0.12,-0.79,-0.97,0.03,-0.24,-0.24,-0.06,0.49,1742250003.8543732
-0.83,0.32,-0.46,0.12,0.12,-0.31,-0.97,0.03,-0.24,0.18,-0.12,0.31,1742250003.968299
-0.82,0.32,-0.46,-0.06,0.31,-0.49,-0.97,0.03,-0.24,0.31,0.0,0.12,1742250004.082172
-0.82,0.32,-0.46,0.37,0.18,-0.37,-0.97,0.03,-0.24,-0.12,0.0,0.37,1742250004.196255
-0.83,0.32,-0.46,0.49,0.12,-0.49,-0.96,0.03,-0.24,-0.43,0.06,-0.06,1742250004.3105202
-0.82,0.32,-0.46,-0.12,0.06,-0.31,-0.97,0.03,-0.24,0.31,0.31,-0.18,1742250004.424258
-0.82,0.32,-0.46,0.24,0.06,-0.37,-0.96,0.04,-0.24,-0.37,-0.31,-0.12,1742250004.539998
-0.83,0.32,-0.46,-0.31,0.06,-0.31,-0.97,0.03,-0.24,0.24,-0.37,-0.18,1742250004.6524
-0.83,0.32,-0.46,-0.06,0.18,-0.12,-0.96,0.03,-0.24,-0.12,-0.12,-0.12,1742250004.766519
-0.83,0.32,-0.46,0.37,0.12,0.06,-0.97,0.03,-0.24,-0.18,-0.31,-0.06,1742250004.880804
-0.83,0.32,-0.46,0.06,0.18,-0.37,-0.97,0.03,-0.24,0.0,-0.24,-0.37,1742250004.994402
-0.82,0.32,-0.46,-0.18,0.24,-0.37,-0.97,0.03,-0.24,-0.06,0.06,-0.06,1742250005.1084201
-0.83,0.32,-0.46,-0.18,0.31,0.0,-0.96,0.03,-0.24,-0.24,0.18,0.31,1742250005.2222168
-0.83,0.32,-0.46,0.61,0.24,-0.55,-0.97,0.03,-0.24,0.0,0.12,0.24,1742250005.340692
-0.83,0.32,-0.46,0.31,-0.06,-0.67,-0.97,0.03,-0.24,0.0,0.55,0.31,1742250005.4492748
-0.83,0.32,-0.46,0.61,0.0,-0.18,-0.96,0.03,-0.24,-0.73,0.49,-0.06,1742250005.563297
-0.83,0.32,-0.46,0.24,-0.12,-0.55,-0.97,0.03,-0.24,-0.18,0.55,-0.73,1742250005.677282
-0.83,0.32,-0.46,-0.55,0.0,-0.31,-0.97,0.03,-0.24,-0.18,0.61,-0.55,1742250005.7912471
-0.82,0.32,-0.46,-0.43,-0.18,-0.18,-0.97,0.03,-0.24,-0.18,0.49,-0.18,1742250005.9052632
-0.83,0.32,-0.46,0.06,0.0,-0.18,-0.97,0.03,-0.24,-0.12,0.24,0.18,1742250006.020847
-0.82,0.32,-0.46,0.24,-0.12,-0.37,-0.96,0.03,-0.23,0.06,0.12,0.06,1742250006.133076
-0.82,0.32,-0.46,0.24,-0.12,-0.49,-0.97,0.03,-0.24,0.12,0.06,0.24,1742250006.247048
-0.82,0.32,-0.46,0.06,0.06,-0.55,-0.97,0.03,-0.23,-0.06,0.18,0.43,1742250006.361414
-0.83,0.32,-0.46,0.12,-0.18,-0.49,-0.96,0.04,-0.23,-0.18,0.24,-0.37,1742250006.4812438
-0.82,0.31,-0.46,0.12,-0.12,-0.55,-0.97,0.03,-0.23,0.55,0.85,-0.18,1742250006.589244
-0.82,0.32,-0.46,0.24,-0.55,-0.06,-0.97,0.03,-0.24,0.06,-0.24,-0.43,1742250006.703752
-0.83,0.32,-0.46,-0.37,0.24,0.55,-0.97,0.03,-0.23,-0.06,-0.24,0.0,1742250006.818777
-0.83,0.32,-0.46,-0.06,0.06,-0.31,-0.96,0.03,-0.23,-0.43,-0.24,-0.24,1742250006.931434
-0.83,0.32,-0.46,-0.18,0.24,-0.43,-0.96,0.03,-0.23,0.18,-0.55,-0.12,1742250007.045341
-0.82,0.32,-0.46,0.0,0.24,-0.61,-0.97,0.03,-0.24,0.0,-0.06,-0.24,1742250007.161506
-0.83,0.31,-0.46,-0.31,0.06,0.0,-0.97,0.03,-0.24,0.06,-0.31,0.31,1742250007.273216
-0.83,0.31,-0.46,0.18,0.18,-0.61,-0.97,0.03,-0.23,0.12,-0.18,-0.06,1742250007.387352
-0.83,0.31,-0.46,0.06,0.24,-0.12,-0.97,0.03,-0.23,0.06,-0.06,-0.06,1742250007.5012748
-0.83,0.32,-0.46,0.12,0.06,0.06,-0.96,0.03,-0.23,0.06,-0.06,0.0,1742250007.6151721
-0.82,0.32,-0.46,0.24,0.0,-0.61,-0.97,0.03,-0.24,0.43,-0.06,-0.18,1742250007.729271
-0.82,0.32,-0.46,-0.12,0.12,-0.18,-0.97,0.03,-0.24,0.37,-0.37,0.18,1742250007.843105
-0.83,0.31,-0.46,-0.24,0.0,-0.49,-0.97,0.03,-0.24,1.04,-0.18,0.12,1742250007.957098
-0.83,0.32,-0.46,-0.31,-0.31,-0.49,-0.96,0.03,-0.24,-1.28,-0.18,0.12,1742250008.0711942
-0.82,0.31,-0.45,1.04,-0.18,-0.61,-0.97,0.03,-0.23,-0.12,-0.43,0.0,1742250008.18522
-0.82,0.31,-0.46,-0.55,0.12,-0.55,-0.97,0.03,-0.24,-0.24,-0.12,-0.18,1742250008.300847
-0.82,0.31,-0.46,-0.49,0.31,-0.49,-0.96,0.03,-0.24,0.12,-0.24,0.55,1742250008.413213
-0.83,0.32,-0.46,0.24,-0.06,-0.92,-0.97,0.03,-0.24,-1.46,0.31,1.83,1742250008.527235
-0.83,0.32,-0.46,0.79,0.43,-1.46,-0.96,0.02,-0.23,0.73,-1.65,-0.24,1742250008.6412191
-0.82,0.32,-0.46,-0.24,-0.12,-0.73,-0.97,0.03,-0.24,2.69,-1.34,0.31,1742250008.755136
-0.82,0.32,-0.47,0.49,-0.43,0.18,-0.95,0.02,-0.24,-1.71,-0.79,2.62,1742250008.8692439
-0.82,0.32,-0.46,4.33,-0.73,-1.95,-0.96,0.02,-0.24,-1.1,1.22,1.1,1742250008.983229
-0.82,0.32,-0.46,0.79,-1.4,-1.77,-0.97,0.02,-0.24,0.24,0.67,1.28,1742250009.100061
-0.83,0.33,-0.47,0.98,-1.22,-0.49,-0.97,0.02,-0.24,1.46,0.55,1.46,1742250009.211037
-0.82,0.33,-0.46,2.2,-0.92,-0.85,-0.96,0.01,-0.23,1.77,-2.38,2.32,1742250009.325113
-0.82,0.33,-0.46,0.85,-0.79,-2.81,-0.96,-0.01,-0.24,3.54,-17.27,-1.28,1742250009.440543
-0.82,0.34,-0.47,-5.74,-2.99,-4.09,-0.97,0.02,-0.28,-4.58,-14.53,-0.98,1742250009.553298
-0.8,0.33,-0.5,-9.52,-5.31,-2.81,-1.0,0.0,-0.33,-13.31,-5.19,8.48,1742250009.667299
-0.79,0.33,-0.47,-5.86,-2.44,-2.2,-1.04,-0.06,-0.34,-41.32,-21.85,32.96,1742250009.781205
-0.8,0.33,-0.51,-17.82,-9.58,-6.77,-1.01,-0.18,-0.4,-102.36,-33.69,67.2,1742250009.8952022
-0.79,0.31,-0.56,-33.81,-13.55,-5.68,-0.94,-0.66,-0.35,-285.28,28.26,133.97,1742250010.0092149
-0.72,0.22,-0.54,-9.89,-5.98,-4.09,-0.51,-0.71,0.04,-63.05,100.95,114.75,1742250010.123001
-0.73,0.25,-0.57,7.87,-3.97,3.6,-0.45,-0.76,0.29,-90.45,46.08,146.42,1742250010.237018
-0.76,0.3,-0.6,20.14,-7.63,-9.34,-0.31,-0.85,0.45,-83.68,48.52,50.54,1742250010.351156
-0.74,0.42,-0.64,57.01,-13.24,-31.98,-0.05,-0.47,0.67,-113.1,76.29,-25.7,1742250010.4651
-0.66,0.55,-0.52,136.05,-15.87,-69.09,-0.15,-0.5,0.78,-76.84,15.08,-42.36,1742250010.580993
-0.58,0.73,-0.38,112.06,19.53,-61.89,-0.15,-0.49,0.86,33.02,24.6,12.45,1742250010.692874
-0.48,0.86,-0.24,111.57,-15.08,-43.33,-0.03,-0.52,0.82,-17.21,47.61,-10.93,1742250010.807116
-0.42,0.87,-0.1,58.84,-21.0,-11.66,0.01,-0.44,0.81,-63.9,45.96,-40.89,1742250010.9209862
-0.41,0.86,-0.04,-1.22,-6.35,4.82,-0.03,-0.37,0.85,-25.51,4.39,-15.5,1742250011.035126
-0.45,0.9,-0.08,-19.29,-2.93,5.0,-0.15,-0.41,1.09,8.91,22.89,3.91,1742250011.148855
-0.45,0.92,-0.13,-14.95,3.11,-0.06,-0.03,-0.38,0.94,33.75,-16.36,0.06,1742250011.262984
-0.43,0.89,-0.12,-2.99,0.18,-1.4,0.03,-0.41,1.0,47.49,31.01,1.77,1742250011.376804
-0.44,0.89,-0.13,-1.22,-1.95,-2.38,0.41,-0.44,0.56,-44.62,67.63,-8.0,1742250011.489973
-0.42,0.9,-0.12,-6.04,0.37,3.48,0.01,-0.37,0.89,-73.24,-89.72,-29.17,1742250011.6040618
-0.44,0.88,-0.14,-0.55,-1.16,-1.1,-0.01,-0.29,0.97,-9.22,-8.79,-14.34,1742250011.719863
-0.45,0.89,-0.13,-12.94,8.67,-2.26,-0.16,-0.33,1.0,-8.48,-25.7,-9.28,1742250011.832206
