L-AccX,L-AccY,L-AccZ,L-GyrX,L-GyrY,L-GyrZ,R-AccX,R-AccY,R-AccZ,R-GyrX,R-GyrY,R-GyrZ,timestamp
0.82,0.33,-0.47,-12.7,13.49,-1.1,-0.23,-0.5,1.06,-36.38,-36.01,-15.75,1742249807.7885382
0.85,0.29,-0.56,-23.01,12.15,2.32,-0.29,-0.51,1.04,44.86,61.28,147.58,1742249807.8957078
0.83,0.38,-0.67,-38.51,-6.77,-23.8,0.16,-0.2,0.81,69.89,68.6,184.75,1742249808.009564
0.8,0.23,-0.54,-51.7,-7.51,-46.14,0.34,-0.16,0.85,71.23,30.94,119.32,1742249808.1279209
0.82,0.12,-0.49,-33.81,-5.25,-20.63,0.44,-0.27,0.8,11.72,16.48,65.19,1742249808.235573
0.84,0.12,-0.44,-32.17,-5.74,-17.33,0.52,-0.28,0.73,-7.45,10.19,31.68,1742249808.348675
0.84,0.02,-0.45,-25.63,0.43,-15.5,0.5,-0.28,0.77,-3.78,-0.31,19.04,1742249808.466753
0.83,-0.01,-0.46,-12.15,2.2,-14.89,0.55,-0.22,0.74,-8.36,-3.54,14.1,1742249808.576858
0.84,-0.08,-0.51,-21.67,-3.72,-11.11,0.53,-0.24,0.84,-3.97,4.52,7.26,1742249808.690699
0.88,-0.11,-0.47,-12.39,-13.85,-1.28,0.57,-0.26,0.79,3.78,5.74,5.98,1742249808.807967
0.85,-0.12,-0.48,-8.36,-6.29,-8.67,0.6,-0.22,0.76,12.27,2.32,6.41,1742249808.917523
0.89,-0.13,-0.44,-6.29,-2.14,-10.38,0.6,-0.22,0.73,0.12,9.16,11.23,1742249809.030488
0.87,-0.16,-0.44,-3.91,-0.49,-11.11,0.61,-0.22,0.72,-1.1,1.95,6.84,1742249809.148184
0.85,-0.14,-0.43,-2.87,3.23,-6.96,0.56,-0.3,0.73,-3.17,-5.19,15.14,1742249809.257731
0.85,-0.2,-0.48,2.5,-1.1,-13.0,0.61,-0.2,0.78,-3.54,-1.04,8.85,1742249809.372169
0.86,-0.2,-0.49,0.0,-1.16,-11.29,0.6,-0.16,0.8,-11.72,19.78,13.73,1742249809.48608
0.87,-0.27,-0.46,-13.31,-16.42,-14.34,0.67,-0.08,0.74,-10.86,15.69,5.37,1742249809.606484
0.88,-0.28,-0.39,-11.29,-10.01,-12.08,0.71,-0.03,0.72,2.75,3.85,-3.54,1742249809.71354
0.89,-0.3,-0.35,5.74,-2.26,5.19,0.61,-0.21,0.75,-5.98,-2.62,-5.74,1742249809.827759
0.89,-0.25,-0.41,-3.17,-2.5,4.09,0.67,-0.14,0.73,-6.9,4.46,-7.63,1742249809.945935
0.88,-0.27,-0.37,-7.87,-1.77,6.04,0.66,-0.12,0.73,10.19,-0.79,-12.21,1742249810.055692
0.88,-0.29,-0.36,2.99,-0.98,11.41,0.65,-0.14,0.75,2.69,-8.54,-13.92,1742249810.169651
0.9,-0.24,-0.38,4.52,6.65,11.78,0.61,-0.21,0.74,8.67,-8.67,-16.54,1742249810.2867892
0.9,-0.2,-0.39,4.39,5.68,16.24,0.57,-0.31,0.75,5.68,-3.91,-6.53,1742249810.3976939
0.92,-0.13,-0.43,1.59,0.79,3.78,0.59,-0.24,0.76,-2.2,0.31,2.81,1742249810.5115168
0.89,-0.19,-0.41,-2.08,-2.32,-4.46,0.61,-0.22,0.77,7.45,2.56,-1.89,1742249810.626821
0.88,-0.21,-0.4,3.11,-1.89,5.19,0.61,-0.27,0.75,3.91,-3.17,-4.03,1742249810.7464309
0.9,-0.18,-0.4,2.38,2.56,3.78,0.61,-0.26,0.75,2.14,-2.81,-3.48,1742249810.8537002
0.89,-0.17,-0.4,4.88,0.92,2.38,0.58,-0.28,0.77,5.43,-0.12,-4.7,1742249810.967684
0.89,-0.15,-0.42,3.48,-2.44,6.47,0.59,-0.29,0.76,0.55,1.77,-4.64,1742249811.0852668
0.91,-0.14,-0.4,0.0,-5.07,5.13,0.58,-0.31,0.75,-0.37,1.22,-4.03,1742249811.195692
0.92,-0.12,-0.39,-2.08,-1.4,2.75,0.6,-0.3,0.74,0.43,2.2,-0.79,1742249811.309592
0.91,-0.13,-0.38,-1.22,-1.71,0.85,0.59,-0.3,0.74,0.92,0.31,-1.04,1742249811.4253252
0.91,-0.14,-0.39,-0.55,0.06,1.34,0.6,-0.31,0.74,0.43,0.92,-2.75,1742249811.537698
0.92,-0.12,-0.38,-0.92,-1.1,2.93,0.6,-0.3,0.75,1.46,0.79,-1.46,1742249811.651587
0.92,-0.12,-0.38,2.38,-2.26,2.44,0.59,-0.31,0.74,0.24,-0.43,-1.28,1742249811.765884
0.91,-0.12,-0.38,0.0,1.04,1.04,0.6,-0.31,0.74,-0.43,-0.06,-1.34,1742249811.8848891
0.92,-0.12,-0.38,-0.73,0.24,0.73,0.59,-0.31,0.74,-0.98,0.37,-0.98,1742249811.993611
0.91,-0.12,-0.38,-1.28,1.22,0.0,0.59,-0.3,0.75,-0.85,-0.85,-1.16,1742249812.107651
0.91,-0.12,-0.38,-0.37,0.98,0.85,0.58,-0.31,0.75,0.43,0.0,-1.1,1742249812.223875
0.9,-0.12,-0.39,-0.55,1.65,1.34,0.58,-0.3,0.75,-0.67,-0.61,-1.1,1742249812.335712
0.91,-0.12,-0.4,-0.37,2.01,1.04,0.58,-0.31,0.75,0.0,-0.79,-1.22,1742249812.449591
0.91,-0.12,-0.4,0.0,1.46,0.98,0.58,-0.32,0.75,0.79,-0.61,-1.28,1742249812.5646348
0.91,-0.11,-0.39,-0.31,1.04,0.61,0.57,-0.32,0.75,-0.31,-0.55,-0.92,1742249812.6776462
0.91,-0.11,-0.41,-0.73,1.04,0.24,0.58,-0.31,0.75,-1.4,0.24,0.55,1742249812.791418
0.91,-0.12,-0.4,-1.16,-0.73,-0.67,0.58,-0.31,0.75,-0.55,0.06,-0.92,1742249812.905532
0.9,-0.12,-0.39,-0.73,0.55,0.43,0.58,-0.32,0.75,-0.06,-0.92,-1.04,1742249813.025355
0.91,-0.11,-0.4,0.18,0.98,0.49,0.58,-0.32,0.75,-0.55,-1.04,0.55,1742249813.133566
0.91,-0.11,-0.4,0.37,0.98,-1.22,0.58,-0.31,0.75,-0.85,0.37,0.31,1742249813.247474
0.9,-0.12,-0.4,-0.55,-0.43,-0.24,0.57,-0.31,0.75,-0.92,-0.67,0.06,1742249813.364913
0.91,-0.11,-0.4,0.24,0.49,-0.92,0.58,-0.31,0.75,-0.85,0.06,0.79,1742249813.484658
0.9,-0.12,-0.4,-0.49,0.06,-0.92,0.58,-0.31,0.75,-0.79,-0.37,0.73,1742249813.589565
0.9,-0.12,-0.4,0.12,0.31,-1.16,0.57,-0.31,0.75,-1.22,-0.98,0.43,1742249813.708822
0.9,-0.12,-0.4,-0.18,1.22,-1.28,0.57,-0.3,0.76,-0.49,-0.98,1.59,1742249813.817575
0.9,-0.13,-0.41,0.43,1.1,-1.77,0.58,-0.29,0.76,-0.67,-1.1,0.18,1742249813.931523
0.9,-0.13,-0.41,-0.37,2.2,-0.24,0.57,-0.3,0.76,-0.43,-1.83,-0.24,1742249814.045664
0.9,-0.12,-0.41,0.61,1.71,-0.24,0.56,-0.31,0.77,-0.06,-0.37,1.4,1742249814.159584
0.91,-0.12,-0.42,1.04,-2.44,-1.59,0.58,-0.3,0.78,0.24,4.46,1.65,1742249814.273429
0.92,-0.13,-0.42,-0.49,-3.6,-1.22,0.58,-0.3,0.75,-1.89,6.16,5.13,1742249814.387479
0.9,-0.14,-0.4,-2.56,-4.82,-5.74,0.58,-0.29,0.74,-0.61,5.43,1.83,1742249814.50366
0.89,-0.14,-0.39,-2.5,-3.3,-2.01,0.6,-0.28,0.73,1.04,2.5,0.61,1742249814.615266
0.91,-0.15,-0.37,0.06,-4.21,0.73,0.61,-0.29,0.75,0.67,0.24,0.85,1742249814.7284548
0.91,-0.14,-0.38,1.65,-1.71,-0.61,0.6,-0.28,0.74,0.49,0.67,1.16,1742249814.843423
0.9,-0.15,-0.38,0.49,-1.16,-0.73,0.61,-0.28,0.74,0.49,-0.49,-0.92,1742249814.956502
0.91,-0.15,-0.38,0.37,-0.31,0.92,0.61,-0.29,0.73,-0.61,-0.24,-0.43,1742249815.0705678
0.91,-0.15,-0.37,-0.31,0.12,0.31,0.6,-0.29,0.74,-0.06,-0.92,-0.73,1742249815.1862888
0.91,-0.14,-0.37,0.24,0.12,0.43,0.6,-0.29,0.74,0.43,-1.59,-0.12,1742249815.298514
0.91,-0.14,-0.38,1.28,0.31,-0.24,0.61,-0.29,0.74,0.73,-1.95,-0.79,1742249815.41252
0.91,-0.15,-0.38,0.92,2.26,0.37,0.59,-0.3,0.75,-0.55,-0.55,-0.98,1742249815.5265548
0.91,-0.13,-0.39,0.06,0.37,0.37,0.6,-0.29,0.74,-0.55,-1.1,-0.67,1742249815.640762
0.91,-0.14,-0.39,0.79,0.49,0.18,0.59,-0.3,0.75,0.37,-0.67,-0.18,1742249815.7545102
0.91,-0.14,-0.39,0.24,0.79,-0.12,0.59,-0.29,0.75,0.06,-0.18,0.06,1742249815.868236
0.9,-0.15,-0.39,-0.37,0.43,-0.12,0.59,-0.3,0.75,-0.18,-0.55,-0.49,1742249815.982229
0.91,-0.14,-0.39,0.06,0.49,-0.43,0.59,-0.3,0.75,0.37,-0.55,0.12,1742249816.095364
0.9,-0.14,-0.39,-0.18,1.71,-0.43,0.59,-0.29,0.75,-0.49,-1.89,0.18,1742249816.209364
0.91,-0.14,-0.39,1.04,0.92,-0.49,0.59,-0.3,0.75,0.79,-0.06,-0.18,1742249816.323447
0.91,-0.14,-0.39,0.55,-0.31,0.12,0.59,-0.3,0.75,-0.79,-0.06,-0.06,1742249816.43745
0.91,-0.14,-0.39,-0.43,0.85,-0.12,0.59,-0.3,0.75,-0.43,-0.24,0.06,1742249816.5513449
0.91,-0.14,-0.39,0.24,0.18,-0.55,0.59,-0.29,0.75,0.06,0.0,0.49,1742249816.6651351
0.91,-0.14,-0.39,1.04,-0.67,-0.73,0.59,-0.29,0.76,0.0,0.67,0.31,1742249816.7817621
0.92,-0.14,-0.4,0.12,-0.73,-0.73,0.6,-0.3,0.75,-0.79,3.36,1.53,1742249816.891254
0.91,-0.13,-0.39,-1.28,-1.59,-2.56,0.6,-0.29,0.74,-1.34,3.11,2.69,1742249817.005283
0.9,-0.15,-0.38,-1.53,-2.26,-2.87,0.61,-0.28,0.74,-1.22,1.65,1.71,1742249817.1231391
0.91,-0.16,-0.37,-0.55,-1.65,-1.89,0.61,-0.28,0.74,-1.16,1.34,1.16,1742249817.2332501
0.91,-0.15,-0.37,-0.49,-0.98,-1.65,0.61,-0.27,0.74,-1.34,0.67,1.34,1742249817.347255
0.9,-0.17,-0.37,-0.55,-0.55,-1.53,0.61,-0.27,0.74,-0.61,-0.12,0.67,1742249817.462466
0.91,-0.16,-0.38,0.49,-0.37,-1.22,0.61,-0.26,0.74,0.06,0.43,0.24,1742249817.5751512
0.91,-0.17,-0.37,-0.31,0.06,0.06,0.61,-0.28,0.74,-0.85,-0.49,0.85,1742249817.688342
0.91,-0.17,-0.38,-0.18,0.31,-1.16,0.61,-0.26,0.74,0.43,-0.61,0.0,1742249817.802891
0.9,-0.17,-0.37,0.49,0.49,0.55,0.61,-0.27,0.75,0.79,-0.24,-0.43,1742249817.916373
0.91,-0.16,-0.38,0.37,-0.12,0.06,0.61,-0.27,0.75,0.73,-0.55,-0.31,1742249818.0303302
0.91,-0.17,-0.37,0.43,0.79,0.55,0.61,-0.28,0.74,1.04,-0.79,-0.79,1742249818.144395
0.91,-0.16,-0.37,0.18,0.85,0.73,0.61,-0.27,0.74,0.18,-0.12,-0.55,1742249818.2601202
0.91,-0.16,-0.37,0.0,0.18,0.67,0.61,-0.28,0.74,0.24,-1.28,-0.73,1742249818.3723829
0.91,-0.15,-0.38,0.98,0.85,0.06,0.61,-0.27,0.75,0.55,-0.31,-0.18,1742249818.486358
0.91,-0.16,-0.38,1.22,-0.06,0.24,0.61,-0.28,0.75,-0.18,-0.67,-0.31,1742249818.602139
0.91,-0.15,-0.38,0.12,0.18,-0.37,0.61,-0.28,0.74,-0.12,-0.61,-0.12,1742249818.7144792
0.91,-0.16,-0.38,0.67,0.24,-0.12,0.6,-0.28,0.75,-0.43,-0.06,-0.31,1742249818.828439
0.91,-0.15,-0.38,0.31,0.24,0.12,0.6,-0.28,0.75,-0.37,-0.49,0.0,1742249818.942233
0.91,-0.16,-0.38,-0.12,0.43,-0.37,0.61,-0.28,0.75,0.37,-0.49,-0.85,1742249819.0563781
0.91,-0.15,-0.38,0.92,0.24,0.73,0.6,-0.28,0.75,-0.31,0.24,-0.06,1742249819.170269
0.91,-0.15,-0.39,-0.06,0.31,-0.31,0.6,-0.28,0.75,-0.37,-0.06,-0.24,1742249819.284437
0.91,-0.16,-0.39,-0.12,0.06,0.49,0.6,-0.28,0.75,-0.49,0.18,-0.24,1742249819.398278
0.91,-0.15,-0.38,-0.43,0.31,-0.12,0.6,-0.28,0.75,0.12,-0.18,-0.37,1742249819.512395
0.91,-0.15,-0.38,0.18,-0.06,0.0,0.6,-0.28,0.75,-0.24,-0.79,-0.24,1742249819.626369
0.91,-0.15,-0.38,0.79,0.18,-0.12,0.6,-0.28,0.74,0.92,0.0,-1.16,1742249819.742195
0.91,-0.15,-0.38,0.43,0.0,1.34,0.59,-0.28,0.75,0.12,-0.24,-0.55,1742249819.8542678
0.91,-0.15,-0.39,0.37,-0.24,0.18,0.59,-0.28,0.76,0.55,-0.12,-0.12,1742249819.968249
0.9,-0.15,-0.38,0.73,0.0,0.24,0.59,-0.29,0.76,0.12,-0.49,-0.18,1742249820.0822551
0.91,-0.15,-0.39,-0.12,0.24,-0.24,0.59,-0.29,0.75,0.06,-0.37,0.12,1742249820.196173
0.91,-0.15,-0.39,-0.18,0.06,-0.67,0.6,-0.29,0.75,-0.24,0.0,0.12,1742249820.310187
0.91,-0.15,-0.39,0.12,0.0,-0.79,0.6,-0.29,0.75,-0.06,0.55,0.18,1742249820.424192
0.91,-0.15,-0.38,-0.49,-0.55,-0.73,0.6,-0.29,0.75,-0.31,-0.37,0.79,1742249820.538822
0.91,-0.15,-0.39,0.12,0.49,-1.04,0.6,-0.28,0.75,-0.18,0.31,0.49,1742249820.652195
0.91,-0.15,-0.38,0.43,-0.61,-0.98,0.6,-0.28,0.75,-1.1,0.0,0.06,1742249820.7660549
0.91,-0.15,-0.39,0.0,-0.18,-0.92,0.6,-0.28,0.75,-0.24,0.24,0.43,1742249820.8821278
0.9,-0.16,-0.39,0.06,0.12,-0.49,0.6,-0.28,0.75,-0.73,-0.18,0.55,1742249820.993154
0.91,-0.16,-0.39,0.37,-0.06,-0.55,0.6,-0.28,0.75,0.06,-0.79,0.24,1742249821.107061
0.91,-0.16,-0.39,-0.06,0.24,-0.55,0.6,-0.28,0.75,-0.12,-0.85,0.49,1742249821.2211049
0.9,-0.15,-0.38,0.67,0.0,-0.73,0.59,-0.28,0.75,0.18,-0.31,-0.18,1742249821.334192
0.9,-0.15,-0.39,0.49,0.06,-0.31,0.6,-0.28,0.76,-0.43,-0.55,-0.18,1742249821.4482849
0.91,-0.16,-0.39,0.18,0.98,-0.18,0.6,-0.27,0.75,-0.12,-0.37,0.24,1742249821.562133
0.91,-0.16,-0.39,0.67,0.31,-0.43,0.6,-0.28,0.75,0.43,0.18,0.18,1742249821.6759622
0.91,-0.16,-0.39,0.31,-0.73,-0.18,0.59,-0.28,0.75,0.43,0.0,0.12,1742249821.7889779
0.91,-0.16,-0.38,0.18,-1.1,-0.43,0.6,-0.28,0.75,0.37,-0.12,-0.31,1742249821.902184
0.91,-0.15,-0.39,0.49,-0.98,0.0,0.6,-0.28,0.75,0.49,1.16,-0.12,1742249822.016043
0.91,-0.15,-0.38,0.37,-1.46,0.0,0.6,-0.28,0.75,-0.12,0.55,0.24,1742249822.1290612
0.91,-0.16,-0.38,0.0,-0.98,-0.61,0.6,-0.27,0.75,-0.06,0.55,-0.12,1742249822.242147
0.91,-0.16,-0.37,0.12,-0.61,0.55,0.6,-0.29,0.75,0.31,0.12,-0.31,1742249822.356065
0.91,-0.15,-0.38,0.12,-0.12,-0.43,0.6,-0.28,0.75,0.06,-0.18,-0.24,1742249822.4691489
0.91,-0.16,-0.38,0.24,-0.24,0.24,0.6,-0.28,0.75,0.67,-0.43,-0.79,1742249822.583136
0.91,-0.15,-0.37,0.61,0.24,0.55,0.6,-0.29,0.75,0.0,-0.06,-0.12,1742249822.697141
0.91,-0.15,-0.38,-0.61,0.55,-0.49,0.6,-0.28,0.74,0.12,-0.61,-0.24,1742249822.811098
0.91,-0.16,-0.38,-0.12,0.98,0.31,0.6,-0.29,0.75,0.49,-0.12,-0.06,1742249822.925152
0.91,-0.15,-0.38,-0.12,-0.18,0.06,0.6,-0.28,0.75,-0.55,-0.24,-0.24,1742249823.0417678
0.91,-0.15,-0.38,-0.55,0.24,0.06,0.59,-0.28,0.75,-0.12,-0.79,0.43,1742249823.153173
0.9,-0.15,-0.39,-4.46,1.22,0.61,0.59,-0.29,0.74,3.97,1.59,-0.43,1742249823.267041
0.91,-0.16,-0.38,-4.82,1.28,-2.32,0.59,-0.3,0.74,1.34,0.79,0.73,1742249823.380289
0.91,-0.15,-0.39,0.0,-1.04,-0.98,0.61,-0.28,0.74,-3.3,1.04,-1.46,1742249823.493093
0.92,-0.14,-0.38,2.08,-1.83,1.95,0.61,-0.28,0.74,-2.87,1.1,-0.37,1742249823.6071649
0.91,-0.16,-0.38,1.83,-1.28,-0.43,0.6,-0.29,0.74,-0.92,1.22,-0.06,1742249823.721028
0.91,-0.16,-0.38,0.43,-0.24,-0.43,0.6,-0.28,0.75,2.81,-0.85,2.62,1742249823.834934
0.91,-0.16,-0.38,0.0,0.92,-1.89,0.6,-0.29,0.74,0.98,0.0,1.59,1742249823.9478002
0.91,-0.15,-0.38,0.61,-0.24,0.55,0.6,-0.29,0.74,-1.4,0.12,0.12,1742249824.061476
0.91,-0.15,-0.37,-1.34,0.31,-0.92,0.61,-0.29,0.74,-3.23,1.28,-0.43,1742249824.175045
0.91,-0.16,-0.38,-0.49,-0.06,0.67,0.61,-0.28,0.75,-0.61,0.67,0.43,1742249824.289057
0.9,-0.17,-0.38,-2.62,1.4,-2.08,0.61,-0.27,0.74,1.77,0.12,0.61,1742249824.402816
0.91,-0.16,-0.37,-0.67,0.37,0.24,0.61,-0.27,0.75,2.56,-0.31,-0.85,1742249824.516035
0.91,-0.16,-0.38,3.17,-0.79,0.73,0.61,-0.28,0.75,-1.95,-0.24,-0.73,1742249824.630164
0.92,-0.16,-0.37,-1.22,1.65,-0.24,0.6,-0.28,0.73,0.0,-1.16,-0.24,1742249824.744056
0.91,-0.15,-0.38,-1.1,-0.67,-0.06,0.61,-0.28,0.74,1.1,-0.37,-0.31,1742249824.8580632
0.91,-0.16,-0.38,0.67,-1.83,0.18,0.61,-0.28,0.74,0.43,0.06,-0.06,1742249824.971879
0.91,-0.16,-0.38,1.1,-2.14,-0.31,0.61,-0.3,0.74,-0.18,0.61,-0.24,1742249825.0860622
0.9,-0.18,-0.37,-0.73,1.53,-2.01,0.59,-0.29,0.75,-2.56,-0.98,2.08,1742249825.200053
0.9,-0.18,-0.38,-8.48,1.71,-2.75,0.62,-0.26,0.74,7.69,-0.06,1.83,1742249825.313866
0.91,-0.19,-0.37,6.35,-1.95,0.06,0.6,-0.3,0.74,1.22,0.31,1.1,1742249825.4267788
0.91,-0.16,-0.37,-0.61,-0.61,-0.67,0.61,-0.28,0.74,0.0,0.12,1.46,1742249825.5415192
0.91,-0.17,-0.36,0.43,0.43,-1.04,0.61,-0.27,0.75,-1.53,-0.18,-0.06,1742249825.6531572
0.91,-0.18,-0.37,-0.12,-0.06,-0.24,0.6,-0.28,0.73,1.1,-0.24,-0.85,1742249825.767049
0.91,-0.16,-0.37,1.53,-0.12,-0.92,0.61,-0.28,0.74,2.01,1.04,-0.92,1742249825.8817658
0.9,-0.17,-0.37,0.85,0.06,0.98,0.61,-0.28,0.74,-0.85,0.79,-1.4,1742249825.9950452
0.92,-0.16,-0.37,-1.89,0.73,0.37,0.6,-0.3,0.75,-4.76,1.59,0.43,1742249826.108928
0.93,-0.17,-0.39,-6.59,-1.04,-5.74,0.64,-0.25,0.79,-12.21,7.26,9.52,1742249826.222937
0.93,-0.25,-0.36,-15.81,-4.94,-19.29,0.68,-0.18,0.74,-9.16,12.57,7.57,1742249826.336929
0.92,-0.32,-0.33,-14.04,-7.26,-7.63,0.66,-0.21,0.69,0.12,9.46,-3.97,1742249826.450922
0.9,-0.18,-0.3,2.81,-9.7,-2.14,0.67,-0.23,0.7,-4.64,-0.61,14.28,1742249826.565071
0.92,-0.28,-0.32,0.98,4.27,-19.1,0.71,-0.18,0.75,-0.79,-3.54,15.38,1742249826.678933
0.95,-0.32,-0.35,6.1,3.42,-17.58,0.71,-0.12,0.75,-3.11,2.32,17.76,1742249826.7929401
0.86,-0.39,-0.34,5.43,-1.83,-15.81,0.67,-0.1,0.69,-8.42,1.53,5.8,1742249826.906781
0.81,-0.35,-0.31,-3.48,3.72,-9.03,0.65,-0.07,0.69,-15.44,1.53,-5.55,1742249827.021964
0.83,-0.35,-0.34,-8.12,9.89,1.83,0.66,-0.11,0.69,-1.16,-3.17,-9.95,1742249827.13413
0.88,-0.33,-0.35,-5.13,8.18,2.56,0.68,-0.11,0.74,-8.79,-1.22,-4.27,1742249827.24802
0.86,-0.35,-0.37,-5.31,8.61,-0.18,0.66,-0.1,0.74,-4.21,-5.07,-4.39,1742249827.3620842
0.85,-0.33,-0.4,-4.46,5.68,0.92,0.64,-0.1,0.73,-3.48,2.2,-0.55,1742249827.475907
0.8,-0.35,-0.33,-3.48,-1.89,0.12,0.63,-0.06,0.67,5.86,-14.89,-8.85,1742249827.589919
0.8,-0.35,-0.37,2.62,12.39,12.57,0.61,-0.16,0.83,2.81,-8.85,-19.23,1742249827.7065952
0.9,-0.28,-0.47,-0.43,5.0,17.94,0.66,-0.2,0.77,0.43,1.46,-7.87,1742249827.817769
0.92,-0.28,-0.4,-0.92,1.95,4.15,0.64,-0.2,0.76,2.99,-0.49,-3.66,1742249827.930902
0.86,-0.26,-0.4,0.37,-1.16,-0.73,0.58,-0.18,0.72,1.53,-3.48,1.34,1742249828.044783
0.83,-0.29,-0.42,0.43,2.93,0.49,0.62,-0.15,0.77,2.2,-1.1,-4.33,1742249828.158944
0.89,-0.32,-0.41,-1.04,4.39,7.69,0.65,-0.21,0.8,0.67,-0.49,-7.87,1742249828.272939
0.9,-0.27,-0.43,-2.87,0.18,5.0,0.61,-0.18,0.76,-1.4,4.64,-2.93,1742249828.38692
0.86,-0.27,-0.41,-3.48,-5.86,3.23,0.62,-0.2,0.76,-2.44,5.98,-2.99,1742249828.5022998
0.89,-0.26,-0.4,-5.31,-5.13,-0.37,0.64,-0.2,0.74,0.61,3.36,-0.73,1742249828.614789
0.87,-0.26,-0.37,-2.32,0.37,1.22,0.65,-0.2,0.75,-2.81,-2.62,2.14,1742249828.72897
0.89,-0.27,-0.41,0.06,2.5,-4.88,0.62,-0.18,0.76,-1.77,-1.34,2.75,1742249828.842827
0.86,-0.28,-0.4,-1.4,-0.98,-3.05,0.62,-0.19,0.75,-0.98,0.73,2.81,1742249828.956724
0.88,-0.28,-0.4,-1.16,-1.22,-3.72,0.63,-0.17,0.77,-2.32,2.5,3.78,1742249829.0697339
0.88,-0.29,-0.4,-2.44,-3.17,-5.19,0.64,-0.18,0.74,-0.79,3.85,6.59,1742249829.1851652
0.87,-0.29,-0.37,-1.4,-4.52,-7.57,0.65,-0.16,0.74,1.22,3.6,7.63,1742249829.296622
0.87,-0.31,-0.38,1.28,-6.1,-5.55,0.67,-0.16,0.74,-1.46,6.65,6.9,1742249829.409704
0.88,-0.31,-0.37,-2.38,-2.56,-8.61,0.67,-0.13,0.73,-7.39,3.85,7.32,1742249829.5236638
0.87,-0.34,-0.35,-3.17,-3.66,-8.54,0.68,-0.11,0.72,-5.98,3.11,7.69,1742249829.6377118
0.86,-0.35,-0.34,0.43,-4.39,-9.4,0.68,-0.09,0.72,-2.38,2.5,9.64,1742249829.75164
0.85,-0.37,-0.33,4.64,-3.72,-9.58,0.68,-0.07,0.71,2.62,-2.14,9.22,1742249829.8646479
0.84,-0.37,-0.32,7.69,-0.67,-7.87,0.66,-0.07,0.72,3.48,-7.75,8.73,1742249829.981287
0.83,-0.4,-0.37,9.7,2.2,-6.16,0.66,-0.05,0.77,2.08,-0.98,5.07,1742249830.092698
0.85,-0.42,-0.36,2.01,-3.91,-3.36,0.68,-0.04,0.72,-0.24,2.38,2.38,1742249830.206701
0.83,-0.4,-0.33,2.08,-1.04,-1.77,0.68,-0.05,0.72,1.22,-3.42,4.03,1742249830.3220842
0.84,-0.4,-0.33,5.49,2.69,-4.88,0.67,-0.04,0.72,3.54,-7.81,4.64,1742249830.433697
0.81,-0.41,-0.35,8.06,8.06,-3.66,0.66,-0.02,0.75,5.31,-12.02,4.46,1742249830.5477052
0.83,-0.41,-0.37,10.5,9.09,-2.08,0.64,-0.04,0.77,7.26,-13.31,3.23,1742249830.664597
0.83,-0.41,-0.43,12.33,8.06,-1.1,0.61,-0.04,0.82,8.48,-6.35,3.48,1742249830.775723
0.85,-0.41,-0.47,9.64,-4.76,1.53,0.62,-0.07,0.81,7.63,11.41,0.49,1742249830.889652
0.85,-0.38,-0.42,-2.08,-15.62,3.42,0.66,-0.06,0.75,5.68,14.1,1.53,1742249831.002605
0.84,-0.37,-0.37,4.33,-17.15,2.75,0.66,-0.09,0.72,7.02,11.17,3.91,1742249831.1156092
0.84,-0.34,-0.35,2.75,-11.78,-2.69,0.65,-0.1,0.73,-2.81,6.53,8.42,1742249831.228713
0.83,-0.38,-0.36,-1.65,-7.87,-9.64,0.69,-0.02,0.72,-1.59,0.31,7.14,1742249831.342638
0.85,-0.45,-0.33,-0.79,0.43,-2.5,0.7,-0.01,0.72,0.24,-2.99,-2.99,1742249831.4567401
0.83,-0.41,-0.34,-0.24,5.13,8.18,0.66,-0.08,0.72,2.2,-2.01,-9.52,1742249831.570844
0.84,-0.35,-0.36,-2.99,6.84,7.87,0.65,-0.11,0.73,-0.92,-2.2,-8.73,1742249831.68529
0.85,-0.33,-0.36,-3.54,4.82,5.0,0.66,-0.09,0.73,-3.17,-3.05,-6.35,1742249831.8022048
0.84,-0.36,-0.37,-1.59,10.31,5.0,0.67,-0.09,0.76,-2.32,-10.19,-7.2,1742249831.912821
0.88,-0.34,-0.39,4.09,10.44,4.09,0.66,-0.13,0.8,1.65,-4.03,-2.32,1742249832.026709
0.88,-0.35,-0.42,0.24,1.4,-1.1,0.65,-0.11,0.77,-2.93,5.43,1.53,1742249832.1429
0.86,-0.34,-0.39,-2.32,-6.41,-1.1,0.65,-0.11,0.75,0.43,6.29,2.01,1742249832.254539
0.85,-0.35,-0.39,-2.26,-8.97,-0.49,0.67,-0.1,0.73,3.23,7.02,0.73,1742249832.367551
0.86,-0.34,-0.36,-0.73,-7.69,1.4,0.68,-0.11,0.72,1.4,3.97,2.56,1742249832.482018
0.85,-0.36,-0.35,-0.24,-2.62,-2.87,0.68,-0.08,0.73,0.79,-0.98,-0.43,1742249832.593726
0.86,-0.35,-0.37,2.01,0.67,1.59,0.67,-0.1,0.74,-0.31,-2.38,-0.67,1742249832.7077959
0.86,-0.35,-0.36,0.98,3.6,-0.12,0.66,-0.1,0.75,-0.12,-1.77,-0.79,1742249832.8223329
0.86,-0.36,-0.36,-0.73,2.14,0.55,0.67,-0.1,0.74,0.79,-0.85,-1.34,1742249832.935764
0.87,-0.34,-0.37,0.79,1.65,0.92,0.66,-0.1,0.74,0.0,-1.28,-0.18,1742249833.049688
0.86,-0.35,-0.38,1.04,-0.49,0.61,0.67,-0.11,0.75,-0.43,1.1,-0.55,1742249833.1647449
0.87,-0.35,-0.37,0.79,-2.26,-0.31,0.67,-0.11,0.73,1.28,2.81,-0.06,1742249833.2776508
0.86,-0.35,-0.38,1.04,-5.62,-0.79,0.67,-0.12,0.73,0.92,6.04,2.32,1742249833.391503
0.86,-0.35,-0.36,-2.38,-6.9,-2.26,0.69,-0.1,0.71,0.98,4.82,2.44,1742249833.504529
0.86,-0.36,-0.34,-1.1,-4.39,-1.22,0.69,-0.1,0.71,0.55,2.69,-0.55,1742249833.618512
0.87,-0.36,-0.34,-1.16,-5.19,1.65,0.7,-0.1,0.71,1.95,3.85,-0.61,1742249833.731654
0.88,-0.35,-0.33,0.73,-5.13,2.08,0.7,-0.11,0.7,3.6,4.94,1.4,1742249833.845531
0.88,-0.35,-0.31,-0.37,-6.35,0.49,0.71,-0.12,0.7,3.66,5.13,1.77,1742249833.962689
0.87,-0.34,-0.31,-1.22,-5.19,-1.04,0.71,-0.11,0.69,1.46,3.66,1.28,1742249834.072615
0.88,-0.35,-0.29,-0.61,-2.08,-0.06,0.72,-0.11,0.69,1.28,2.56,-0.06,1742249834.186493
0.89,-0.35,-0.29,-1.71,-2.62,0.49,0.72,-0.12,0.68,0.49,4.09,0.06,1742249834.301997
0.89,-0.34,-0.29,-1.4,-3.36,1.16,0.72,-0.12,0.67,3.48,5.74,0.61,1742249834.413428
0.9,-0.34,-0.27,0.73,-6.16,0.98,0.75,-0.12,0.65,13.79,13.79,1.95,1742249834.52641
0.9,-0.34,-0.27,0.79,-4.21,2.62,0.75,-0.14,0.65,3.23,2.81,-1.28,1742249834.6394932
0.9,-0.33,-0.27,-1.77,-1.28,2.01,0.76,-0.14,0.64,1.53,2.69,-1.34,1742249834.753522
0.9,-0.33,-0.26,-0.92,-0.37,0.92,0.76,-0.14,0.63,-0.61,0.49,-0.85,1742249834.86762
0.9,-0.33,-0.26,-0.43,-1.22,0.49,0.75,-0.14,0.63,0.24,2.5,-0.85,1742249834.9821382
0.91,-0.34,-0.26,-0.43,-2.99,1.34,0.76,-0.14,0.62,5.13,10.5,1.53,1742249835.095382
0.9,-0.34,-0.24,0.0,-6.35,1.46,0.78,-0.15,0.61,3.78,6.96,-0.31,1742249835.20847
0.9,-0.33,-0.25,0.49,-0.61,0.49,0.77,-0.15,0.6,1.34,1.46,-0.43,1742249835.322496
0.91,-0.33,-0.25,-0.18,-0.43,0.85,0.78,-0.16,0.6,0.79,0.31,-2.2,1742249835.436482
0.91,-0.32,-0.25,-0.31,-0.06,1.16,0.78,-0.16,0.6,-0.12,-0.49,-1.46,1742249835.550784
0.91,-0.32,-0.25,0.49,0.79,0.24,0.78,-0.16,0.61,-0.31,-0.67,-0.85,1742249835.6647968
0.91,-0.32,-0.24,-0.06,0.85,0.61,0.77,-0.15,0.61,-0.06,-1.1,-1.1,1742249835.781912
0.9,-0.32,-0.25,-0.24,1.59,2.26,0.78,-0.16,0.61,-0.37,-1.59,-2.26,1742249835.892735
0.91,-0.31,-0.25,-0.79,1.89,0.85,0.77,-0.16,0.61,-0.06,-0.43,-0.73,1742249836.006729
0.91,-0.32,-0.25,0.43,0.18,0.92,0.77,-0.16,0.61,0.31,-0.12,-1.89,1742249836.120673
0.92,-0.31,-0.26,0.06,-0.43,0.37,0.78,-0.17,0.6,0.73,1.4,-0.24,1742249836.2346408
0.91,-0.31,-0.25,-0.43,-1.77,0.31,0.77,-0.17,0.6,-0.12,1.04,-1.89,1742249836.348611
0.91,-0.3,-0.25,-0.24,-0.12,0.92,0.77,-0.17,0.61,0.31,0.55,-0.67,1742249836.462537
0.91,-0.31,-0.24,-0.92,-0.43,0.24,0.78,-0.18,0.6,0.31,-0.12,-1.22,1742249836.5757241
0.92,-0.3,-0.25,-0.61,0.67,0.31,0.77,-0.18,0.61,0.55,0.18,0.18,1742249836.6893718
0.91,-0.31,-0.23,0.12,0.43,0.92,0.77,-0.17,0.61,0.06,-0.61,-1.83,1742249836.802513
0.92,-0.31,-0.25,0.43,0.31,1.95,0.77,-0.17,0.6,-0.92,-0.37,-2.87,1742249836.91665
0.91,-0.3,-0.26,0.06,0.06,2.01,0.76,-0.17,0.62,-0.79,-0.43,-2.81,1742249837.0306969
0.92,-0.3,-0.25,-0.55,-1.46,3.66,0.78,-0.14,0.61,-13.61,-7.32,-2.2,1742249837.144629
0.9,-0.3,-0.31,15.69,17.94,7.26,0.72,-0.05,0.72,-38.51,10.74,-20.39,1742249837.262634
0.98,-0.1,-0.22,57.43,42.54,-32.96,0.74,0.18,0.54,-25.45,1.89,-79.71,1742249837.372455
0.82,-0.31,-0.37,-1.59,2.01,-1.4,0.43,0.03,0.44,-96.56,-107.6,-213.99,1742249837.487262
0.86,-0.31,-0.39,9.46,14.1,11.72,-0.01,-0.59,0.98,-62.19,-113.89,-140.93,1742249837.60245
0.89,-0.3,-0.39,8.12,5.25,10.99,-0.21,-0.51,1.17,-36.68,-98.14,-89.42,1742249837.7147038
0.89,-0.21,-0.41,2.69,6.16,12.76,-0.21,-0.35,1.07,-26.18,-45.78,-36.19,1742249837.8286521
0.91,-0.19,-0.38,12.33,0.06,8.61,-0.21,-0.2,0.98,-3.78,-1.4,-6.96,1742249837.9428911
