L-AccX,L-AccY,L-AccZ,L-GyrX,L-GyrY,L-GyrZ,R-AccX,R-AccY,R-AccZ,R-GyrX,R-GyrY,R-GyrZ,timestamp
-0.46,0.39,-0.78,1.16,5.37,-0.18,-0.01,-0.23,0.85,0.31,-25.33,-15.26,1742250075.093318
-0.51,0.39,-0.81,-10.44,6.04,12.27,-0.65,-0.67,1.0,16.78,13.61,-12.63,1742250075.2071528
-0.52,0.43,-0.87,43.64,-33.2,-6.35,-0.19,-0.43,0.83,30.52,2.14,144.47,1742250075.321377
-0.37,0.5,-0.73,21.61,-31.49,-5.25,-0.02,-0.18,0.58,18.98,-30.03,155.82,1742250075.435227
-0.37,0.43,-0.69,-31.68,16.66,6.59,0.08,0.08,0.77,9.22,-145.63,97.78,1742250075.548979
-0.49,0.39,-0.82,-54.99,38.09,26.37,-0.21,0.01,0.83,47.06,-189.09,-39.55,1742250075.662388
-0.56,0.32,-0.89,-41.56,3.05,26.43,-1.0,-0.49,0.85,152.83,-133.42,-32.1,1742250075.776334
-0.46,0.28,-0.89,-6.9,-50.11,11.23,-0.93,-0.47,0.65,93.99,-93.26,-29.11,1742250075.8903308
-0.64,0.27,-1.0,72.08,-26.73,-12.7,-0.82,-0.13,0.54,-76.72,76.6,-90.03,1742250076.0043
-0.21,0.38,-0.45,22.34,-23.8,27.16,-1.19,-0.57,0.24,-16.42,8.85,-14.4,1742250076.1218271
-0.16,0.61,-0.72,-33.08,32.35,6.9,-0.82,-0.35,0.16,-27.71,-83.44,43.88,1742250076.232309
-0.14,0.46,-0.54,-108.95,72.2,-27.34,-0.34,-0.01,0.93,10.68,11.96,-0.85,1742250076.3462021
-0.83,-0.07,-1.25,0.12,6.65,-3.36,-0.94,-0.17,0.67,95.52,45.9,-32.59,1742250076.4620821
-0.35,0.46,-0.72,102.48,-78.37,39.0,-1.21,-0.79,0.08,-24.29,11.78,8.12,1742250076.574202
-0.01,0.43,-0.45,-28.32,25.51,15.93,-0.86,-0.61,0.38,-12.82,-126.65,64.88,1742250076.688282
-0.61,0.29,-0.96,-97.11,102.29,-28.26,-0.45,-0.03,0.85,52.0,-1.65,-33.26,1742250076.8023229
-0.76,0.04,-1.0,73.18,-12.63,-1.95,-0.69,-0.11,0.22,104.55,13.92,-57.62,1742250076.9161751
-0.21,0.32,-0.84,82.7,-119.93,35.89,-1.3,-0.56,0.31,-32.84,55.73,52.61,1742250077.030072
-0.08,0.54,-0.63,-22.03,-3.05,-23.74,-0.65,-0.26,0.94,-99.55,-0.18,54.14,1742250077.144335
-0.69,0.1,-1.2,-60.61,88.5,-23.13,-0.59,-0.29,0.76,57.92,-13.79,-50.96,1742250077.262343
-0.63,0.42,-1.21,161.32,-16.05,-8.61,-1.04,-0.33,0.23,82.03,35.77,-45.78,1742250077.3721752
0.21,0.6,-0.34,32.65,-53.1,19.04,-0.98,-0.42,0.12,-99.49,-3.97,49.26,1742250077.486161
-0.1,0.48,-0.52,-72.02,49.13,-16.78,-0.34,-0.06,0.71,-78.19,24.6,36.99,1742250077.603198
-0.82,0.11,-1.24,-33.87,47.97,-36.25,-0.83,-0.17,0.88,56.34,24.84,-24.17,1742250077.714106
-0.55,0.07,-1.2,32.84,-83.37,73.55,-1.22,-0.47,0.01,20.32,-9.46,-36.5,1742250077.828159
0.2,0.82,-0.41,-54.32,-15.5,32.17,-0.85,-0.26,0.3,-89.29,-21.85,52.31,1742250077.942796
-0.27,0.35,-0.65,-100.34,54.08,-34.42,-0.32,0.0,1.01,-34.36,4.52,29.17,1742250078.056004
-0.98,-0.2,-1.39,-79.35,33.39,-10.8,-0.79,-0.1,0.64,53.83,28.69,-31.49,1742250078.170089
-0.61,0.08,-0.76,9.52,-59.94,76.35,-1.31,-0.5,-0.07,70.98,-50.78,-67.75,1742250078.284255
0.15,0.91,-0.46,11.84,-28.87,28.08,-0.76,-0.25,0.15,-62.01,-13.98,70.86,1742250078.403571
-0.33,0.49,-0.6,-65.61,76.23,-78.43,-0.27,0.09,1.07,19.04,41.02,-32.04,1742250078.5119722
-0.81,-0.17,-1.22,57.07,-30.03,-16.48,-0.91,-0.37,0.8,92.59,22.34,-23.68,1742250078.626088
-0.36,0.41,-0.89,133.36,-97.96,5.0,-1.08,-0.83,0.06,27.59,-6.04,-8.73,1742250078.743383
0.09,0.46,-0.29,-11.11,39.43,-7.51,-0.75,-0.51,0.11,-23.86,-103.7,48.83,1742250078.8542342
-0.37,0.4,-0.76,-52.92,85.63,-28.75,-0.31,-0.08,1.02,38.7,-3.17,-20.51,1742250078.968181
-0.63,0.08,-1.06,61.4,-0.24,5.49,-0.73,-0.2,0.4,138.92,81.36,-45.29,1742250079.083789
-0.34,0.52,-1.08,86.73,-137.82,-7.08,-1.22,-0.7,0.23,-123.47,21.73,35.46,1742250079.196148
-0.01,0.69,-0.53,-80.99,52.55,-5.0,-0.77,-0.32,1.08,-126.77,-58.23,54.2,1742250079.3100622
-0.75,-0.07,-1.1,-144.84,132.45,23.19,-0.49,-0.17,0.89,93.26,-17.58,-59.02,1742250079.4241788
-0.69,0.44,-1.11,113.4,-3.97,34.73,-1.18,-0.23,0.3,92.53,45.47,-79.65,1742250079.544523
0.05,0.34,-0.18,83.01,-62.32,21.97,-1.06,-0.44,0.08,-87.83,7.02,80.99,1742250079.652076
-0.17,0.44,-0.53,-3.48,22.22,-47.55,-0.17,-0.0,0.83,-40.53,13.79,46.69,1742250079.766094
-1.03,-0.06,-1.4,-42.05,47.73,-20.14,-0.78,-0.14,0.69,84.05,-6.53,-47.18,1742250079.8852081
-0.64,0.2,-1.03,17.58,-70.8,47.49,-1.33,-0.48,-0.13,19.9,-2.44,-34.06,1742250079.994195
0.09,0.91,-0.35,-37.41,-11.29,18.8,-0.8,-0.1,0.39,-60.0,-25.45,54.57,1742250080.108224
-0.42,0.44,-0.58,-65.49,76.11,-35.89,-0.27,0.08,0.98,-48.4,41.38,3.42,1742250080.2282429
-0.88,-0.12,-1.2,-41.32,14.4,18.74,-0.65,-0.15,0.8,90.94,-31.07,-21.67,1742250080.336066
-0.56,0.37,-1.1,150.21,-54.5,-1.71,-1.31,-1.03,0.2,12.39,-19.78,-1.71,1742250080.4502778
-0.25,0.36,-0.54,-6.04,-21.79,7.93,-0.64,-0.36,0.2,-46.87,-65.61,63.6,1742250080.5654132
-0.43,0.28,-0.76,-106.75,77.09,-24.84,-0.48,-0.21,0.87,89.9,-40.47,-51.39,1742250080.678112
-0.55,0.28,-0.9,96.62,-5.98,-14.16,-0.59,-0.17,0.41,75.44,85.02,-11.11,1742250080.7919931
-0.37,0.59,-1.07,123.11,-117.92,-47.12,-1.18,-0.75,0.24,-58.29,51.03,78.86,1742250080.909801
-0.1,0.52,-0.56,-3.42,-15.5,-45.96,-0.68,-0.56,0.74,-80.87,-74.95,69.76,1742250081.0248141
-0.6,0.51,-0.98,-55.54,110.84,5.25,-0.54,-0.56,0.63,29.48,-9.4,-54.75,1742250081.1340811
-0.39,0.61,-0.88,31.92,-9.16,37.54,-0.96,-0.44,0.35,59.88,34.67,-48.52,1742250081.248003
-0.14,0.73,-0.57,41.99,-75.13,4.94,-0.96,-0.39,0.04,-121.34,13.18,34.97,1742250081.364886
-0.11,0.71,-0.49,-74.71,33.02,-34.61,-0.43,-0.25,0.9,-45.41,-1.65,9.22,1742250081.476078
-0.66,0.24,-1.15,-63.29,75.81,-10.56,-0.68,-0.19,0.71,35.28,-2.44,-57.19,1742250081.590058
-0.51,0.34,-0.97,36.19,-31.01,57.92,-1.1,-0.34,0.12,40.34,13.06,-28.26,1742250081.708521
0.16,0.89,-0.29,22.28,-36.8,19.41,-0.91,-0.26,0.26,-37.05,-30.82,27.83,1742250081.82621
-0.23,0.54,-0.55,-69.89,34.79,-34.55,-0.46,-0.25,0.84,-52.19,33.45,15.08,1742250081.931998
-0.73,0.14,-1.25,-84.78,4.15,31.86,-0.63,-0.31,0.6,9.4,12.08,-34.97,1742250082.045984
-0.53,0.33,-1.23,-30.88,-34.85,42.05,-0.9,-0.08,0.31,51.21,3.3,-33.75,1742250082.1668658
-0.33,0.44,-0.67,-22.95,-51.82,32.9,-0.86,-0.17,0.12,-41.32,-21.67,31.01,1742250082.274061
-0.32,0.39,-0.65,-52.12,17.58,-10.5,-0.55,-0.24,0.86,-11.23,-9.95,-33.63,1742250082.388073
-0.66,-0.1,-1.34,-27.22,23.07,23.86,-0.77,-0.19,0.52,0.49,31.86,-31.8,1742250082.506228
-0.41,0.35,-0.99,39.67,-26.92,15.14,-1.28,-0.31,-0.02,-16.66,-4.33,9.46,1742250082.616097
-0.1,0.77,-0.47,-15.99,-19.53,-13.12,-1.06,-0.33,0.25,-68.36,-28.26,53.96,1742250082.7302248
-0.15,0.32,-0.56,-51.39,58.17,-31.07,-0.54,-0.19,0.7,28.69,-8.3,-10.25,1742250082.846456
-0.44,0.28,-0.81,22.28,28.08,-1.77,-0.53,-0.24,0.42,85.14,61.34,24.35,1742250082.966012
-0.33,0.24,-1.08,43.76,-72.94,33.14,-1.24,-0.44,0.01,-118.65,29.11,66.1,1742250083.071997
-0.25,0.44,-0.56,-40.95,7.45,-38.39,-0.68,-0.33,1.04,-160.89,29.3,85.14,1742250083.188614
-0.75,-0.17,-0.93,-234.19,83.98,33.51,-0.44,-0.21,0.83,-0.61,11.78,-41.87,1742250083.306346
-0.61,-0.18,-1.08,84.9,-27.47,48.71,-1.35,-0.52,0.31,9.22,18.01,-79.41,1742250083.4139671
-0.1,0.43,-0.49,77.27,-28.87,13.98,-1.04,-0.36,0.35,-63.05,-0.24,61.1,1742250083.5280871
-0.36,0.45,-0.59,-35.95,5.62,-45.47,-0.34,-0.08,0.78,-94.06,57.5,33.94,1742250083.64694
-0.66,-0.27,-1.24,-46.75,15.44,-24.41,-0.44,-0.24,0.74,53.53,-15.62,-62.38,1742250083.7559628
-0.74,-0.03,-1.23,85.75,-11.54,39.55,-1.23,-0.29,0.28,19.17,0.06,-59.08,1742250083.869941
0.01,0.79,-0.33,-10.01,-8.48,21.24,-0.87,-0.18,0.18,-45.72,-8.61,60.0,1742250083.987173
-0.34,0.41,-0.65,-10.19,18.37,-60.85,-0.34,-0.11,0.65,-50.17,17.46,14.16,1742250084.107108
-0.82,-0.1,-1.22,-80.93,43.7,-11.72,-0.69,-0.19,0.77,18.25,-4.21,-53.71,1742250084.212068
-0.7,0.19,-1.24,138.49,-41.26,-8.61,-1.31,-0.36,0.22,42.48,22.83,-40.1,1742250084.32761
-0.01,0.48,-0.35,38.39,-41.02,20.94,-0.9,-0.17,0.39,-50.35,4.46,40.71,1742250084.4474921
-0.32,0.42,-0.68,-58.84,25.57,-23.62,-0.21,-0.04,0.98,-45.23,32.65,16.78,1742250084.553922
-0.79,-0.05,-1.24,-27.4,23.07,7.45,-0.78,-0.29,0.8,82.21,24.78,-8.97,1742250084.6684
-0.57,0.36,-0.94,51.15,-24.78,38.94,-1.23,-0.42,-0.13,54.44,-8.3,-50.84,1742250084.7868092
-0.08,0.71,-0.46,-2.69,-10.38,1.65,-0.79,-0.26,0.49,-79.28,13.55,41.2,1742250084.8957691
-0.47,0.48,-0.72,-10.56,44.37,-36.5,-0.23,-0.14,0.89,-78.31,50.9,-0.31,1742250085.009923
-0.8,-0.03,-1.28,-18.8,-34.67,36.13,-0.7,-0.31,0.67,66.41,8.91,-58.17,1742250085.127142
-0.41,0.63,-0.82,-6.71,-63.72,61.52,-1.39,-0.35,-0.05,52.25,-65.61,-16.72,1742250085.24663
-0.11,0.57,-0.55,-8.06,16.48,-4.03,-0.88,-0.26,0.17,-73.06,-50.11,50.11,1742250085.351927
-0.28,0.24,-0.71,-4.7,41.99,-29.72,-0.44,-0.23,0.8,47.24,-28.38,-15.26,1742250085.4683928
-0.53,0.23,-1.03,42.85,9.64,-0.49,-0.72,-0.29,0.53,35.71,66.22,-13.98,1742250085.587156
-0.41,0.35,-0.78,65.19,-46.75,-1.46,-1.37,-0.6,0.02,22.16,-18.8,-2.56,1742250085.693836
-0.12,0.52,-0.52,5.43,-4.27,-17.58,-0.75,-0.28,-0.01,-67.93,-50.05,47.85,1742250085.8090932
-0.14,0.38,-0.53,-25.82,75.81,-60.79,-0.23,-0.11,0.98,-23.56,11.9,3.42,1742250085.926996
-0.7,0.08,-1.18,-8.24,8.61,-17.82,-0.59,-0.22,0.69,105.59,19.84,34.85,1742250086.035666
-0.51,0.38,-0.7,3.6,-75.74,23.8,-1.62,-0.61,-0.06,31.31,-48.22,-105.83,1742250086.150079
-0.01,0.74,-0.6,-1.1,-15.87,-40.34,-0.79,-0.41,0.14,-140.01,29.54,87.46,1742250086.268202
-0.31,0.3,-0.69,-54.99,71.72,-31.25,-0.15,-0.11,0.93,21.0,24.66,-54.57,1742250086.3878348
-0.67,0.59,-1.03,14.28,-20.63,37.05,-0.83,-0.45,0.62,43.33,-24.72,-42.72,1742250086.4919481
-0.4,0.63,-0.87,48.52,-68.18,63.17,-1.24,-0.72,0.1,22.77,-0.24,-1.95,1742250086.608518
0.04,0.68,-0.44,-1.95,-3.85,-36.56,-0.63,-0.35,-0.09,-43.33,-59.81,56.4,1742250086.7207649
-0.45,0.46,-0.76,-30.7,58.65,-68.3,-0.36,-0.41,0.9,8.18,20.32,-27.22,1742250086.833786
-0.6,0.19,-1.04,33.87,-3.17,9.7,-0.65,-0.35,0.62,64.03,3.36,-51.7,1742250086.947913
-0.41,0.61,-1.01,93.99,-79.47,40.65,-1.35,-0.73,0.02,3.54,-21.18,9.34,1742250087.06791
0.03,0.7,-0.43,-9.89,-11.6,-11.11,-0.63,-0.55,0.17,-55.42,-76.35,52.12,1742250087.1758778
-0.21,0.43,-0.78,-46.08,70.13,-22.64,-0.28,-0.3,0.93,26.86,5.43,-34.67,1742250087.289751
-0.46,0.43,-0.93,34.61,-6.84,7.87,-0.77,-0.26,0.44,110.84,14.1,-39.0,1742250087.408469
-0.39,0.59,-1.04,17.58,-85.39,30.4,-1.26,-0.74,0.11,-52.12,-0.55,39.86,1742250087.527787
-0.11,0.56,-0.5,-4.27,14.47,-37.54,-0.55,-0.44,0.39,-24.17,-94.73,60.49,1742250087.631874
-0.59,0.35,-0.92,-30.52,88.38,-26.0,-0.34,-0.42,0.7,61.28,-24.78,-39.25,1742250087.748775
-0.53,0.36,-1.06,47.55,-10.5,10.19,-0.93,-0.36,0.33,48.34,8.91,-69.64,1742250087.86893
-0.13,0.61,-0.5,26.0,-57.31,30.27,-1.13,-0.36,0.27,-44.74,26.43,25.39,1742250087.9736562
-0.24,0.59,-0.7,-22.46,23.93,-47.0,-0.62,-0.39,0.99,-28.5,-58.72,21.91,1742250088.088845
-0.86,0.03,-1.23,-99.12,91.31,11.23,-0.72,-0.47,0.68,54.26,-22.4,-52.86,1742250088.211367
-0.56,0.4,-1.06,57.86,-23.32,16.05,-1.09,-0.23,0.2,87.28,-2.75,-43.4,1742250088.3157918
-0.19,0.59,-0.37,35.77,-29.79,42.6,-1.04,-0.41,0.33,-69.46,21.85,78.31,1742250088.429771
-0.25,0.41,-0.63,-19.23,31.56,-18.55,-0.29,-0.14,0.87,-139.22,77.51,49.74,1742250088.5477629
-0.74,0.13,-1.27,-59.81,37.54,-11.72,-0.52,-0.23,0.77,42.79,29.05,-26.61,1742250088.658274
-0.61,0.15,-1.12,34.18,-61.34,29.17,-1.16,-0.34,0.14,-6.9,-9.4,-63.11,1742250088.771895
0.12,0.84,-0.24,-35.1,1.22,20.69,-0.93,-0.29,0.32,-48.1,-10.68,67.5,1742250088.88901
-0.3,0.53,-0.64,-18.62,23.86,-66.65,-0.65,-0.54,1.02,-67.87,23.01,32.71,1742250089.00835
-0.59,-0.01,-1.08,-99.24,58.96,-4.7,-0.65,-0.34,0.77,60.73,21.18,-49.5,1742250089.113788
-0.64,0.44,-1.13,179.14,-38.27,-45.35,-1.13,-0.37,0.21,78.06,-19.9,-65.37,1742250089.2317529
-0.01,0.75,-0.24,25.94,-54.38,49.74,-1.06,-0.43,0.3,-57.74,9.58,73.0,1742250089.3480031
-0.28,0.48,-0.62,-14.47,38.51,-31.92,-0.43,-0.26,0.9,-124.63,48.52,42.3,1742250089.455575
-0.58,0.14,-1.12,-54.99,54.57,-9.34,-0.58,-0.38,0.84,43.58,32.17,-17.15,1742250089.5696719
-0.49,0.43,-1.07,29.6,-58.96,30.46,-1.15,-0.48,0.27,54.44,13.92,-52.49,1742250089.689939
-0.06,0.72,-0.25,12.39,-29.3,17.46,-0.96,-0.33,0.21,-76.23,-12.63,75.2,1742250089.808429
-0.28,0.54,-0.59,-41.2,48.77,-30.4,-0.22,-0.22,0.79,-21.12,-22.03,25.15,1742250089.9118621
-0.64,0.22,-1.21,-26.43,38.39,-16.36,-0.76,-0.34,0.79,14.22,63.72,-29.36,1742250090.028141
-0.47,0.46,-0.94,23.74,-76.11,38.27,-1.06,-0.52,0.12,27.59,-13.0,-17.52,1742250090.148902
0.01,0.73,-0.41,-18.25,-7.93,7.32,-0.92,-0.37,0.36,-30.27,-18.43,36.68,1742250090.2536309
-0.21,0.49,-0.53,-30.4,54.81,-45.65,-0.35,-0.34,0.75,20.02,-53.53,12.45,1742250090.369163
-0.65,0.33,-1.12,-7.26,35.52,-29.66,-0.57,-0.45,0.76,21.0,46.94,-30.21,1742250090.488478
-0.43,0.54,-1.08,112.43,-60.3,-26.25,-1.08,-0.52,0.1,40.65,23.13,-57.19,1742250090.5955358
0.07,0.71,-0.28,-63.6,-21.42,71.96,-0.93,-0.33,0.46,-93.14,-3.05,51.64,1742250090.7111208
-0.28,0.35,-0.64,-73.36,68.54,-11.41,-0.35,-0.09,0.87,3.78,-40.53,5.98,1742250090.828078
-0.8,0.08,-1.23,-37.11,34.97,-2.56,-0.33,-0.16,0.78,42.54,57.25,-21.42,1742250090.946659
-0.6,0.14,-1.36,36.99,-96.13,24.84,-1.35,-0.57,0.06,67.08,-19.35,-36.13,1742250091.051866
0.1,0.72,-0.28,-47.42,1.16,26.25,-0.88,-0.35,0.55,-101.68,-24.48,46.69,1742250091.169008
-0.41,0.31,-0.59,-31.43,68.05,-32.96,-0.23,-0.16,1.13,-17.27,19.41,-26.73,1742250091.288369
-0.83,-0.22,-1.39,12.7,-20.14,4.39,-0.8,-0.22,0.78,56.21,40.16,-48.46,1742250091.393585
-0.31,0.47,-0.58,65.0,-54.87,49.93,-1.36,-0.74,0.12,36.74,-13.85,-14.53,1742250091.508359
-0.09,0.53,-0.58,-5.98,-2.2,-3.17,-0.71,-0.39,0.03,-38.88,-81.36,57.98,1742250091.627736
-0.51,0.33,-0.81,-44.49,74.77,-53.83,-0.31,-0.25,0.75,0.24,36.32,-14.53,1742250091.7356029
-0.61,0.07,-1.13,44.98,-24.17,-21.12,-0.92,-0.35,0.61,54.87,11.35,-60.12,1742250091.8496552
-0.4,0.47,-0.6,51.57,-46.75,33.75,-1.4,-0.8,0.23,-23.19,-6.59,1.22,1742250091.9687512
-0.19,0.41,-0.63,-25.45,13.0,-1.89,-0.71,-0.46,0.76,-37.84,-60.3,51.39,1742250092.0879219
-0.57,0.23,-0.89,-55.18,77.76,-9.95,-0.49,-0.24,0.69,39.73,-19.29,-25.33,1742250092.191642
-0.6,0.28,-0.92,38.57,-2.26,-15.14,-0.81,-0.33,0.41,79.47,-25.51,-19.04,1742250092.308011
-0.38,0.53,-0.74,60.73,-32.41,9.83,-1.19,-0.6,0.24,28.5,-13.67,9.89,1742250092.42741
-0.16,0.57,-0.6,-6.84,7.93,1.59,-0.93,-0.47,0.29,-66.41,-44.8,30.52,1742250092.533708
-0.27,0.48,-0.68,-9.4,61.77,-32.9,-0.36,-0.26,0.86,-14.47,2.81,-6.35,1742250092.647914
-0.71,0.11,-1.22,37.9,-3.54,-3.05,-0.76,-0.36,0.65,84.66,1.34,-14.34,1742250092.767918
-0.39,0.59,-0.77,53.77,-57.07,-6.65,-1.27,-0.59,0.0,5.68,6.53,-5.13,1742250092.875492
0.01,0.79,-0.41,-13.06,-10.86,-12.88,-0.93,-0.51,0.08,-58.59,-62.62,47.91,1742250092.989558
-0.25,0.46,-0.59,-56.27,72.02,-2.75,-0.07,-0.23,1.06,34.91,6.77,13.12,1742250093.107473
-0.74,0.1,-1.22,41.87,-26.92,-15.08,-0.48,-0.4,0.51,66.59,9.34,-34.79,1742250093.217503
-0.34,0.36,-0.92,81.97,-82.89,-11.17,-1.41,-0.51,-0.15,35.89,1.34,-82.21,1742250093.331553
0.15,0.94,-0.37,-45.04,-9.03,23.01,-0.89,-0.36,0.38,-80.81,8.3,57.68,1742250093.4473019
-0.21,0.68,-0.44,-46.75,98.94,-18.25,0.08,-0.15,1.24,-2.14,12.08,17.27,1742250093.5676212
-0.94,0.21,-1.39,-1.71,1.77,-36.62,-0.41,-0.37,0.68,42.48,18.43,-23.99,1742250093.6734982
-0.53,0.76,-0.92,112.67,-97.11,-14.65,-1.45,-0.64,-0.28,13.0,20.02,-51.82,1742250093.790329
0.33,0.97,-0.07,-54.44,-1.71,37.11,-0.8,-0.37,0.29,-76.17,-36.13,50.42,1742250093.9086442
-0.19,0.64,-0.55,-59.51,96.37,-9.64,0.03,-0.14,1.1,7.93,6.77,-0.12,1742250094.015363
-0.75,0.21,-1.3,13.31,-18.98,-10.56,-0.63,-0.2,0.71,61.1,66.89,-35.46,1742250094.129477
-0.37,0.48,-0.68,26.73,-108.22,16.72,-1.35,-0.72,-0.06,8.42,5.68,-18.13,1742250094.2472599
0.11,0.74,-0.35,-46.33,5.62,14.83,-0.85,-0.62,-0.02,-29.66,-58.78,36.5,1742250094.3576782
-0.35,0.58,-0.7,-52.25,75.01,-37.9,-0.3,-0.38,0.87,13.18,-9.52,-26.37,1742250094.471529
-0.57,0.24,-1.11,7.08,-8.54,7.87,-0.61,-0.25,0.71,38.76,61.95,-16.3,1742250094.58864
-0.41,0.33,-0.87,-22.28,-110.23,31.98,-1.13,-0.49,0.06,-21.91,-13.31,-70.92,1742250094.700104
0.09,0.8,-0.42,-51.27,-5.43,28.87,-0.98,-0.42,0.48,-67.81,-4.88,51.09,1742250094.813496
-0.37,0.44,-0.64,-51.15,51.82,3.05,-0.08,0.09,0.98,-52.19,48.28,8.73,1742250094.927941
-0.63,0.21,-1.2,-2.2,-12.15,-18.19,-0.59,-0.33,0.7,55.3,1.1,-26.73,1742250095.049401
-0.35,0.41,-1.01,76.9,-47.73,-23.62,-1.38,-0.59,-0.05,27.28,-22.89,-20.14,1742250095.1555278
0.0,0.67,-0.42,-8.97,-3.3,-8.85,-0.73,-0.31,0.53,-72.69,7.69,45.96,1742250095.2694569
-0.2,0.57,-0.57,-10.44,47.49,-32.53,-0.14,-0.15,1.14,-16.24,-13.67,11.05,1742250095.388205
-0.66,0.17,-1.28,5.62,8.97,-12.57,-0.57,-0.13,0.79,52.06,37.78,-29.42,1742250095.508158
-0.4,0.34,-0.99,30.82,-77.94,22.03,-1.31,-0.59,0.02,48.1,-43.27,-44.01,1742250095.611468
0.15,0.81,-0.4,-28.99,-3.78,18.74,-0.85,-0.29,0.42,-63.05,-14.65,50.54,1742250095.731764
-0.31,0.46,-0.53,-29.6,56.09,-29.85,-0.23,-0.29,1.17,8.91,-30.09,4.39,1742250095.84832
-0.73,0.04,-1.22,10.86,18.49,6.29,-0.61,-0.23,0.77,37.6,29.54,-25.21,1742250095.953402
-0.46,0.4,-1.25,15.5,-79.35,14.89,-1.19,-0.47,-0.01,18.98,-11.9,-26.49,1742250096.0680199
0.13,0.95,-0.4,-32.1,-12.02,24.11,-0.84,-0.35,0.52,-41.38,0.67,53.83,1742250096.1896582
-0.34,0.43,-0.73,-30.7,42.91,-21.61,-0.35,-0.2,0.8,-46.94,14.95,16.97,1742250096.295394
-0.61,0.21,-1.2,-28.26,38.27,-14.22,-0.76,-0.37,0.76,60.73,32.96,-30.58,1742250096.4094021
-0.43,0.6,-0.87,39.67,-67.02,22.03,-1.16,-0.42,-0.01,44.86,7.2,-38.64,1742250096.527764
0.14,0.96,-0.38,-20.45,-42.05,18.92,-0.87,-0.4,0.43,-70.13,-5.19,62.07,1742250096.648322
-0.17,0.5,-0.58,-32.71,68.05,-29.66,-0.2,-0.22,1.14,0.43,-18.01,5.8,1742250096.751338
-0.66,0.25,-1.3,0.24,20.75,2.5,-0.65,-0.3,0.8,67.69,40.77,-15.99,1742250096.868702
-0.42,0.43,-0.85,-5.92,-90.27,53.1,-1.23,-0.63,-0.09,21.24,17.27,-31.68,1742250096.988802
0.19,1.03,-0.4,-24.78,-32.84,15.69,-0.7,-0.35,0.47,-62.56,-22.4,45.9,1742250097.093358
-0.2,0.54,-0.63,-46.02,68.05,-21.73,-0.23,-0.35,0.92,-15.2,-25.15,-8.18,1742250097.211448
-0.73,0.22,-1.34,-17.33,51.27,4.46,-0.72,-0.31,0.82,77.51,28.93,-24.23,1742250097.328074
-0.43,0.5,-0.73,6.59,-72.39,49.8,-1.4,-0.75,-0.11,1.4,2.99,-11.66,1742250097.435356
-0.02,0.73,-0.48,-26.49,-9.22,-0.06,-0.67,-0.45,0.08,-81.12,-24.41,66.35,1742250097.549357
-0.14,0.49,-0.69,-11.84,65.25,-52.37,-0.09,-0.09,0.95,3.42,-3.97,-35.52,1742250097.669269
-0.56,0.26,-1.04,29.17,-4.82,9.34,-0.8,-0.35,0.72,57.74,20.14,-45.84,1742250097.7884831
-0.36,0.61,-0.61,46.87,-62.19,45.72,-1.21,-0.64,0.12,12.51,-13.92,-2.62,1742250097.891328
-0.06,0.7,-0.51,-10.44,-4.94,1.16,-0.82,-0.41,0.1,-70.43,-40.53,52.37,1742250098.008765
-0.11,0.49,-0.64,-4.58,55.91,-62.13,-0.42,-0.4,0.91,-22.52,15.56,7.02,1742250098.1280699
-0.83,0.34,-1.25,-9.83,37.96,-20.57,-0.48,-0.37,0.7,66.16,-3.91,0.24,1742250098.233236
-0.45,0.32,-1.04,5.25,-76.05,-14.59,-1.02,-0.54,0.28,13.85,8.24,-38.21,1742250098.348465
-0.05,0.55,-0.27,-8.67,-30.94,59.75,-0.83,-0.49,0.48,-32.47,-0.49,20.2,1742250098.467666
-0.15,0.58,-0.7,-37.96,34.18,-1.71,-0.55,-0.45,1.03,-104.25,3.91,37.17,1742250098.575208
-0.57,0.4,-1.25,-41.63,63.96,-17.88,-0.58,-0.66,0.6,29.66,-13.67,-17.03,1742250098.6899688
-0.34,0.5,-0.94,88.44,-14.22,-20.69,-0.53,-0.37,0.55,42.6,65.12,-3.78,1742250098.808334
-0.31,0.57,-0.87,93.14,-104.43,-32.47,-0.92,-0.73,0.41,-6.04,3.23,28.44,1742250098.928671
-0.06,0.59,-0.64,-7.51,10.44,-20.26,-0.54,-0.53,0.16,-50.9,-63.35,32.96,1742250099.031342
-0.08,0.6,-0.72,-38.15,102.6,-37.78,-0.29,-0.39,0.84,50.84,-36.13,-49.38,1742250099.148298
-0.37,0.42,-0.89,44.25,1.4,34.0,-0.7,-0.24,0.37,82.52,30.82,-64.39,1742250099.268
-0.36,0.61,-0.74,-4.09,-106.2,45.53,-1.11,-0.7,0.31,-54.99,22.52,46.63,1742250099.3731189
-0.25,0.74,-0.73,-9.46,11.05,-21.0,-0.62,-0.56,-0.08,-18.86,-90.15,67.93,1742250099.48841
-0.03,0.55,-0.46,1.95,74.52,-59.14,-0.31,-0.35,0.87,24.84,19.04,-16.17,1742250099.6078908
-0.29,0.39,-0.79,62.13,-24.41,-8.85,-0.39,-0.29,0.41,113.22,26.25,-65.43,1742250099.715075
-0.27,0.54,-0.75,38.33,-97.66,35.95,-1.14,-0.83,0.1,-19.96,-11.66,10.86,1742250099.8292322
-0.12,0.68,-0.56,-35.28,22.77,7.26,-0.68,-0.49,0.06,-33.94,-83.86,37.05,1742250099.9482791
-0.11,0.43,-0.64,-32.47,94.73,-22.46,-0.29,-0.24,0.92,6.77,1.53,-39.37,1742250100.0689878
-0.41,0.39,-0.81,36.74,-20.39,6.41,-0.32,-0.16,0.51,63.84,29.54,-55.48,1742250100.171078
-0.26,0.42,-0.79,21.67,-85.02,40.77,-1.2,-0.71,0.09,-29.72,2.08,-5.37,1742250100.2884128
-0.11,0.59,-0.51,-41.5,21.0,25.33,-0.84,-0.41,0.13,-67.32,-80.14,23.19,1742250100.4082692
-0.31,0.51,-0.7,-0.37,83.56,-48.58,-0.58,-0.33,0.83,51.45,-19.71,-28.44,1742250100.514264
-0.59,0.42,-1.06,98.82,-17.7,-12.82,-0.49,-0.28,0.4,52.55,51.51,2.32,1742250100.628039
-0.46,0.43,-1.24,-7.14,-76.66,0.79,-1.15,-0.72,0.33,-24.48,12.7,15.99,1742250100.747197
-0.23,0.57,-0.69,-22.71,9.64,-4.27,-0.74,-0.46,0.1,-57.07,-61.83,34.55,1742250100.8552341
-0.02,0.49,-0.51,-42.72,65.86,12.45,-0.38,-0.24,0.87,48.34,-26.25,-36.56,1742250100.969235
-0.44,0.47,-0.92,55.11,-32.78,-14.34,-0.46,-0.18,0.38,32.04,51.39,-25.57,1742250101.087774
-0.29,0.71,-0.88,73.0,-74.52,-31.74,-1.35,-0.68,0.18,-40.28,42.24,13.55,1742250101.197093
-0.32,0.64,-0.79,-32.78,21.73,12.82,-1.01,-0.69,0.61,-51.94,-130.13,20.81,1742250101.311218
-0.42,0.61,-0.77,-69.58,94.79,10.38,-0.54,-0.5,0.6,52.37,-42.11,-17.21,1742250101.427542
-0.34,0.49,-0.84,17.52,0.79,1.04,-0.32,-0.15,0.45,38.64,23.8,-33.51,1742250101.548106
-0.39,0.49,-1.21,-21.91,-64.15,23.19,-1.27,-0.65,0.17,-76.66,35.46,26.73,1742250101.6531048
-0.32,0.5,-0.71,-23.62,23.93,-3.11,-0.57,-0.32,0.42,-42.18,-94.42,36.25,1742250101.768079
-0.56,0.39,-0.8,-48.22,106.75,15.44,-0.65,-0.43,0.56,76.05,-46.39,-42.48,1742250101.888365
-0.51,0.32,-0.96,75.01,1.34,-5.68,-0.93,-0.2,0.55,57.98,72.63,-11.84,1742250101.995014
-0.49,0.27,-0.74,30.58,-112.0,2.44,-1.14,-0.65,0.44,-61.77,63.29,56.7,1742250102.1089962
-0.2,0.64,-0.71,9.89,4.52,-21.36,-0.83,-0.59,0.3,-18.86,-94.18,79.28,1742250102.231848
-0.41,0.47,-0.65,-81.05,111.57,16.91,-1.14,-0.47,0.8,-51.39,-9.16,94.18,1742250102.3462121
-0.75,0.3,-0.93,-97.72,61.1,19.1,-0.37,-0.19,0.91,-20.02,175.54,55.18,1742250102.4509912
-0.66,0.22,-0.84,8.73,-1.46,-8.48,0.02,-0.24,0.68,-46.26,210.45,-61.65,1742250102.568407
-0.56,0.37,-0.76,44.56,-1.83,-5.0,-0.04,-0.37,0.44,-175.84,162.41,-202.82,1742250102.683211
-0.48,0.5,-0.83,138.73,-62.56,-44.56,-0.54,-0.86,0.87,-11.54,-56.7,-64.94,1742250102.7932281
-0.31,0.73,-0.62,172.55,-53.83,-54.44,-0.19,-0.31,1.13,-33.14,19.35,-0.37,1742250102.908009
-0.23,0.7,-0.45,-3.78,-11.9,20.81,0.03,-0.22,0.87,-6.59,-10.8,-22.22,1742250103.028266
