L-AccX,L-AccY,L-AccZ,L-GyrX,L-GyrY,L-GyrZ,R-AccX,R-AccY,R-AccZ,R-GyrX,R-GyrY,R-GyrZ,timestamp
0.0925,0.08125,-0.0275,-0.00079250004,-0.001175,0.00055,-0.0175,-0.0425,0.12125,0.0077675,-0.0029449998,-0.0037525,1742106090.461804
0.0925,0.0825,-0.025,-0.00093,-0.00154,0.0004425,-0.045,-0.06375,0.12625,0.011795,-0.00035,0.0025625,1742106090.574102
0.09,0.0825,-0.025,-0.0016025,-0.0004425,-0.00058,-0.0225,-0.08,0.08625,0.0683125,-0.015685,0.0264125,1742106090.68819
0.08875,0.085,-0.02125,0.00061,-0.000825,-0.001145,0.00625,-0.1,0.03625,0.051835,-0.0422675,0.0198825,1742106090.8020868
0.095,0.07125,-0.02125,0.0004125,-0.00093,0.0015575,-0.05625,-0.1275,0.095,0.001175,-0.02658,0.0025325,1742106090.916018
0.0925,0.08125,-0.0275,-0.0004725,0.0009775,0.0001375,-0.00375,-0.125,-0.005,-0.0065625,0.029082501,-0.000825,1742106091.030004
0.08625,0.09625,-0.02125,0.00148,-0.00125,0.000825,-0.0025,-0.13,-0.02,-0.002715,-0.016432501,0.0020299999,1742106091.144002
0.09125,0.0775,-0.02125,-0.0002125,-0.000565,0.0018150001,-0.03375,-0.12,0.0825,-1.5e-05,-0.0081025,0.001175,1742106091.2617111
0.09125,0.0825,-0.02875,-0.0010525,0.0010525,-9.25e-05,-0.00875,-0.1225,-0.01125,-0.0053875,0.03186,-0.0004425,1742106091.372103
0.09125,0.08125,-0.02625,0.0011900001,-0.00148,0.0004725,-0.00125,-0.13125,-0.035,-0.0063475,-0.0207975,0.00084,1742106091.486017
0.09625,0.0725,-0.025,0.00496,-0.0016775,0.001465,-0.04875,-0.11,0.045,0.0049125,-0.038147498,0.0029449998,1742106091.601846
0.09125,0.08375,-0.025,-0.0009775,0.00052,-0.000365,-0.00125,-0.1325,-0.01,0.0012675,0.0317075,-0.0020150002,1742106091.7140942
0.09,0.085,-0.02125,0.0004425,-0.0007625,0.00055,-0.00125,-0.12125,-0.0225,0.00122,-0.0102375,0.0028525,1742106091.828011
0.09375,0.07125,-0.02125,0.0039975,0.00079250004,-0.0007175,-0.03,-0.125,0.045,-0.0062100003,-0.026855,0.00151,1742106091.942543
0.09125,0.08375,-0.02375,-0.0004425,-0.00052,0.0001225,-0.0,-0.1225,-0.01125,0.0095225,0.0305175,-0.0005025,1742106092.056094
0.09125,0.08375,-0.0225,-0.000107500004,-0.00033500002,0.000275,0.0,-0.135,-0.04625,-0.0024875,-0.006225,0.00059500005,1742106092.17008
0.0975,0.07,-0.02375,0.005295,0.00061,-0.001405,0.01,-0.11375,0.005,-0.012695,-0.034927502,0.0018150001,1742106092.284068
0.09,0.085,-0.02375,-3e-05,-9.25e-05,-6e-05,0.00125,-0.11875,-0.00875,0.0149375,0.0296325,-0.0040599997,1742106092.401938
0.085,0.0975,-0.02125,0.0003975,-0.0001225,-0.000107500004,0.0025,-0.13,-0.04875,0.00113,-0.016112499,0.0013875001,1742106092.512067
0.09125,0.07625,-0.0225,-0.0005025,-0.000655,0.001235,-0.03375,-0.1225,0.05625,0.0055225003,-0.0095675,0.0025325,1742106092.6261911
0.09125,0.085,-0.02125,0.00023,-0.0006875,-0.000245,0.0025,-0.12125,-0.02375,0.0027925,0.03424,-0.0015575,1742106092.741885
0.09125,0.08625,-0.02,0.00116,-0.0010975,-0.0002125,0.0,-0.125,-0.05,-0.008285,-0.01561,0.001145,1742106092.854192
0.0925,0.075,-0.02,-0.00052,-0.0010825,0.0011900001,-0.015,-0.11,0.0225,-0.0043800003,-0.02118,0.0026099999,1742106092.968225
0.0925,0.08375,-0.02,-0.00016750001,-0.00059500005,-6e-05,-0.00375,-0.1175,-0.02625,0.00467,0.04239,-0.002885,1742106093.082771
0.09,0.08375,-0.02,-0.000275,-0.00113,-0.000107500004,0.0025,-0.125,-0.04625,-0.0061500003,-0.019195,0.0012050001,1742106093.196234
0.0975,0.07,-0.01625,0.0056925,-0.000275,-0.0020899998,-0.0,-0.13375,0.005,-0.01152,-0.035735,0.0051275003,1742106093.310239
0.0925,0.0825,-0.02,0.00058,-0.0015875,0.0009,0.00375,-0.11625,-0.02,0.019317498,0.0485225,-0.0022425,1742106093.423984
0.09125,0.085,-0.015,0.0009625,-0.0033875,0.0004425,0.005,-0.12,-0.07,0.0018475,-0.0077975,0.00029,1742106093.537916
0.09625,0.07375,-0.015,0.002045,-0.000365,-0.001115,-0.00875,-0.1225,0.00875,-0.013305,-0.042525,0.0001825,1742106093.652118
0.09125,0.08625,-0.01,-0.0007775,-0.00113,0.00029,-0.00125,-0.11875,-0.0125,0.010314999,0.037795,-0.001405,1742106093.765996
0.09125,0.08625,-0.00875,0.000365,-0.00116,-0.000245,0.00625,-0.12875,-0.05375,0.0020899998,0.001495,0.0015725,1742106093.8835998
0.0925,0.075,-0.0075,0.00084,0.000825,-0.0051875,0.00375,-0.11875,-0.00375,-0.011795,-0.0440375,0.0021199998,1742106093.994022
0.0925,0.08625,-0.005,-0.00052,0.0007775,0.00058,0.00625,-0.12,-0.01625,0.0107725,0.0233775,-0.0019675,1742106094.107924
0.09375,0.0825,-0.00875,-0.0007175,0.00052,-0.00045750002,0.00875,-0.125,-0.04875,0.0061025,0.01213,-0.0020150002,1742106094.226592
0.095,0.085,-0.00625,-0.00499,-0.00113,-0.003555,0.00375,-0.12125,-0.01625,-0.0181725,-0.049835,-3e-05,1742106094.3361049
0.09125,0.08625,-0.01,0.00045750002,9.25e-05,0.0007025,0.005,-0.1225,-0.01375,0.014297499,0.029235,-0.0019075,1742106094.4497962
0.095,0.08125,-0.01,-0.0002125,-0.000855,0.0001525,-0.00125,-0.125,-0.06125,0.0036775,0.0158375,0.0007025,1742106094.5641642
0.095,0.08,-0.005,-0.0019225,-0.0028675,-0.0021825,0.0,-0.12125,-0.0175,-0.0219725,-0.04918,0.001235,1742106094.678108
0.0925,0.08625,-0.00375,0.0007775,-0.0013275,0.000825,-0.0,-0.115,0.00125,0.0081625,0.0314025,-0.0009925,1742106094.792125
0.095,0.08125,-0.0025,-0.0004425,0.00029,-0.000565,0.00625,-0.11875,-0.045,0.0064250003,0.0210725,3e-05,1742106094.9059908
0.0825,0.0975,-0.0075,-0.0007025,-0.0007775,0.00079250004,0.0075,-0.12125,-0.04625,-0.0210875,-0.035400003,0.0002125,1742106095.0241349
0.09,0.085,-0.00625,-0.000885,0.0013125,0.00064,-0.01125,-0.1175,0.0525,0.0034625002,0.0057975003,3e-05,1742106095.1339672
0.0975,0.08,-0.01,-0.0004725,0.00061,0.0,-0.0,-0.1325,-0.04375,0.0045324997,0.029709999,7.75e-05,1742106095.248078
0.0875,0.09,-0.00875,-0.0013725,-0.0018,0.00093,0.005,-0.12375,-0.0425,-0.0154725,-0.03804,0.0027474998,1742106095.364513
0.09125,0.08625,-0.01,0.0002125,0.000655,0.00171,-0.00875,-0.1175,0.03125,0.0059975,0.024627501,0.0008075,1742106095.47605
0.09625,0.0825,-0.00875,0.00016750001,-7.75e-05,0.0001525,-0.00375,-0.12375,-0.03375,0.00592,0.031632498,-0.00023,1742106095.589786
0.0925,0.0825,-0.01,0.0003825,-0.000535,0.00033500002,0.005,-0.13,-0.05125,-0.0073249997,-0.0132,0.0016025,1742106095.7058601
0.09125,0.0775,-0.00625,-0.0020599999,-0.00154,0.0022574998,-0.03375,-0.0925,0.07875,-0.006715,-0.018584998,-0.001525,1742106095.818033
0.09375,0.08375,-0.00875,-0.000305,-0.0001225,0.0001225,0.00125,-0.12875,-0.02125,0.00059500005,0.043975,-0.0025475,1742106095.9319081
0.07875,0.10625,-0.00875,0.00026,-0.0008075,0.0006875,0.01,-0.13125,-0.04375,-0.0122225,-0.031770002,0.003585,1742106096.0458229
0.09,0.0825,-0.00875,-0.0013575,-0.000275,0.0019824998,-0.025,-0.11125,0.0925,0.00731,0.0010075001,-0.0015875,1742106096.165077
0.095,0.085,-0.0075,-0.00016750001,-0.000245,3e-05,0.00125,-0.12625,-0.03375,-0.0065625,0.027862499,-0.003525,1742106096.27394
0.0925,0.09,-0.00375,-0.009155,-0.0051275003,-0.00299,0.00375,-0.1275,-0.0125,-0.0172425,-0.044875,0.0074925,1742106096.3880289
0.09125,0.08375,-0.00875,-0.0038299998,-0.000945,0.0048074997,-0.0,-0.0975,0.02875,-0.001115,0.019469999,-0.00016750001,1742106096.5040221
0.09625,0.0825,-0.00625,0.00023,-1.5e-05,-0.001115,0.0025,-0.125,-0.02125,-9.25e-05,0.034819998,-0.003005,1742106096.615907
0.0825,0.095,-0.01125,-0.0031275,-0.0020899998,0.0009925,0.01125,-0.12625,-0.03125,-0.015915,-0.034287497,0.003005,1742106096.729899
0.09125,0.08375,-0.01,-0.0013425,3e-05,0.001465,-0.005,-0.1275,0.03125,-0.0183875,0.0143275,-0.004195,1742106096.845309
0.095,0.0825,-0.01,0.00052,-0.000305,-0.0007625,0.00375,-0.13375,0.01125,-0.0018625,0.029174998,0.00055,1742106096.95791
0.0925,0.08125,-0.01125,-1.5e-05,0.0002125,0.0001525,0.01125,-0.12625,-0.00125,-0.0046075,-0.0025325,0.0004275,1742106097.0718322
0.09875,0.07375,-0.0075,-0.0009925,-0.0006875,0.0013125,-0.00625,-0.1175,0.0425,0.000625,-0.035384998,0.0060125,1742106097.186398
0.09375,0.08375,-0.01125,-1.5e-05,-0.00035,-0.00029,0.01375,-0.125,0.0025,0.0029749998,0.022247499,-0.000825,1742106097.305463
0.09375,0.08125,-0.00875,0.00016750001,-7.75e-05,0.0001375,0.01625,-0.125,-0.0075,0.0016625,-0.0010975,-0.000945,1742106097.413892
0.10375,0.06625,-0.0075,0.00348,0.00142,0.0001375,0.00625,-0.12625,0.01625,-0.0018475,-0.03659,0.0051875,1742106097.5277498
0.0925,0.08625,-0.01,-0.0001225,-0.000245,-0.00016750001,0.015,-0.11875,0.00625,0.008895,0.0204475,-0.0015725,1742106097.6450748
0.0925,0.08125,-0.00875,-6e-05,0.0001525,-3e-05,0.01875,-0.125,-0.01,0.0057525,0.0020899998,0.00055,1742106097.755879
0.095,0.075,-0.01,0.00064,0.0013875001,-0.004135,0.01125,-0.125,-0.00125,-0.013215,-0.029602502,-0.0016775,1742106097.869899
0.0925,0.085,-0.01125,-9.25e-05,-0.0002125,0.0004125,0.01125,-0.12125,0.0,0.0018150001,0.018889999,-0.0037525,1742106097.9854
0.095,0.08125,-0.01,0.0,-7.75e-05,-6e-05,0.01375,-0.12,-0.01875,0.0046550003,0.0125575,-0.00142,1742106098.0979
0.095,0.07625,-0.00875,-0.001235,-0.000365,-0.0034025,0.01125,-0.12625,-0.01875,-0.014695,-0.0378125,-0.000565,1742106098.212118
0.09375,0.085,-0.01375,6e-05,-4.5e-05,0.00059500005,0.00625,-0.12375,0.00375,0.0086375,0.0208275,3e-05,1742106098.325865
0.095,0.08125,-0.01,-0.00026,7.75e-05,-0.000245,0.01375,-0.12125,-0.02875,0.00618,0.010832501,0.0002125,1742106098.445747
0.0925,0.0825,-0.00875,-0.0028225,7.75e-05,-0.0042875,0.00875,-0.13125,-0.02125,-0.017075,-0.04486,-0.0018300001,1742106098.5539498
0.09125,0.08875,-0.01375,0.00061,0.0008075,0.0020599999,0.0125,-0.13,-0.00875,0.002625,0.020860001,0.001145,1742106098.66781
0.0975,0.0775,-0.00875,-4.5e-05,0.00059500005,-0.00084,0.00625,-0.115,-0.0225,0.0065625,0.0263675,-0.00091500004,1742106098.78632
0.09375,0.08625,-0.01,-0.00125,-0.000365,-0.0001975,0.01375,-0.12,-0.015,-0.014085,-0.03157,-0.0025025,1742106098.896041
0.09375,0.08375,-0.0125,-0.00048750002,0.00084,0.00058,0.0075,-0.105,0.0175,0.0096424995,0.0251775,-0.00154,1742106099.0099058
0.095,0.08,-0.01375,9.25e-05,-4.5e-05,-3e-05,0.00875,-0.125,-0.04,0.0195,0.025817499,0.0047750003,1742106099.125789
0.08875,0.09,-0.0125,0.00035,6e-05,-0.00026,0.01,-0.125,-0.03625,-0.0071575,-0.02533,-0.00032,1742106099.245425
0.09125,0.085,-0.01375,0.00061,0.0008075,-7.75e-05,-0.01625,-0.12875,0.05875,0.00566,0.0039675,0.00079250004,1742106099.3519092
0.09625,0.08125,-0.0125,-0.0009775,0.002105,0.0003825,-0.0,-0.12375,-0.045,0.015717499,0.03511,0.000825,1742106099.4665012
0.0925,0.08375,-0.0175,-0.0010375,0.0010075001,0.000945,0.01375,-0.12,-0.045,0.0054025003,-0.0021525,0.00235,1742106099.585773
0.0975,0.07625,-0.015,0.000245,0.0004275,0.00148,0.00625,-0.11125,-0.00625,-0.0047150003,-0.0384225,-0.0024425,1742106099.6936471
0.09375,0.0825,-0.02,-9.25e-05,0.00023,-1.5e-05,-0.00125,-0.12375,-0.0325,0.009705,0.030625,0.000825,1742106099.8068511
0.0925,0.08125,-0.01875,-0.0001825,0.000365,6e-05,0.00625,-0.12375,-0.04875,0.0025325,0.0054175,-0.0001525,1742106099.926534
0.0925,0.0725,-0.01875,0.0011900001,0.002395,-0.0027,0.0025,-0.11375,-0.0175,-0.009765,-0.03897,0.0007175,1742106100.0348558
0.09,0.08625,-0.0225,-0.001115,0.00357,0.0007625,0.0025,-0.12625,-0.01,0.015565,0.02002,-0.00091500004,1742106100.1488168
0.09125,0.0825,-0.025,-0.000825,0.00171,0.0004125,0.005,-0.125,-0.0525,0.009385,0.0139,0.000625,1742106100.266465
0.10375,0.08,-0.02375,-0.0049274997,0.0021825,0.0033875,0.00375,-0.1225,-0.0375,-0.0163425,-0.0281525,0.0027925,1742106100.376771
0.0825,0.09,-0.02875,-0.0021525,0.0039375,0.00319,0.01375,-0.0875,-0.00875,0.0009775,0.019897498,-0.0024575,1742106100.490725
0.0875,0.08375,-0.0375,-0.001235,0.0036624998,0.0,0.00625,-0.11625,-0.04125,0.0063475,0.019425,0.000305,1742106100.606068
0.085,0.085,-0.03875,-9.25e-05,0.0010825,0.0007775,0.00875,-0.12125,-0.04625,0.0001975,-0.0008075,-0.0010825,1742106100.7186089
0.09625,0.06875,-0.04125,0.0025175,0.0034475,-0.0010225,0.005,-0.1275,-0.03375,-0.0065300004,-0.034927502,0.00296,1742106100.832886
0.0825,0.09,-0.04,1.5e-05,0.0009,0.0002125,0.01625,-0.12125,-0.02125,0.00348,0.013702501,-0.0007325,1742106100.946678
0.08375,0.08375,-0.04,-0.00016750001,0.0003825,-0.0001375,0.01,-0.12125,-0.0375,0.0063925,0.012665,-0.0022274998,1742106101.066549
0.0875,0.08625,-0.03375,-0.0025025,-0.00045750002,-0.0024425,0.00875,-0.1225,-0.0425,-0.008315,-0.02304,-0.00033500002,1742106101.174003
0.07875,0.09,-0.04125,-0.000655,0.00055,0.0025775002,0.015,-0.10375,-0.02,0.00154,0.011185001,-0.000885,1742106101.287728
0.085,0.0825,-0.03875,3e-05,0.0001825,-0.000565,0.00875,-0.11125,-0.01875,0.008025,0.014755,-0.0030825,1742106101.4064362
0.08,0.08625,-0.04,-0.0029449998,-0.0010825,-0.002,0.01,-0.12125,-0.0175,-0.007415,-0.0289925,-0.0026099999,1742106101.515999
0.07875,0.09,-0.0425,-0.00087,0.0002125,0.0025475,0.01,-0.1075,-0.01375,0.005935,0.0110025,-0.0018775001,1742106101.6298409
0.085,0.08125,-0.04,0.00016750001,0.0001975,-0.000885,0.0075,-0.105,-0.0025,-0.0007175,0.015105,-0.00357,1742106101.745192
0.07875,0.0825,-0.04125,-0.0004725,0.00154,-0.004975,0.0075,-0.12875,-0.01125,0.0047750003,-0.02475,0.002595,1742106101.857773
0.07875,0.09125,-0.0425,-0.0001375,0.00061,0.0013875001,0.00875,-0.1175,-0.01625,0.0148325,0.0060575,-0.00357,1742106101.971817
0.08375,0.0825,-0.04125,-0.0001975,0.000107500004,-0.0001975,0.00125,-0.12,-0.01875,0.0102225,0.02034,-0.0020599999,1742106102.086494
0.075,0.09625,-0.04125,-0.00093,-0.0018300001,0.0022574998,0.005,-0.1275,-0.03125,-0.0013275,-0.0242775,0.002395,1742106102.199872
0.08,0.0875,-0.04125,-3e-05,0.00033500002,0.001465,0.00625,-0.10875,0.04125,-0.0111225005,0.0105275,-0.0012050001,1742106102.313813
0.08375,0.085,-0.04125,0.000107500004,-0.0002125,-0.00058,0.005,-0.11875,-0.015,0.00148,0.020645,0.000305,1742106102.427816
0.08,0.08625,-0.0425,7.75e-05,-9.25e-05,0.00061,0.00625,-0.12875,-0.03875,-0.004105,-0.0095975,0.00016750001,1742106102.546635
0.08125,0.0825,-0.04,-0.0016625,-0.001115,0.0027925,-0.0175,-0.12125,0.02375,-0.0028074998,-0.020295,0.0010675,1742106102.655743
0.0825,0.08625,-0.04125,-0.000305,-0.000305,-0.0007625,0.00375,-0.11875,-0.01,0.0048975,0.025742501,-0.00055,1742106102.76982
0.08125,0.085,-0.04375,0.0,-0.00029,0.00032,0.01,-0.12375,-0.0375,0.000825,-0.0087749995,0.0004425,1742106102.8867579
0.09,0.06875,-0.04125,0.0018475,-0.001175,0.0010675,-0.02,-0.12875,0.02375,-0.00879,-0.041275002,0.0023800002,1742106103.005677
0.0825,0.08875,-0.04125,-4.5e-05,-0.0004275,-0.00084,0.0075,-0.12,-0.00875,0.004135,0.0269625,-0.0034475,1742106103.1118138
0.08125,0.085,-0.0425,-0.0001975,-0.000107500004,0.0004425,0.0025,-0.12875,-0.04,0.004165,0.0031275,0.000275,1742106103.2293801
0.09375,0.07375,-0.04125,0.002595,0.001115,-0.001235,0.00625,-0.12375,-0.02375,0.0022425,-0.0245525,0.0010375,1742106103.346768
0.0825,0.08625,-0.0425,-0.000245,-0.00026,-0.000245,0.0025,-0.115,-0.01625,0.0036324998,0.0174875,-0.0010675,1742106103.453814
0.0825,0.085,-0.04,3e-05,-0.00032,0.0004275,0.005,-0.125,-0.04,0.0004275,-0.0007025,0.0001375,1742106103.567619
0.09375,0.07375,-0.0375,0.0043800003,0.0012825,-0.001755,0.0025,-0.12875,-0.01,-0.0113225,-0.03209,0.00016750001,1742106103.68798
0.08125,0.0875,-0.0425,1.5e-05,-0.000275,-0.000275,0.005,-0.12875,-0.01375,0.010162501,0.0199425,-0.002365,1742106103.7957451
0.0825,0.085,-0.04,1.5e-05,-0.00016750001,0.0004725,0.0075,-0.1275,-0.03875,0.0076149995,0.0087575,0.0031575,1742106103.9096289
0.08875,0.0775,-0.03875,0.0047750003,0.003815,-0.0047750003,-0.00375,-0.13,-0.0025,-0.0189675,-0.03827,-0.00351,1742106104.026442
0.08125,0.08875,-0.0425,0.0005025,0.00048750002,-0.00016750001,0.0025,-0.11875,-0.00375,0.016432501,0.02211,-0.0024100002,1742106104.137658
0.08375,0.0825,-0.03875,-0.000365,0.0001975,0.00023,0.0075,-0.11625,-0.04,4.5e-05,0.0104825,-0.0019375,1742106104.251625
0.08125,0.0825,-0.0375,-0.0010525,0.002075,-0.0054025003,0.0,-0.125,-0.0075,-0.01265,-0.0434875,0.0022725,1742106104.366196
0.08,0.0925,-0.04125,0.0001225,0.000535,0.001405,0.00125,-0.11625,-0.0125,0.009002499,0.0254825,-0.0007175,1742106104.4864361
0.085,0.0825,-0.04,-0.00035,0.0001375,-0.00016750001,0.00625,-0.11875,-0.025,0.0036324998,0.016479999,-0.0001525,1742106104.592721
0.08,0.09375,-0.03625,-0.0019375,-0.0010375,-0.0004275,0.00375,-0.12125,-0.0125,-0.010162501,-0.0396425,0.0027,1742106104.7081878
0.08,0.09,-0.04125,-4.5e-05,0.00052,0.001525,0.005,-0.11625,0.005,0.0081625,0.0172275,-0.0009,1742106104.8265758
0.08625,0.0825,-0.04,-0.00032,0.00026,0.0001225,0.00375,-0.12875,-0.03875,0.008195,0.017959999,-0.0010525,1742106104.9346309
0.08375,0.08,-0.0375,0.0004275,0.0012825,-0.0034325,0.0025,-0.1275,-0.0025,-0.0140225,-0.0407875,0.002335,1742106105.048623
0.08,0.09125,-0.0425,0.000535,0.0007475,7.75e-05,0.0025,-0.11625,-0.0025,0.0173025,0.0273275,-0.0025025,1742106105.166699
0.085,0.0825,-0.04,-0.00035,-0.0001225,0.000275,-0.0,-0.12375,-0.035,0.0066075,0.022705,-0.00148,1742106105.276672
0.0775,0.0925,-0.03625,-0.0016325001,-0.0015725,-3e-05,0.00375,-0.1225,-0.01625,-0.008255,-0.038009997,0.00296,1742106105.390715
0.07875,0.08875,-0.04125,0.0002125,0.00029,0.0015875,-0.0,-0.10875,0.0325,-0.0018300001,0.0205225,-0.0007625,1742106105.505316
0.085,0.08375,-0.0375,-9.25e-05,-0.00016750001,-0.0007175,0.0075,-0.1225,-0.02625,-0.0013875001,0.01474,0.0007475,1742106105.625937
0.07375,0.09375,-0.0425,-0.0013725,-0.001785,0.0016025,0.0075,-0.12125,-0.025,-0.00644,-0.0184475,0.0015875,1742106105.732616
0.08,0.08875,-0.03875,-0.00113,0.0001375,0.002,-0.00625,-0.11625,0.04625,-0.003175,0.00792,-9.25e-05,1742106105.84689
0.085,0.085,-0.03875,0.0001525,-0.0002125,-0.00055,0.005,-0.1225,-0.02,0.00299,0.021545,0.00058,1742106105.966638
0.0825,0.085,-0.04,1.5e-05,-0.00023,7.75e-05,0.01125,-0.12,-0.03125,-0.001725,-0.000825,0.0001825,1742106106.074832
0.09375,0.06625,-0.04125,0.00357,0.00125,-0.0013275,-0.00125,-0.13375,0.00125,-0.0101925,-0.0411675,0.000655,1742106106.188622
0.08125,0.09,-0.0375,-0.0001225,-0.000565,-7.75e-05,0.00625,-0.1225,-0.005,0.002,0.039855,-0.0068825004,1742106106.306571
0.08125,0.08375,-0.04,-6e-05,-3e-05,0.0001975,0.0025,-0.13125,-0.03875,0.008315,0.0116875,0.0005025,1742106106.41664
0.08375,0.07875,-0.03875,0.001525,0.0029000002,-0.006225,0.00125,-0.12625,-0.01375,-0.0036175,-0.0448925,0.0025025,1742106106.530495
0.08125,0.09,-0.04125,0.0007175,0.0001225,0.0001525,-0.00625,-0.1225,-0.0075,0.0104674995,0.035415,7.75e-05,1742106106.645909
0.0825,0.08375,-0.0425,-0.0007475,1.5e-05,0.0001825,0.00625,-0.13,-0.06375,0.0092175,0.01065,0.0012825,1742106106.757526
0.0875,0.07125,-0.04125,0.0018775001,0.004195,-0.00679,0.0075,-0.11875,-0.01875,-0.0169975,-0.0591125,-0.0018625,1742106106.871545
0.08,0.095,-0.04,0.00091500004,3e-05,0.00052,0.0025,-0.12375,-0.00875,0.00949,0.03122,-0.0018300001,1742106106.986162
0.08375,0.0825,-0.04,-0.000565,9.25e-05,0.0001375,0.00375,-0.1325,-0.045,0.012725,0.014495,-0.0001525,1742106107.106026
0.08625,0.06875,-0.0425,0.0013125,0.0043800003,-0.007005,0.00625,-0.1275,-0.025,-0.018692499,-0.05606,0.0010825,1742106107.212544
0.08,0.09625,-0.0375,0.00084,0.00029,0.000625,0.0025,-0.11875,-0.00125,0.0131375,0.034745,-0.0034475,1742106107.326445
0.0825,0.0825,-0.04,-0.00048750002,-0.000275,0.000107500004,-0.00125,-0.1325,-0.03625,0.0113825,0.0125124995,0.000245,1742106107.446012
0.085,0.09625,-0.03375,-0.0001375,-0.003005,0.0036775,-0.00125,-0.1275,-0.035,-0.0068200002,-0.029662501,0.0001525,1742106107.55366
0.08,0.0875,-0.035,0.0001225,-0.00087,0.00235,0.0,-0.09625,0.035,-0.005355,0.019975001,0.0010525,1742106107.6675
0.08625,0.085,-0.0375,0.0010825,-0.00148,-0.0013125,-0.00375,-0.12125,-0.025,0.0014500001,0.0290225,-0.00409,1742106107.78652
0.085,0.08375,-0.03375,0.002595,-0.003525,-0.000565,0.005,-0.12375,-0.0275,-0.0027325,-0.005325,0.000855,1742106107.8957162
0.0975,0.07125,-0.03125,0.0018775001,0.00035,-0.0006725,0.00375,-0.12375,-0.01875,-0.008909999,-0.04657,0.0027774998,1742106108.009535
0.085,0.09125,-0.03,-0.00016750001,-0.00033500002,0.000535,0.00375,-0.12625,-0.005,0.01027,0.02382,-0.002,1742106108.125751
0.0875,0.08375,-0.03,-0.00052,0.000565,7.75e-05,0.005,-0.12875,-0.0325,0.0063325,0.00789,0.00029,1742106108.2375062
0.0975,0.07,-0.03375,0.0019225,0.003235,-0.0028074998,0.00625,-0.12875,-0.02375,-0.008195,-0.0493625,0.0019225,1742106108.351406
0.08375,0.095,-0.03125,0.0003825,6e-05,-0.00023,0.00625,-0.115,-0.00375,0.010314999,0.0292825,-0.0037850002,1742106108.466089
0.08625,0.0825,-0.03125,-0.000565,0.0003825,0.000107500004,0.00375,-0.125,-0.03625,0.006805,0.013122501,-0.000825,1742106108.586091
0.08875,0.08375,-0.02625,-0.0006725,-0.0004425,-0.0040425,-0.00125,-0.13125,-0.02125,-0.00972,-0.0387575,0.0013425,1742106108.6936462
0.08,0.09375,-0.0325,0.0010675,0.000855,0.0018,-0.0025,-0.1175,-0.0025,0.005265,0.026747499,-0.0016475001,1742106108.8074062
0.08625,0.0825,-0.03125,-0.0004125,7.75e-05,-0.0007175,-0.0,-0.13125,-0.035,0.010162501,0.01384,0.000535,1742106108.9262578
0.09125,0.09,-0.02625,-0.001465,-0.0010975,-0.004365,0.00125,-0.125,-0.03125,-0.0119325,-0.0343475,0.0007025,1742106109.035979
0.0775,0.09375,-0.03125,0.00029,0.000855,0.0027925,0.0025,-0.1125,-0.0,0.0047150003,0.0233775,-0.002305,1742106109.149322
0.08875,0.0825,-0.03,-4.5e-05,0.0001825,-0.0009,-0.00125,-0.13125,-0.0275,0.0098575,0.018889999,-0.00045750002,1742106109.265575
0.06875,0.1125,-0.03375,0.0004725,-0.0019675,0.002305,0.00375,-0.1275,-0.0325,-0.005005,-0.0174725,0.00084,1742106109.3764591
0.0825,0.085,-0.02875,-0.001175,-0.0004425,0.0037850002,-0.0125,-0.1075,0.075,-0.01126,0.0172575,-0.002045,1742106109.490509
0.08625,0.0875,-0.0325,-0.0001375,-1.5e-05,-0.001175,-0.00375,-0.12375,-0.0175,0.0049274997,0.02858,-0.0010225,1742106109.605702
0.08375,0.08625,-0.0325,-0.00016750001,0.000107500004,0.00035,0.0075,-0.12625,-0.03875,-6e-05,-0.0077825,0.0004725,1742106109.7184398
0.1025,0.065,-0.03375,0.0050500003,0.0010375,-1.5e-05,-0.00875,-0.135,-0.0125,-0.012802499,-0.0540625,0.0038599998,1742106109.832397
0.08,0.09625,-0.03375,-0.0001525,-1.5e-05,-0.00055,0.01,-0.11875,-0.00625,0.0102225,0.0264425,-0.0057975003,1742106109.9465752
0.085,0.085,-0.03125,-0.00033500002,0.00016750001,0.000245,0.00125,-0.12875,-0.025,0.00679,0.01384,-0.000625,1742106110.0663779
0.08625,0.08875,-0.03,-0.005295,-0.00052,-0.0069875,-0.00125,-0.13,-0.0325,-0.01538,-0.0387875,0.001465,1742106110.174668
0.0775,0.095,-0.03125,-0.001145,-0.00035,0.0046375,-0.00375,-0.12375,-0.005,0.0113075,0.0299225,-0.0019375,1742106110.2885492
0.08875,0.08125,-0.03125,4.5e-05,0.00023,-0.000655,-0.00375,-0.12375,-0.02125,0.016525,0.0222925,-0.0001525,1742106110.406446
0.08125,0.10375,-0.03125,0.0010675,-0.001145,0.0007475,0.0025,-0.12875,-0.05375,-0.0089425,-0.0196525,0.0031424998,1742106110.5164108
0.0825,0.08,-0.03125,-0.0007625,-0.001145,0.0036475,-0.03,-0.0975,0.1125,-0.0104375,-0.0007325,-1.5e-05,1742106110.630517
0.0875,0.08875,-0.03,-0.000107500004,-0.000365,-0.0009625,0.0025,-0.11875,-0.02,0.0065450002,0.039564997,-0.005235,1742106110.745018
0.08,0.09875,-0.03375,9.25e-05,-0.0004125,0.00035,0.00625,-0.1325,-0.04125,0.0009,-0.0178525,0.00154,1742106110.866205
0.0975,0.06,-0.02625,0.0075525,0.0012825,-0.0010525,-0.0475,-0.1125,0.07875,-0.0137475,-0.030792499,-0.0010375,1742106110.9723241
0.08,0.09625,-0.0375,-4.5e-05,0.0004125,-0.00171,0.01,-0.12375,-0.005,0.014479999,0.032685,-0.0013575,1742106111.086082
0.085,0.08625,-0.03,-0.00026,0.0001225,0.0006725,0.00375,-0.1325,-0.0475,0.0015575,-0.0015875,0.0010225,1742106111.199512
0.09875,0.0675,-0.03125,0.006225,0.0001975,-0.0019824998,-0.0125,-0.13625,0.0025,-0.0166325,-0.0516975,0.0054175,1742106111.3135848
0.08125,0.09625,-0.03375,-0.0003825,0.00029,-0.0002125,0.015,-0.12125,-0.00875,0.0199275,0.0286875,0.00093,1742106111.427521
0.0875,0.08125,-0.03125,-0.000245,0.00016750001,0.00087,0.00875,-0.12625,-0.0475,0.0090175,0.00563,-0.0012825,1742106111.5466418
0.09125,0.07875,-0.03625,0.0045775,0.0036925,-0.0064075,0.0,-0.1325,-0.00375,-0.032395,-0.0699625,0.002395,1742106111.655504
0.08,0.10125,-0.03125,0.00026,0.00125,0.00033500002,0.02,-0.12125,-0.0325,0.0199575,0.02745,-0.0007025,1742106111.769217
0.09,0.08125,-0.03,0.0,0.00026,0.0001825,-0.00375,-0.1275,-0.0425,0.01332,0.023559999,-0.00302,1742106111.8869052
0.08625,0.10375,-0.02375,-0.0043325,-0.00325,0.000535,-0.00125,-0.1325,-0.04125,-0.01361,-0.049072497,-0.0001825,1742106111.995459
0.08125,0.09125,-0.03125,-0.0016325001,-0.0013725,0.0055075004,0.00625,-0.11125,0.00375,0.0039675,0.0270225,-0.00023,1742106112.109658
0.08875,0.0825,-0.02875,-0.00016750001,0.0001225,-0.001465,0.0025,-0.1125,-0.02375,-0.0048225,0.0290375,-0.00174,1742106112.2293031
0.07875,0.09375,-0.02875,-0.0019675,-0.00409,0.005005,0.00125,-0.1275,-0.0475,-0.018295,-0.0299525,0.00154,1742106112.33744
0.08625,0.0825,-0.02875,-0.0034175,-0.0024725,0.0063325,-0.00875,-0.09625,0.0425,-0.011825,0.02324,-0.0048375,1742106112.4514382
0.08875,0.08375,-0.03,-0.00032,-0.00023,-0.00116,-0.01125,-0.12,-0.0175,0.00583,0.0364375,-0.00229,1742106112.566525
0.07125,0.095,-0.03,-0.0040425,-0.0055549997,0.005585,0.0,-0.125,-0.0575,-0.011215,-0.03595,0.0029000002,1742106112.6876009
0.08875,0.07625,-0.02875,-0.0022425,-0.0028675,0.0069125,-0.0175,-0.0875,0.06625,-0.004365,0.028275,-0.002335,1742106112.7934349
0.08875,0.085,-0.03125,-0.000107500004,-4.5e-05,-0.0016475001,-0.01,-0.125,-0.025,0.0076599997,0.03978,0.0010075001,1742106112.9075148
0.08375,0.08625,-0.035,3e-05,-0.00033500002,0.00058,0.005,-0.1325,-0.055,-0.003585,-0.0142675,0.0027925,1742106113.0268118
0.09,0.0675,-0.02875,0.00319,0.00035,0.0013575,-0.04375,-0.10625,0.12125,-0.0146175,-0.037384998,0.0007025,1742106113.135365
0.0875,0.08875,-0.03375,-0.0001375,0.000107500004,-0.000885,-0.00125,-0.12875,-0.025,0.0036324998,0.03691,0.00052,1742106113.249461
0.085,0.08625,-0.03375,-0.0003825,9.25e-05,0.000565,0.00875,-0.1275,-0.05375,-0.0054025003,-0.0092775,0.0007475,1742106113.3670778
0.0925,0.07125,-0.03125,0.0010225,-0.00026,0.0018475,-0.03625,-0.13,0.04625,-0.016555,-0.0458825,0.0001225,1742106113.4773781
0.08375,0.09125,-0.0325,-4.5e-05,-0.000275,-0.00079250004,0.005,-0.1225,-0.005,0.00705,0.032715,-0.0007025,1742106113.59152
0.08375,0.085,-0.03375,-0.0004125,0.00016750001,6e-05,0.005,-0.12625,-0.0375,0.0016175,0.0007025,-0.0007625,1742106113.708527
0.085,0.0825,-0.03125,-0.0031575,0.000855,-0.0074775,0.005,-0.12625,-0.015,-0.019745002,-0.046875,0.0013875001,1742106113.827082
0.0775,0.0975,-0.03375,-0.001405,0.000365,0.0048525,0.0125,-0.12625,-0.02125,0.0083775,0.0118725,0.00064,1742106113.9333491
0.09,0.08,-0.03,0.0010225,-0.000107500004,-0.0010225,-0.0025,-0.1175,-0.0125,0.0001825,0.0279225,-0.0024100002,1742106114.047592
0.065,0.115,-0.035,0.0016475001,-0.0019225,0.0037375,0.01,-0.13,-0.05,-0.00998,-0.019425,-6e-05,1742106114.16718
0.0825,0.08375,-0.03125,0.0012825,-0.000107500004,0.004105,-0.0325,-0.115,0.09375,-0.0124200005,0.0149525,-0.00264,1742106114.2754638
0.0875,0.08625,-0.03125,7.75e-05,7.75e-05,-0.0016475001,0.00125,-0.1225,-0.02,0.0030975002,0.030975001,-0.0009,1742106114.3894222
0.08375,0.0975,-0.02875,-0.000855,-0.0019075,0.0039675,0.0025,-0.13375,-0.0475,-0.0139,-0.0263525,0.0019375,1742106114.5059562
0.08625,0.0825,-0.02375,0.00171,0.001175,0.0025775002,-0.00625,-0.0975,0.025,-0.013152501,0.0154725,-0.00264,1742106114.617287
0.085,0.085,-0.035,-0.0001375,-0.00026,-0.001525,0.00625,-0.1225,-0.01,0.0013425,0.0101475,0.0009925,1742106114.73154
0.085,0.0875,-0.03125,0.0001825,0.0004725,0.00064,0.0025,-0.125,-0.01375,0.006255,0.01152,7.75e-05,1742106114.847011
0.09,0.06875,-0.0375,0.0003975,0.0028225,-0.0066225,0.0075,-0.1225,-0.0175,-0.0067600003,-0.0437625,0.0039975,1742106114.9670331
0.08,0.09875,-0.0325,0.000565,0.000365,0.0013725,0.00125,-0.11875,-0.0175,0.014145001,0.019715,-0.0027625,1742106115.073311
0.08875,0.08125,-0.03125,-0.000275,0.0001975,-0.0003825,-0.0025,-0.1275,-0.02125,0.0121925,0.0205075,0.0005025,1742106115.1886258
0.08125,0.1025,-0.025,-0.0014500001,-0.0033725,0.0030675002,0.00375,-0.12875,-0.03875,-0.0122375,-0.028655,0.0056,1742106115.307194
0.085,0.085,-0.02875,-0.0014500001,0.000625,0.0036624998,-0.00625,-0.10875,0.04,-0.007355,0.01767,-0.0010375,1742106115.4152918
0.0875,0.085,-0.03375,-6e-05,-0.00058,-0.00151,-0.00125,-0.12375,-0.01625,0.0010975,0.020584999,-0.0002125,1742106115.5295649
0.08375,0.08625,-0.0325,1.5e-05,-0.00029,0.000275,0.0025,-0.12875,-0.03375,0.0009775,0.00026,0.00079250004,1742106115.6464808
0.10125,0.06625,-0.035,0.00714,0.00467,-0.0069274995,0.005,-0.1275,-0.01625,-0.0086375,-0.056822497,0.003525,1742106115.757448
0.07875,0.1,-0.0325,0.00052,0.00061,0.0007325,0.0075,-0.115,0.00375,0.0148775,0.034745,-0.0040749996,1742106115.871156
0.08625,0.0825,-0.0325,-0.000655,-0.0001825,0.0007025,0.0025,-0.13125,-0.0475,0.0045475,0.00769,0.00093,1742106115.987021
0.09875,0.06625,-0.03875,0.0001525,0.0013425,-0.00299,0.00875,-0.12125,-0.02125,-0.0099325,-0.048005,0.0018300001,1742106116.10692
0.08,0.0975,-0.03375,-9.25e-05,0.0008075,0.00061,0.0075,-0.1125,-0.02125,0.015717499,0.022935,-0.006165,1742106116.212254
0.08875,0.0825,-0.03125,-0.0001225,0.00016750001,0.0005025,-0.0025,-0.13625,-0.03375,0.0081775,0.009675,-0.00091500004,1742106116.327549
0.08375,0.09625,-0.02625,-0.002915,-0.0031575,0.00064,0.0,-0.1275,-0.01875,-0.0072625,-0.038772497,0.0024425,1742106116.4475698
0.0825,0.09,-0.03125,-0.0007325,0.000885,0.0034325,0.0,-0.09625,0.005,0.0057975003,0.01883,-0.0030675002,1742106116.5542898
0.08875,0.0825,-0.03125,-7.75e-05,-0.00029,-0.001145,-0.0025,-0.1175,-0.02625,0.0051125004,0.0228875,0.000825,1742106116.668447
0.08625,0.0875,-0.0325,0.0001225,0.0,0.0001825,0.0,-0.13375,-0.045,-0.0036624998,-0.013564999,0.0040749996,1742106116.787194
0.095,0.06375,-0.02875,0.0044549997,0.001435,-0.0012050001,-0.04125,-0.12,0.085,-0.020965,-0.037095003,0.00331,1742106116.896288
0.08375,0.09125,-0.0325,-0.000365,-3e-05,-0.00061,0.00375,-0.11625,-0.00625,0.0033875,0.041305,-0.0072625,1742106117.010655
0.08625,0.08375,-0.0325,0.0,0.00033500002,0.000305,0.00125,-0.13125,-0.05125,0.003875,0.000535,-0.003005,1742106117.126694
0.09875,0.07,-0.035,0.006775,0.0056,-0.0073249997,-0.0025,-0.1225,0.005,-0.00821,-0.05394,0.008117501,1742106117.246102
0.08625,0.0875,-0.03375,0.00064,0.00052,-0.0002125,-0.0075,-0.12875,-0.00625,0.0152125,0.0502925,-0.0068200002,1742106117.352354
0.08625,0.08375,-0.0325,-0.00016750001,4.5e-05,-6e-05,0.0,-0.13125,-0.0475,0.0087749995,0.008025,0.0015575,1742106117.4673762
0.085,0.1,-0.02875,-0.0030975002,-0.0014500001,0.0004275,-0.005,-0.1225,-0.01375,-0.015595,-0.0490425,0.005265,1742106117.587351
0.08125,0.09125,-0.0325,-0.0004725,0.000365,0.0013575,0.0025,-0.095,0.0125,0.00975,0.037995,-0.004195,1742106117.694332
0.08875,0.0825,-0.03375,-0.000305,-4.5e-05,0.0002125,0.005,-0.12,-0.0525,0.0051875,0.0255425,0.0003825,1742106117.8082922
0.0875,0.0925,-0.0275,0.00035,-0.001145,0.0005025,-0.00125,-0.12375,-0.035,-0.0136725,-0.0361625,0.00171,1742106117.927572
0.08125,0.08875,-0.03125,-0.0025475,-0.00035,0.0030375,-0.03125,-0.115,0.0775,-0.0065450002,-0.002915,0.0018925001,1742106118.036494
0.08875,0.08375,-0.0325,1.5e-05,0.000107500004,-7.75e-05,0.005,-0.11,-0.035,0.0065,0.0386975,-0.0012050001,1742106118.1501539
0.085,0.085,-0.0325,-0.00026,-0.00055,0.0005025,0.01375,-0.12125,-0.04375,-0.00673,-0.0151375,0.00048750002,1742106118.267169
0.10125,0.065,-0.03625,0.0037225,0.0019075,-0.000885,-0.01,-0.14,0.0075,-0.014115,-0.0567625,0.000305,1742106118.3781838
0.085,0.09,-0.03375,-6e-05,-0.00048750002,-7.75e-05,0.00375,-0.11875,-0.00875,0.0083775,0.041215,-0.004105,1742106118.492384
0.08375,0.085,-0.03375,-0.00026,0.00029,0.00035,0.00625,-0.12625,-0.0425,0.0054775,0.0015725,-0.0007175,1742106118.60745
0.08875,0.07625,-0.03375,0.0016475001,0.003815,-0.0059825,0.0025,-0.1275,-0.02,-0.01085,-0.0499575,-0.00016750001,1742106118.720205
0.0825,0.09375,-0.03375,-1.5e-05,0.0003825,0.0007325,0.0,-0.12,-0.00375,0.009185,0.02623,-0.0024249998,1742106118.834189
0.085,0.085,-0.03375,-0.0004425,0.000275,0.00029,0.005,-0.125,-0.02875,0.00302,0.01068,-0.0029749998,1742106118.948148
0.085,0.09625,-0.02875,-0.00171,-0.00058,-0.0020299999,-0.0075,-0.1325,-0.015,-0.0063475,-0.0355825,0.000825,1742106119.067038
0.08125,0.09125,-0.03625,0.00055,0.0004425,0.0009925,-0.00125,-0.10875,0.0075,0.0016475001,0.026565,-0.0027774998,1742106119.1760309
0.0875,0.0825,-0.03125,-0.00035,0.0001975,-0.000565,-0.00125,-0.1225,-0.01625,0.0004725,0.0189825,-0.00171,1742106119.289292
0.085,0.0975,-0.0325,0.00033500002,-0.00032,0.00023,0.00375,-0.1225,-0.0325,-0.001495,-0.009965,0.001465,1742106119.407765
0.09125,0.0625,-0.02625,0.00734,0.0024575,-0.0030825,-0.04875,-0.12625,0.1275,-0.019775,-0.030305,-0.0018925001,1742106119.517165
0.0875,0.0875,-0.03625,-0.00016750001,0.00064,-0.0016775,-0.01,-0.12125,0.02125,-0.036849998,0.0691525,-0.017182501,1742106119.6312692
0.08625,0.085,-0.03125,0.00032,0.0010075001,0.000305,0.01,-0.0575,0.06375,-0.10591,0.020035,-0.03218,1742106119.746183
0.0875,0.0825,-0.03375,0.00052,0.00061,3e-05,-0.0325,-0.0625,0.12,-0.017944999,-0.0074,-0.008545,1742106119.858062
0.08625,0.08625,-0.03625,0.0003825,0.0008075,0.00026,-0.025,-0.0425,0.115,-0.00174,0.000655,-0.0031275,1742106119.971068
