L-AccX,L-AccY,L-AccZ,L-GyrX,L-GyrY,L-GyrZ,R-AccX,R-AccY,R-AccZ,R-GyrX,R-GyrY,R-GyrZ,timestamp
-1.12,0.42,2.98,76.66,12.45,-5.13,0.42,0.89,0.26,2.44,1.89,-1.22,1742259902.210528
-0.56,0.76,0.5,-220.15,302.31,-294.19,0.43,0.99,0.28,-7.75,-12.33,4.39,1742259902.3214269
0.03,-0.13,-0.68,-9.28,29.11,-409.12,0.29,0.92,0.11,40.28,0.24,-25.33,1742259902.43547
0.27,-1.29,-0.08,105.04,-132.93,-210.88,0.37,0.78,0.39,9.4,-30.52,-10.8,1742259902.5507882
0.47,-0.78,0.38,0.31,-23.86,-5.92,0.1,0.84,0.56,-1.95,2.14,1.95,1742259902.663383
0.58,-0.66,0.44,23.93,-36.68,-17.58,0.56,0.76,0.22,27.04,29.3,-6.96,1742259902.777408
0.52,-0.72,0.38,1.4,-4.7,-13.12,0.42,0.8,0.31,19.41,-37.84,25.33,1742259902.891382
0.54,-0.82,0.35,19.23,13.12,-15.08,0.34,0.77,0.42,-8.97,48.65,24.29,1742259903.005302
0.47,-0.8,0.4,12.94,6.35,-2.32,0.34,0.9,0.4,5.98,-20.2,2.81,1742259903.1192708
0.55,-0.82,0.27,15.38,-10.01,16.6,0.32,0.88,0.53,-3.66,22.34,2.99,1742259903.233322
0.56,-0.75,0.29,10.62,-24.48,0.18,0.36,0.74,0.4,15.56,-4.88,3.54,1742259903.347252
0.48,-0.77,0.33,4.7,-13.73,3.91,0.26,0.65,0.57,-97.05,-3.11,25.09,1742259903.461379
0.51,-0.8,0.33,2.75,-8.97,-4.15,0.29,0.86,0.31,11.29,1.71,3.48,1742259903.575398
0.49,-0.81,0.33,1.1,-7.57,-0.49,0.29,0.89,0.41,17.21,-17.58,-1.28,1742259903.6909142
0.5,-0.79,0.35,11.29,-1.59,-5.86,0.29,0.84,0.43,9.64,-20.39,-1.71,1742259903.803492
0.46,-0.85,0.34,46.45,0.24,-14.53,0.19,0.7,0.66,-19.1,-23.8,6.96,1742259903.917444
0.42,-0.84,0.29,24.78,-16.05,-19.84,0.25,0.92,0.35,-29.72,-19.53,-0.06,1742259904.031414
0.37,-0.92,0.25,12.94,-18.31,-15.93,0.22,0.92,0.35,-9.16,-22.4,5.07,1742259904.1454809
0.37,-0.87,0.28,-6.41,-6.41,5.98,0.19,0.94,0.38,-13.73,-10.07,-12.21,1742259904.259367
0.4,-0.89,0.29,-2.62,5.86,1.34,0.18,0.88,0.38,-7.81,12.51,-4.58,1742259904.3731651
0.43,-0.8,0.3,-35.46,41.63,-1.83,0.21,0.93,0.4,34.73,57.07,14.28,1742259904.487351
0.4,-0.85,0.3,6.29,-2.2,-5.31,0.22,0.91,0.37,-5.13,-0.24,9.46,1742259904.601326
0.41,-0.84,0.31,6.35,-7.08,-3.91,0.19,0.92,0.37,-7.08,4.82,9.4,1742259904.7153301
0.36,-0.88,0.27,25.51,-13.18,-14.95,0.19,0.85,0.32,-14.53,12.27,10.8,1742259904.8318899
0.3,-0.89,0.25,3.54,-13.12,-0.12,0.22,1.06,0.3,-9.03,2.08,1.83,1742259904.943317
0.34,-0.93,0.32,-1.83,-21.55,-1.1,0.2,0.93,0.27,-13.55,-19.65,2.93,1742259905.0574222
0.57,-0.76,0.22,-5.0,15.93,21.24,-0.01,1.02,0.52,26.61,19.23,-26.67,1742259905.171264
0.33,-0.84,0.28,11.9,-22.03,7.02,0.21,1.09,0.29,6.04,33.51,-9.95,1742259905.285275
0.36,-0.88,0.27,17.09,8.36,-9.95,0.23,0.88,0.29,-1.53,1.4,13.79,1742259905.399179
0.35,-0.89,0.24,5.62,4.76,-5.31,0.2,0.96,0.29,-7.57,0.61,10.01,1742259905.512256
0.35,-0.89,0.24,6.23,4.94,-6.77,0.19,0.94,0.28,-10.44,5.31,7.69,1742259905.6262321
0.32,-0.91,0.22,8.06,4.15,-6.47,0.19,0.93,0.25,-6.71,8.06,8.91,1742259905.740254
0.31,-0.9,0.25,0.67,22.71,-14.77,0.21,0.92,0.26,-10.8,3.85,6.9,1742259905.85425
0.3,-0.92,0.15,10.62,28.87,-18.01,0.21,0.93,0.22,-10.13,-17.4,9.34,1742259905.97152
0.41,-0.9,0.14,-25.88,5.98,-12.57,0.12,1.02,0.16,-3.48,-9.03,15.56,1742259906.082402
0.29,-0.83,0.23,-21.61,-21.06,28.02,0.08,1.01,0.16,15.5,20.45,-15.5,1742259906.1963332
0.32,-0.9,0.31,8.61,-15.87,0.0,0.18,0.73,0.26,32.04,21.48,-9.34,1742259906.311328
0.29,-0.88,0.26,0.92,-10.74,2.01,0.22,1.0,0.35,16.17,5.19,4.58,1742259906.424129
0.26,-0.82,0.23,11.17,-1.95,-9.77,0.19,0.93,0.31,-5.43,-0.31,3.23,1742259906.537239
0.39,-0.92,0.27,44.07,-20.87,-13.85,0.11,1.04,0.32,0.18,-17.21,17.46,1742259906.655542
0.32,-0.95,0.07,34.06,-76.97,21.61,0.11,1.06,0.36,53.41,9.95,7.45,1742259906.7650719
0.18,-0.98,0.13,3.42,-65.25,-9.77,0.25,0.89,0.41,22.89,18.49,25.51,1742259906.87825
0.06,-0.89,0.32,-3.72,27.16,-36.07,0.06,0.76,0.54,1.59,-5.49,27.04,1742259906.9927108
0.23,-1.03,0.13,-8.36,36.5,-6.65,0.02,0.91,0.47,-18.07,-13.06,15.32,1742259907.106217
0.19,-0.92,0.1,0.92,26.0,-3.85,-0.02,0.92,0.49,-1.71,1.04,-2.75,1742259907.2205482
0.15,-0.98,0.15,-3.23,25.7,-10.56,0.02,0.92,0.37,-12.88,15.62,1.04,1742259907.3342478
0.12,-1.01,0.2,4.33,3.17,-6.71,0.01,0.9,0.36,5.74,16.36,-10.74,1742259907.452804
0.17,-0.96,0.11,11.23,-5.98,12.27,0.03,0.99,0.45,17.58,-8.12,-7.32,1742259907.562058
0.21,-0.97,0.12,-0.18,4.27,20.2,0.07,0.92,0.49,31.43,-16.97,-15.14,1742259907.676102
0.23,-0.96,0.11,-9.58,10.19,3.23,0.1,0.81,0.46,1.77,5.13,-8.67,1742259907.79235
0.22,-0.95,0.1,-9.46,4.7,1.65,0.08,0.82,0.48,-12.7,0.49,-0.18,1742259907.90315
0.23,-0.93,0.18,-14.53,-12.88,2.81,0.07,0.88,0.44,-8.73,-17.7,-2.99,1742259908.017338
0.25,-0.94,0.22,-6.23,0.06,-0.79,0.11,0.86,0.48,-6.1,-8.54,0.31,1742259908.134146
0.21,-0.93,0.19,-8.0,-6.16,-3.78,0.08,0.88,0.42,-2.08,-6.04,1.46,1742259908.245327
0.25,-0.92,0.28,-4.94,-7.26,-4.03,0.05,0.89,0.42,-4.15,-11.78,0.12,1742259908.359336
0.21,-0.98,0.24,2.93,5.98,-7.32,0.03,0.87,0.48,-6.04,-9.7,13.67,1742259908.473153
0.19,-0.97,0.22,-5.19,-0.85,-1.95,-0.01,0.92,0.4,4.64,-6.04,7.81,1742259908.5873039
0.21,-0.93,0.23,-6.59,-0.31,0.92,-0.02,0.89,0.42,3.23,-0.12,-0.18,1742259908.7013068
0.2,-0.91,0.24,-1.1,4.88,-2.01,0.01,0.9,0.48,-0.79,7.32,1.83,1742259908.8151119
0.2,-0.93,0.26,0.12,6.71,-3.78,0.01,0.87,0.46,1.1,4.15,0.37,1742259908.9330182
0.18,-0.94,0.25,5.0,4.58,-4.27,0.01,0.9,0.45,-5.0,3.23,1.22,1742259909.0431428
0.17,-0.95,0.23,4.52,9.28,-4.33,0.02,0.9,0.44,-4.58,0.06,1.95,1742259909.157241
0.17,-0.96,0.21,1.83,5.07,-3.17,0.0,0.91,0.42,-3.05,-1.1,0.98,1742259909.272995
0.19,-0.96,0.22,-3.66,2.2,2.38,-0.01,0.92,0.41,1.22,-1.1,-1.46,1742259909.3850071
0.2,-0.92,0.25,1.04,-5.25,7.32,0.01,0.89,0.44,4.52,1.16,-5.19,1742259909.499012
0.2,-0.94,0.23,0.18,-3.3,4.39,0.01,0.88,0.44,5.92,-1.89,-1.71,1742259909.614204
0.19,-0.94,0.2,-0.31,0.85,-4.03,0.01,0.88,0.44,0.55,-2.81,-0.92,1742259909.726143
0.2,-0.95,0.25,0.92,5.8,-0.12,0.02,0.9,0.46,2.26,-8.3,-2.62,1742259909.8400111
0.2,-0.96,0.23,1.65,2.08,-2.01,0.01,0.88,0.44,2.14,-0.43,0.18,1742259909.953994
0.2,-0.95,0.22,0.0,-0.06,0.06,0.01,0.88,0.45,1.53,2.26,0.55,1742259910.072743
0.2,-0.93,0.23,-2.2,1.04,1.71,0.01,0.9,0.46,-0.12,-1.1,-1.22,1742259910.182065
0.2,-0.95,0.23,-0.61,0.18,0.31,0.01,0.89,0.45,0.06,-0.92,-0.98,1742259910.296005
0.2,-0.94,0.23,-0.43,-0.31,0.0,0.01,0.89,0.45,0.85,-0.12,-0.55,1742259910.412386
0.2,-0.94,0.24,0.06,-0.43,0.37,0.02,0.88,0.46,0.37,0.06,-0.73,1742259910.523989
0.2,-0.94,0.23,-0.24,0.43,0.79,0.01,0.89,0.46,0.43,-0.55,-0.06,1742259910.6380239
0.2,-0.95,0.23,0.43,1.22,-0.79,0.01,0.88,0.45,-0.31,-0.73,-0.31,1742259910.752917
0.2,-0.95,0.23,0.24,-0.06,-0.49,0.01,0.89,0.45,-0.49,-0.37,-0.61,1742259910.866098
0.2,-0.94,0.23,0.73,-0.12,0.12,0.02,0.89,0.46,0.0,-0.37,-0.43,1742259910.980001
0.2,-0.93,0.23,2.87,1.28,-2.93,0.01,0.89,0.46,-0.79,0.31,-0.12,1742259911.094017
0.19,-0.95,0.21,4.88,-1.77,-5.31,0.01,0.89,0.44,-7.45,0.61,1.46,1742259911.213001
0.18,-0.97,0.22,0.49,-5.74,-0.06,-0.01,0.9,0.43,-11.41,-5.0,2.01,1742259911.3221362
0.19,-0.93,0.21,-0.24,-11.72,5.07,0.0,0.92,0.42,-8.36,-6.04,-8.0,1742259911.436094
0.18,-0.94,0.21,-2.32,-9.16,-3.54,0.0,0.9,0.4,-4.58,-11.96,-4.94,1742259911.552992
0.18,-0.94,0.24,-9.09,-2.01,1.65,0.02,0.96,0.41,-10.68,-5.49,-3.85,1742259911.664122
0.16,-0.94,0.25,-4.46,0.12,-3.3,0.05,0.92,0.37,-24.41,1.04,-3.72,1742259911.778091
0.17,-0.95,0.25,-2.01,2.38,-1.1,0.04,0.95,0.32,-5.25,0.55,-4.15,1742259911.893413
0.18,-0.94,0.25,8.42,4.88,-1.16,0.05,0.94,0.32,-11.17,1.34,-2.01,1742259912.005903
0.17,-0.95,0.23,8.24,-0.92,1.34,0.04,0.96,0.3,-10.86,-1.1,1.83,1742259912.1201038
0.17,-0.96,0.22,4.46,-0.67,-0.24,0.03,0.95,0.28,-3.97,-3.85,2.14,1742259912.236238
0.17,-0.95,0.2,1.04,-2.2,0.37,0.02,0.96,0.27,-0.55,-3.11,0.0,1742259912.353487
0.16,-0.98,0.19,2.5,-0.85,3.78,0.01,0.96,0.26,7.63,-4.76,-0.85,1742259912.460978
0.17,-0.98,0.19,-8.61,7.26,5.92,0.02,0.96,0.27,5.49,-7.69,-3.72,1742259912.5749068
0.19,-0.93,0.24,-3.3,5.62,9.83,0.02,0.99,0.29,6.29,-5.74,-5.55,1742259912.6932638
0.21,-0.93,0.22,1.53,0.06,6.96,0.03,0.94,0.33,5.25,-6.84,-2.14,1742259912.802845
0.22,-0.93,0.23,1.53,-5.07,4.09,0.01,0.94,0.33,3.36,-20.39,0.24,1742259912.915929
0.22,-0.95,0.18,7.51,-2.87,-5.68,-0.02,0.91,0.33,1.34,-29.24,-0.67,1742259913.033372
0.23,-1.03,0.21,8.24,2.44,1.16,-0.05,1.02,0.29,-5.37,-21.3,-2.14,1742259913.143821
0.24,-0.96,0.18,18.62,-7.69,-3.66,-0.03,0.95,0.26,-15.38,-16.54,-12.02,1742259913.25702
0.22,-0.93,0.18,6.23,-10.38,3.78,-0.03,0.98,0.23,-8.73,-9.03,-7.93,1742259913.3736808
0.22,-0.95,0.16,10.5,-13.73,7.57,0.02,0.94,0.26,-2.69,-20.63,-10.99,1742259913.484947
0.23,-0.93,0.14,1.4,-14.1,10.38,0.04,0.97,0.27,2.87,-13.37,-12.27,1742259913.599143
0.24,-0.95,0.17,5.74,-13.73,4.46,0.05,0.92,0.24,5.25,-6.29,-13.67,1742259913.713086
0.25,-0.93,0.17,8.06,-7.69,1.04,0.08,0.95,0.29,-2.56,-3.85,-6.35,1742259913.832133
0.26,-0.95,0.12,17.4,9.28,-5.19,0.06,0.92,0.27,-8.97,2.01,1.16,1742259913.940825
0.25,-0.97,0.07,7.93,13.18,-3.6,0.06,0.98,0.23,-21.97,6.47,6.23,1742259914.055112
0.23,-0.96,0.03,6.53,14.4,-4.21,0.06,1.0,0.22,-18.86,16.91,7.08,1742259914.168836
0.21,-0.98,0.01,1.77,14.83,-5.25,0.06,0.97,0.15,-18.01,16.85,6.41,1742259914.282836
0.22,-0.99,0.04,0.12,14.71,-1.65,0.05,1.0,0.15,-8.54,9.95,4.03,1742259914.3958669
0.24,-0.97,0.03,-1.34,8.61,4.21,0.03,0.96,0.13,-6.23,5.13,5.62,1742259914.513598
0.24,-0.97,0.03,-1.34,4.15,1.71,0.01,0.96,0.12,-2.5,6.53,5.13,1742259914.623816
0.21,-0.94,0.02,-0.98,2.81,-0.79,0.02,0.97,0.14,-3.36,7.51,2.62,1742259914.737893
0.22,-0.98,0.02,-2.69,-0.31,-0.18,0.03,0.98,0.13,-5.8,5.13,2.62,1742259914.852694
0.2,-0.96,0.01,0.49,-2.62,0.49,0.03,0.98,0.12,-3.78,3.42,2.56,1742259914.965866
0.21,-0.97,0.01,-1.65,-3.66,3.36,0.03,1.0,0.11,-2.38,1.34,2.08,1742259915.079915
0.22,-0.96,0.03,-3.54,-2.14,3.66,0.02,1.01,0.12,6.41,-1.83,-0.98,1742259915.193977
0.22,-0.95,0.02,-3.91,-1.53,1.59,0.02,0.99,0.14,2.26,-2.26,-0.79,1742259915.31327
0.23,-1.01,0.04,1.1,-2.32,-1.71,0.01,0.96,0.12,0.55,-5.55,-4.09,1742259915.4219148
0.22,-0.97,0.04,3.42,2.56,-0.55,0.03,1.02,0.14,-2.69,-4.46,-0.31,1742259915.5358589
0.22,-0.94,0.01,7.87,8.48,-5.25,0.02,0.98,0.13,-6.41,-1.77,6.04,1742259915.649855
0.21,-0.97,-0.01,5.43,7.32,-5.62,-0.01,1.01,0.1,-9.89,-0.79,6.59,1742259915.763972
0.2,-0.99,-0.02,5.62,4.15,-3.6,-0.02,1.0,0.08,-5.98,2.56,3.3,1742259915.877973
0.19,-0.97,-0.04,2.08,1.4,-1.1,-0.02,1.0,0.07,-3.36,3.05,2.08,1742259915.993023
0.19,-0.97,-0.03,-0.55,-1.34,-3.97,-0.02,0.99,0.06,-1.77,0.55,0.49,1742259916.1061308
0.18,-0.96,-0.02,-2.87,2.2,0.06,-0.01,1.06,0.08,-0.43,-1.95,2.08,1742259916.219944
0.18,-0.96,-0.02,-2.2,5.31,-0.43,-0.02,0.99,0.07,0.98,0.61,0.31,1742259916.333907
0.19,-0.97,-0.01,-0.85,3.05,-0.67,-0.02,1.01,0.08,0.37,-0.98,0.37,1742259916.4536479
0.2,-0.97,-0.01,-3.17,-2.44,2.26,-0.03,1.0,0.07,-0.85,-1.4,2.08,1742259916.561941
0.18,-0.97,-0.01,-2.87,-4.64,0.06,-0.03,0.98,0.08,6.71,0.43,-4.39,1742259916.6760252
0.2,-1.0,-0.0,-12.08,-6.23,4.94,-0.02,1.0,0.07,-1.46,-2.99,-0.06,1742259916.79246
0.19,-0.92,0.04,1.65,-8.12,-7.81,-0.01,1.0,0.1,6.84,11.11,-8.12,1742259916.903884
0.18,-0.99,0.03,-3.72,-11.54,-2.44,0.04,0.99,0.08,-22.4,-11.29,0.37,1742259917.017946
0.18,-0.89,0.07,-14.47,-12.45,-4.33,0.03,0.96,0.05,1.22,-30.46,-5.25,1742259917.13447
0.18,-1.08,0.08,-6.16,-1.22,-8.67,0.01,0.98,0.07,12.15,-24.66,6.35,1742259917.245926
0.16,-0.94,0.1,-4.88,-2.01,4.03,-0.03,1.13,0.05,7.14,-7.81,-7.63,1742259917.359858
0.17,-0.98,0.07,9.58,4.7,-0.55,-0.0,0.95,0.08,-5.25,6.77,-0.12,1742259917.473771
0.17,-0.98,0.07,2.93,17.03,-2.69,-0.0,1.03,0.1,1.16,21.55,6.23,1742259917.587772
0.15,-0.98,0.05,3.85,11.47,-4.64,-0.02,0.99,0.08,-0.92,17.27,10.99,1742259917.701717
0.16,-0.97,0.05,5.07,13.67,-4.82,-0.02,1.0,0.08,-3.42,8.67,4.76,1742259917.815718
0.12,-0.98,0.01,11.35,25.39,-5.68,-0.04,0.99,0.07,-12.02,-3.05,11.23,1742259917.932638
0.15,-0.98,-0.01,16.85,19.78,-5.13,-0.1,1.0,0.04,-0.18,-9.83,15.44,1742259918.043752
0.12,-0.99,-0.06,13.79,11.23,-3.23,-0.12,1.01,0.04,-19.41,-0.12,9.77,1742259918.157859
0.12,-0.98,-0.07,7.02,9.03,-6.96,-0.12,0.98,0.01,-11.41,-5.86,6.9,1742259918.273095
0.13,-0.98,-0.09,1.77,-3.17,-3.91,-0.14,1.01,-0.02,-8.24,2.69,2.38,1742259918.3859441
0.08,-0.99,-0.09,3.42,-12.76,0.24,-0.15,1.01,-0.04,-1.28,5.62,1.34,1742259918.499864
0.08,-0.98,-0.06,-9.58,-9.83,-5.74,-0.09,0.96,-0.01,11.6,-9.52,-7.45,1742259918.614041
0.12,-0.99,-0.03,0.06,5.25,-3.78,-0.09,0.96,-0.01,-17.58,-6.35,2.32,1742259918.732279
0.04,-0.98,-0.07,-4.64,5.19,-1.04,-0.14,1.0,-0.05,-6.29,10.25,2.62,1742259918.842006
0.08,-0.99,-0.05,-11.47,8.24,1.28,-0.1,0.99,-0.03,22.22,-19.71,-2.87,1742259918.955889
0.09,-0.96,-0.03,-2.32,6.47,1.34,-0.12,1.03,-0.0,0.67,-6.04,1.16,1742259919.071799
0.1,-0.99,-0.03,7.63,4.39,0.0,-0.13,0.97,-0.03,-10.19,3.11,0.98,1742259919.183604
0.09,-0.99,-0.05,11.47,4.03,-4.58,-0.14,0.99,-0.03,-8.12,0.49,3.97,1742259919.297714
0.07,-1.0,-0.08,1.89,-1.04,-1.53,-0.13,0.99,-0.06,-8.12,3.66,4.52,1742259919.4124448
0.06,-0.98,-0.07,-4.39,-2.93,0.31,-0.14,1.0,-0.07,-1.53,1.89,-0.92,1742259919.525849
0.07,-0.98,-0.06,-0.06,-2.56,0.61,-0.14,0.99,-0.07,4.52,1.1,-1.95,1742259919.639819
0.07,-0.98,-0.07,1.83,-1.28,-2.14,-0.14,0.99,-0.05,5.8,3.42,-0.85,1742259919.75393
0.07,-0.99,-0.06,0.55,3.78,-2.14,-0.11,0.98,-0.04,0.24,0.79,0.55,1742259919.871988
0.07,-0.99,-0.06,-2.5,0.18,0.67,-0.13,1.0,-0.05,1.1,-1.59,1.59,1742259919.981931
0.06,-0.99,-0.06,-1.16,2.26,-1.16,-0.15,0.99,-0.04,8.3,0.92,-1.77,1742259920.095799
0.06,-0.98,-0.06,-2.14,1.59,-1.1,-0.13,1.0,-0.02,5.68,2.87,-2.81,1742259920.21231
0.05,-0.99,-0.06,-2.44,2.26,-4.03,-0.13,0.99,-0.02,-0.92,1.1,-0.98,1742259920.323861
0.05,-0.99,-0.05,-0.85,5.86,-3.42,-0.13,1.0,-0.02,0.49,0.92,-1.71,1742259920.437835
0.05,-0.99,-0.05,-3.11,6.84,2.44,-0.12,1.01,-0.01,-0.18,0.73,0.49,1742259920.551729
0.06,-1.0,-0.04,0.06,7.75,0.31,-0.12,0.96,-0.03,2.2,-0.24,-0.61,1742259920.6656399
0.05,-0.98,-0.04,-1.59,9.64,0.92,-0.13,0.98,-0.02,2.62,-0.98,1.4,1742259920.779768
0.05,-0.99,-0.04,-10.19,11.54,0.06,-0.14,0.99,-0.02,1.83,0.85,1.46,1742259920.893609
0.04,-0.99,-0.04,-2.62,7.39,-2.44,-0.13,0.99,-0.0,1.83,1.53,0.18,1742259921.0118191
0.05,-0.98,-0.02,-0.73,1.59,-0.85,-0.13,1.0,-0.0,0.43,-3.05,0.0,1742259921.121804
0.04,-0.98,-0.02,8.97,-0.37,-7.2,-0.14,0.96,-0.01,-2.81,-7.26,3.17,1742259921.2358348
0.02,-1.02,-0.04,14.34,2.44,-11.11,-0.15,0.97,-0.03,-13.06,-2.5,14.71,1742259921.35241
0.0,-1.0,-0.07,1.4,-1.59,-1.22,-0.19,1.01,-0.06,-11.6,3.05,8.18,1742259921.463755
0.01,-0.97,-0.06,10.13,0.61,-7.81,-0.19,0.97,-0.07,-0.73,2.69,0.0,1742259921.577636
-0.02,-1.0,-0.1,10.93,0.79,-7.69,-0.19,0.99,-0.07,-12.51,3.91,9.58,1742259921.692839
-0.03,-0.99,-0.12,1.22,-4.39,-0.67,-0.22,0.99,-0.1,-7.2,6.23,3.48,1742259921.806245
-0.02,-0.99,-0.1,-1.22,-1.28,0.43,-0.21,0.99,-0.09,1.1,0.55,-1.28,1742259921.919799
-0.02,-0.99,-0.1,-1.04,0.06,1.28,-0.21,0.98,-0.1,1.22,0.85,-1.34,1742259922.0337238
-0.03,-0.98,-0.1,0.12,-0.67,-2.5,-0.21,0.95,-0.1,3.66,0.85,-1.22,1742259922.1477828
-0.03,-0.99,-0.11,0.0,-3.48,1.34,-0.21,0.98,-0.09,1.34,-0.49,1.95,1742259922.2617338
-0.02,-0.99,-0.1,-3.78,-1.59,2.2,-0.21,0.97,-0.09,2.81,-0.43,-1.65,1742259922.375804
-0.02,-0.98,-0.1,0.06,-0.06,-0.43,-0.21,0.96,-0.08,1.89,2.26,-2.2,1742259922.4925609
-0.03,-0.99,-0.1,-1.1,-0.98,1.4,-0.21,0.98,-0.08,0.12,3.6,0.67,1742259922.60382
-0.02,-0.99,-0.09,-3.36,-0.37,2.08,-0.21,0.98,-0.08,2.32,0.49,-0.61,1742259922.717791
-0.02,-0.99,-0.09,-0.61,6.04,-0.79,-0.2,0.97,-0.07,2.26,-2.99,-0.55,1742259922.832397
-0.02,-0.99,-0.09,0.0,6.84,1.83,-0.21,0.98,-0.08,0.0,-4.46,2.75,1742259922.945635
-0.02,-1.01,-0.1,-5.55,2.99,3.66,-0.22,0.98,-0.08,2.32,-1.71,0.67,1742259923.059755
0.01,-0.98,-0.06,-8.48,8.06,3.17,-0.22,0.99,-0.06,8.54,-4.76,-2.5,1742259923.1758342
0.0,-0.99,-0.06,-3.17,4.46,0.43,-0.22,0.96,-0.04,6.84,-1.22,-5.0,1742259923.2876601
0.0,-0.99,-0.06,-3.72,-1.89,0.43,-0.2,0.99,-0.04,2.69,2.5,-2.81,1742259923.401628
0.0,-0.99,-0.04,-8.18,-0.61,1.22,-0.19,0.99,-0.04,2.56,0.67,-3.48,1742259923.5156329
0.0,-0.99,-0.02,-5.25,2.56,0.37,-0.18,0.98,-0.03,5.07,1.4,-7.02,1742259923.6338718
-0.01,-0.99,-0.03,-2.26,1.16,0.79,-0.17,0.98,-0.03,1.22,0.37,-2.32,1742259923.743829
-0.0,-1.0,-0.01,-6.96,4.94,-0.12,-0.17,1.0,-0.02,3.36,-0.98,-2.14,1742259923.857743
0.01,-0.99,-0.0,-1.89,2.01,0.31,-0.17,0.99,-0.0,1.22,0.43,-4.03,1742259923.971808
-0.0,-0.99,0.01,-2.93,-5.31,-0.06,-0.16,0.99,-0.02,-0.37,4.27,-3.85,1742259924.085711
0.0,-0.98,0.02,-2.87,-0.18,0.92,-0.13,0.99,0.0,2.56,-3.11,-3.97,1742259924.199639
0.01,-0.99,0.02,-1.4,5.68,0.92,-0.13,1.0,0.01,1.89,-1.89,-1.1,1742259924.313525
0.01,-0.99,0.02,0.24,3.72,1.28,-0.14,0.99,0.0,1.34,-2.38,0.06,1742259924.4273028
0.02,-0.98,0.01,1.77,-0.06,2.01,-0.14,0.99,0.0,1.4,-2.81,1.16,1742259924.5403671
0.02,-1.0,0.01,2.56,1.1,3.11,-0.14,0.98,0.0,2.81,-1.53,2.44,1742259924.654745
0.02,-1.0,0.0,0.67,5.86,0.37,-0.15,0.99,0.01,3.54,-6.1,1.53,1742259924.766561
0.03,-0.99,0.0,1.95,5.13,-0.06,-0.16,0.98,0.01,0.37,-8.91,0.24,1742259924.880356
0.03,-0.99,-0.0,1.89,1.34,-0.31,-0.17,0.99,0.01,0.18,-3.17,1.95,1742259924.993502
0.02,-0.99,-0.0,0.67,-4.94,-1.71,-0.17,0.99,0.01,-1.16,2.56,0.12,1742259925.10763
0.01,-0.99,-0.0,-0.49,-5.43,-1.89,-0.16,1.0,0.01,-1.71,2.81,-1.46,1742259925.22171
0.01,-0.99,-0.01,1.1,-1.95,-1.1,-0.15,1.0,0.0,-1.53,2.87,-1.1,1742259925.3356538
0.01,-1.0,-0.01,0.0,0.24,0.37,-0.15,0.99,-0.0,-0.43,1.28,0.24,1742259925.452445
0.02,-0.99,0.0,-2.26,2.62,0.31,-0.15,0.99,-0.01,1.46,-1.1,-0.37,1742259925.563381
0.01,-0.99,0.0,-1.77,3.78,1.28,-0.15,0.98,-0.0,3.23,-1.22,-1.71,1742259925.677446
0.03,-0.99,0.01,-2.5,2.38,1.89,-0.15,0.99,0.01,2.14,-2.44,-1.04,1742259925.792219
0.03,-0.99,0.01,-2.01,0.31,0.67,-0.14,0.99,0.01,0.92,-1.59,0.31,1742259925.9054332
0.03,-0.99,0.01,0.24,-4.52,-0.31,-0.16,0.99,0.01,-0.43,1.22,-0.12,1742259926.019496
0.02,-0.99,0.01,-0.61,-4.64,-0.85,-0.15,0.99,0.01,-1.16,4.88,-0.61,1742259926.133771
0.01,-0.99,0.01,-0.18,-1.28,-1.1,-0.14,0.99,0.01,-0.79,5.43,-1.28,1742259926.2476501
0.01,-0.99,0.02,1.04,1.16,-0.12,-0.13,1.0,0.01,-0.06,0.85,-0.49,1742259926.36145
0.01,-0.99,0.01,2.32,3.66,0.49,-0.14,1.0,0.01,2.01,-0.55,1.04,1742259926.4752178
0.02,-0.99,0.01,-0.12,3.11,1.34,-0.15,0.99,0.01,1.46,-2.32,2.5,1742259926.592569
0.03,-0.99,0.0,-0.92,0.49,0.61,-0.16,0.98,0.01,0.67,-0.85,0.67,1742259926.7013261
0.03,-0.99,0.01,0.12,-0.98,-0.37,-0.15,0.98,0.02,-0.31,0.92,-0.43,1742259926.815433
0.02,-0.99,0.01,0.67,-2.56,-0.12,-0.15,0.99,0.01,-0.73,3.23,-0.12,1742259926.930946
0.02,-0.98,0.01,1.89,-2.01,0.0,-0.15,0.99,0.01,-0.92,2.26,0.43,1742259927.043287
0.03,-1.0,0.0,5.07,-1.71,-1.34,-0.16,0.99,0.01,-4.15,1.71,2.62,1742259927.1574311
0.02,-0.99,-0.01,6.35,-8.61,-1.53,-0.17,0.99,-0.0,-3.91,3.6,2.69,1742259927.271519
0.02,-1.0,-0.02,3.3,-11.66,0.0,-0.17,1.0,0.0,-0.79,5.31,1.53,1742259927.4135108
0.01,-0.99,-0.02,0.0,-4.94,-0.24,-0.16,0.99,0.0,-0.73,7.02,-0.79,1742259927.4995499
0.01,-0.99,-0.02,-0.61,-0.98,-0.06,-0.16,0.99,0.0,-0.31,5.55,-1.53,1742259927.613591
0.01,-0.99,-0.02,-0.55,0.85,1.16,-0.16,0.99,-0.0,0.61,0.55,-0.12,1742259927.7273622
0.02,-0.99,-0.02,-2.01,3.17,1.46,-0.16,0.99,-0.0,2.2,-2.2,0.43,1742259927.8413498
0.03,-0.99,-0.01,-0.79,1.83,-0.18,-0.17,0.98,0.01,0.92,-3.48,-0.31,1742259927.9555168
0.02,-0.99,-0.01,-0.85,-1.83,0.0,-0.18,0.98,0.0,-0.12,-0.24,-0.98,1742259928.071703
0.02,-0.99,-0.01,-3.23,-4.03,0.67,-0.16,0.99,0.01,0.49,2.32,-1.71,1742259928.183527
0.02,-1.0,-0.0,-3.78,-3.97,1.59,-0.16,0.99,0.01,2.69,3.36,-1.53,1742259928.297533
0.01,-0.99,0.0,-2.2,-2.2,0.06,-0.15,0.99,0.02,3.36,2.56,-4.09,1742259928.411448
0.03,-0.99,0.01,-1.65,0.49,-0.79,-0.15,0.98,0.01,-0.55,0.18,-0.98,1742259928.525409
0.02,-0.99,0.01,-0.06,1.04,0.61,-0.15,0.99,0.02,0.79,2.69,-0.37,1742259928.639321
0.03,-0.99,0.01,0.61,-2.08,0.43,-0.15,0.99,0.02,0.85,3.42,0.24,1742259928.753322
0.02,-0.99,0.01,0.24,-2.08,0.43,-0.15,0.99,0.02,0.43,3.85,0.0,1742259928.8673239
0.02,-0.99,0.01,0.24,-1.53,0.06,-0.15,0.98,0.02,0.0,2.69,-0.06,1742259928.981379
0.02,-0.99,0.01,0.55,0.12,0.12,-0.15,0.99,0.02,0.0,1.4,-0.24,1742259929.0952141
0.02,-0.99,0.01,0.31,1.4,-0.24,-0.15,0.99,0.03,0.79,-0.73,0.18,1742259929.2115169
0.03,-0.99,0.01,-0.31,1.22,0.61,-0.15,0.99,0.02,1.77,-0.67,0.55,1742259929.3222022
0.02,-0.99,0.01,-0.61,-0.61,-0.24,-0.15,0.98,0.02,0.31,-0.24,-0.37,1742259929.436408
0.03,-0.99,0.01,-0.79,-0.49,1.04,-0.16,0.99,0.02,0.37,-0.98,-0.12,1742259929.5513458
0.03,-0.99,0.01,-1.53,-0.24,3.6,-0.15,0.99,0.03,2.56,1.22,-0.67,1742259929.6643531
0.03,-0.99,0.01,1.28,0.18,2.14,-0.14,0.99,0.03,3.6,2.32,-0.55,1742259929.778292
0.04,-0.99,0.01,0.67,-0.73,2.56,-0.14,0.99,0.04,1.16,0.43,2.08,1742259929.892267
0.05,-0.98,0.01,0.0,-0.24,2.81,-0.15,1.0,0.04,2.26,2.08,1.1,1742259930.0061922
0.05,-0.99,0.0,1.65,-1.1,2.93,-0.16,0.98,0.05,1.46,3.54,2.32,1742259930.120272
0.06,-0.98,0.01,0.67,-2.87,2.75,-0.16,0.99,0.05,1.22,2.87,1.89,1742259930.234261
0.06,-0.99,0.01,0.49,-2.01,0.79,-0.16,0.99,0.06,0.98,1.89,0.24,1742259930.351858
0.06,-0.98,0.0,1.1,-1.16,-0.55,-0.17,0.98,0.06,-0.55,1.04,0.49,1742259930.462303
0.07,-1.0,0.0,1.89,0.73,-0.92,-0.17,0.99,0.06,-1.77,0.06,2.56,1742259930.576266
0.06,-0.99,-0.0,0.37,0.12,0.92,-0.17,0.99,0.05,-0.24,-0.92,0.67,1742259930.6914098
0.06,-0.99,0.0,-0.24,-0.43,-0.31,-0.17,0.98,0.05,-0.37,-2.5,-0.73,1742259930.804406
0.06,-0.99,-0.01,0.49,-0.37,-0.73,-0.18,0.98,0.05,-0.98,-2.01,-0.18,1742259930.918327
0.06,-0.99,-0.0,0.18,-0.73,0.12,-0.17,0.99,0.04,-0.85,-0.49,-0.24,1742259931.0322728
0.05,-0.99,-0.0,0.18,-0.85,-0.79,-0.17,0.98,0.04,-0.43,-0.43,-0.37,1742259931.1463318
0.05,-0.99,-0.0,-0.37,0.31,-1.22,-0.17,0.98,0.04,-0.85,-0.61,-0.92,1742259931.260461
0.05,-0.99,-0.0,0.18,0.92,-1.16,-0.17,0.98,0.04,-1.04,-0.43,-1.16,1742259931.374314
0.04,-0.98,-0.01,0.24,-0.67,-0.49,-0.17,0.99,0.04,-1.1,0.31,-0.98,1742259931.491531
0.05,-0.99,-0.0,1.28,-0.55,-1.46,-0.16,0.99,0.04,-0.37,-0.24,-0.31,1742259931.602444
0.05,-0.99,-0.01,1.71,0.31,-2.2,-0.16,0.99,0.04,-1.83,0.85,1.22,1742259931.7186801
0.04,-0.99,-0.01,0.18,-0.79,-0.55,-0.17,0.99,0.03,-1.71,1.22,0.06,1742259931.832104
0.04,-0.99,-0.0,-1.16,-1.34,-0.06,-0.17,0.99,0.03,0.24,0.55,-0.73,1742259931.944423
0.04,-0.99,-0.0,0.85,-0.67,-0.43,-0.16,0.99,0.03,0.12,0.55,-1.04,1742259932.0583181
0.04,-0.99,-0.01,2.69,-0.92,-1.22,-0.16,0.98,0.02,-1.46,0.49,0.37,1742259932.175055
0.03,-0.99,-0.01,0.37,-0.37,-0.61,-0.16,0.99,0.03,-1.1,0.49,0.85,1742259932.286481
0.03,-0.99,-0.01,-0.31,0.0,0.06,-0.17,0.98,0.02,0.0,0.06,-0.18,1742259932.400254
0.04,-0.99,-0.01,-0.31,-0.37,0.43,-0.17,0.99,0.02,0.12,-0.37,-1.04,1742259932.5143301
0.04,-0.99,-0.01,0.61,-0.79,0.06,-0.17,0.99,0.02,-0.18,0.06,0.31,1742259932.628368
0.04,-0.99,-0.01,0.79,-0.18,-0.73,-0.17,0.99,0.02,0.12,0.43,0.0,1742259932.742317
0.03,-0.99,-0.02,0.12,-0.18,-0.61,-0.17,0.99,0.02,-0.31,-0.12,0.0,1742259932.8563058
0.03,-0.99,-0.01,-0.31,0.06,-0.18,-0.17,0.99,0.02,0.06,-0.43,-0.24,1742259932.971999
0.03,-0.99,-0.01,-0.06,-0.18,0.12,-0.17,0.99,0.02,0.49,0.18,-0.06,1742259933.084331
0.04,-0.99,-0.01,0.24,-0.37,0.06,-0.16,0.99,0.02,0.31,-0.12,0.18,1742259933.198272
0.03,-0.99,-0.02,0.24,-0.43,-0.12,-0.17,0.99,0.02,0.24,0.12,-0.06,1742259933.312305
0.04,-1.0,-0.01,-1.53,-0.06,0.92,-0.17,0.99,0.02,0.98,-0.12,-0.67,1742259933.4263492
0.04,-0.99,-0.01,-2.38,-2.08,2.87,-0.17,0.99,0.02,4.64,-2.01,-3.23,1742259933.5403168
0.05,-0.99,-0.0,-2.26,-1.46,3.72,-0.15,0.99,0.04,4.21,-1.53,-3.66,1742259933.65435
0.06,-1.0,0.01,-4.09,-0.37,5.0,-0.15,0.99,0.05,4.52,-0.67,-3.3,1742259933.7705889
0.06,-1.0,0.03,-8.67,-5.98,8.24,-0.15,0.99,0.04,1.4,-2.5,-7.69,1742259933.8822641
0.09,-1.02,0.05,-17.76,13.49,14.65,-0.09,0.98,0.05,-1.16,2.01,-13.85,1742259933.9961548
0.12,-0.93,0.07,-18.49,-6.53,23.32,-0.11,1.01,0.02,0.73,-12.15,-13.43,1742259934.112897
0.17,-0.92,0.12,-13.43,-14.28,23.99,-0.14,1.02,0.06,26.18,8.91,-12.39,1742259934.224135
-0.04,-0.82,0.29,-65.43,163.57,59.02,-0.32,0.85,0.41,40.28,38.09,22.03,1742259934.338151
0.21,-0.81,-0.02,-57.5,113.34,222.53,0.06,0.82,-0.02,-61.4,40.47,-79.47,1742259934.4521222
0.49,-0.59,-0.15,-56.88,101.07,344.12,0.09,0.86,0.03,24.54,87.65,-81.97,1742259934.566179
0.41,0.05,-0.75,22.64,-35.64,442.26,0.22,1.05,-0.08,36.01,76.05,-283.75,1742259934.680054
-0.45,1.17,0.85,388.73,-344.06,79.41,0.77,0.14,0.01,-37.96,22.34,-280.46,1742259934.794007
-0.25,0.28,1.4,133.61,-74.77,7.81,1.13,-0.41,0.0,-7.69,-49.5,-197.08,1742259934.907028
-0.06,0.13,1.07,16.11,-49.62,-16.85,0.93,-0.6,0.24,10.19,-33.33,-117.31,1742259935.021128
0.02,0.11,1.21,-20.14,4.82,-1.16,0.83,-0.67,0.29,-5.13,-49.74,-57.37,1742259935.134999
