L-AccX,L-AccY,L-AccZ,L-GyrX,L-GyrY,L-GyrZ,R-AccX,R-AccY,R-AccZ,R-GyrX,R-GyrY,R-GyrZ,timestamp
0.00125,0.0075,0.115,-0.0006725,0.0036324998,0.00023,0.065,0.025,0.0775,-0.0166325,-0.02069,-0.009002499,1742099390.92526
0.005,0.00375,0.1275,-0.0030375,-0.0003825,0.001755,-0.15875,-0.06625,0.215,-0.0219275,-0.010605,-0.0101175,1742099391.042059
0.0075,0.00875,0.11875,0.0007475,-0.0001375,-0.00059500005,0.0075,-0.00125,0.10625,0.0081025,0.011825,0.014755,1742099391.1528041
0.005,0.00875,0.12125,-0.0012975,3e-05,-0.0001225,0.11875,0.0075,0.08125,-0.01358,0.0027774998,0.0018,1742099391.2668018
0.00125,0.00875,0.12375,-0.00032,-0.00116,-0.0006725,0.12625,0.00875,0.09125,-0.0087425,0.0012675,0.0036475,1742099391.3809102
0.005,0.005,0.12875,0.003205,-0.0019375,-0.00032,0.10875,0.01625,0.0725,0.00499,-0.012802499,-0.0036624998,1742099391.4947982
-0.0025,0.00125,0.12625,-0.00357,-0.0001375,0.0011900001,-0.145,0.00125,0.19625,-0.00592,-0.026137501,-0.0246875,1742099391.60892
0.00625,0.00875,0.12125,-0.000565,-0.00171,-0.00064,-0.07625,0.0025,0.12375,0.0331575,0.0155475,0.028747499,1742099391.725915
-0.0025,0.01,0.1225,-0.00154,-0.00033500002,-0.0007175,0.06625,0.01125,0.10375,-0.007035,0.0121775,0.0130475,1742099391.836986
-0.00125,0.00625,0.1225,-0.000245,0.0004425,0.0001375,0.15125,0.01125,0.0875,-0.0087575,0.0059975,-0.0025175,1742099391.9550982
-0.00125,0.01125,0.1225,0.00023,0.00148,-0.0002125,0.1325,0.0325,0.055,0.012025,0.00033500002,0.0024249998,1742099392.064779
0.00375,0.0075,0.13,0.002685,0.00557,-0.0014500001,0.02125,0.01875,0.0925,0.002,-0.0243825,-0.02571,1742099392.181277
0.00875,0.005,0.1275,0.0020599999,0.00467,-0.0020899998,-0.13625,-0.02625,0.21625,-0.0186,-0.006515,-0.0137775,1742099392.294778
0.01875,0.0025,0.115,-0.001175,0.00064,-0.000305,-0.03625,-0.0025,0.1075,0.0089275,0.010375,0.029845,1742099392.405807
0.01375,0.01125,0.11625,-0.00079250004,0.00174,-0.0004425,0.05625,0.01625,0.1075,-0.0001525,0.0075525,0.01004,1742099392.519664
0.0175,0.00125,0.1225,0.000535,-0.00029,-0.000825,0.13375,0.0075,0.08625,-0.00435,0.012435,-0.00058,1742099392.640061
0.015,0.01125,0.1175,0.000855,0.0004425,-0.0011900001,0.14875,0.015,0.075,-0.00084,-0.00059500005,0.0040599997,1742099392.747802
0.025,-0.0075,0.125,-0.00415,0.0022725,0.0010525,0.0725,0.07,0.02625,-0.010895001,-0.0301675,-0.046525,1742099392.861689
0.0125,0.02125,0.1275,0.0018625,0.005935,-0.003555,-0.23125,0.125,0.3325,-0.0992575,-0.015855,0.022965001,1742099392.9758139
0.025,-0.00125,0.12125,-0.00122,-0.0020299999,-0.00087,-0.02625,0.0375,0.10875,0.0243075,-0.0028074998,0.04042,1742099393.089916
0.02,0.0125,0.11875,-0.00064,6e-05,0.00052,0.04,0.04875,0.1225,-0.00537,0.0060875,0.008895,1742099393.203686
0.02,0.00625,0.12625,0.00035,0.0004275,0.0010825,0.09875,0.00625,0.11625,-0.0074925,0.00348,-0.0034325,1742099393.317781
0.02125,0.01375,0.12625,-0.0001375,0.008575,0.000565,0.11625,0.03625,0.11375,-0.0092,0.0139,-0.006455,1742099393.435725
0.035,0.0025,0.09375,-0.0142675,-0.0048525,0.0093375,0.08875,0.0475,0.0675,-0.0087425,-0.0116875,-0.050612498,1742099393.544672
0.01,0.02875,0.15875,-0.001405,0.0063625,0.0101475,-0.215,-0.0925,0.3075,-0.07898001,-0.022094999,-0.01442,1742099393.65997
0.03375,0.0525,0.0875,0.0001975,0.0102375,-0.0003975,-0.05375,0.00625,0.1175,0.0414275,-0.0089724995,0.051512502,1742099393.775132
0.04125,0.02875,0.11,0.0007625,-0.001175,-0.004165,0.04375,0.00625,0.13875,-0.014695,0.0060875,0.0223225,1742099393.88466
0.04125,0.02,0.1175,-0.0007625,0.0012975,-0.00052,0.1175,0.00875,0.1225,-0.0118725,0.0042275,0.0016775,1742099393.998594
0.035,0.03875,0.1125,0.0040125,-6e-05,0.00264,0.11,0.00625,0.08,-0.00966,0.0143425,-0.006455,1742099394.119322
0.0425,0.03,0.10625,-0.001115,0.0,0.001235,0.13375,0.04,0.04625,-0.00052,-0.022979999,-0.042205002,1742099394.225656
0.0275,0.04,0.14875,0.0041199997,-0.000825,0.0006725,-0.24625,-0.13,0.24625,-0.102845,-0.0122375,-0.0343625,1742099394.339623
0.04,0.04625,0.09375,-0.0020899998,-0.0008075,-0.003585,-0.055,0.0425,0.12375,0.027695,-0.010545,0.0576175,1742099394.455849
0.03875,0.0225,0.115,0.00023,-0.00055,-0.00734,0.04375,0.0275,0.1275,-0.007065,0.0007775,0.0189825,1742099394.567612
0.04125,0.02625,0.11125,-0.0009625,-0.00048750002,-0.000365,0.0725,0.005,0.1225,-0.0098425,-0.00048750002,0.00116,1742099394.682131
0.04,0.03375,0.1125,0.001755,-0.001145,0.0021525,0.09,0.00625,0.11,0.000535,0.0057375003,-0.003005,1742099394.796664
0.035,0.03125,0.11,0.0052024997,0.0004125,-0.0009925,0.1275,0.02625,0.09625,0.002045,-0.010162501,-0.0139775,1742099394.908565
0.03375,0.03125,0.1175,0.011855,-0.00731,-0.0043175,-0.11125,0.01375,0.12875,-0.026855,0.01712,-0.081557505,1742099395.0228639
0.03,0.02625,0.11625,-0.00151,-0.0041199997,-0.003875,-0.0775,-0.08875,0.08375,0.0596625,0.0154725,0.04602,1742099395.141634
0.02375,0.015,0.125,0.0033725,-0.00714,-0.0072625,-0.0225,-0.01375,0.14,-0.012207501,-0.0110174995,0.0285175,1742099395.250678
0.02,0.00875,0.1225,-0.0038599998,-0.00264,-0.0013275,0.0325,-0.01125,0.1325,-0.00142,-0.003525,0.01526,1742099395.36481
0.02625,0.01625,0.12375,-0.0058125,0.0065774997,0.0022274998,0.08875,0.02125,0.12875,-0.00154,0.010375,0.0033725,1742099395.478577
0.02875,0.025,0.10875,-0.0012825,0.0019675,0.00048750002,0.11125,0.03125,0.09,0.00586,-0.00232,-0.003905,1742099395.599128
0.02875,0.0225,0.1275,0.0009625,-0.0016925,0.0015575,-0.04125,0.06875,0.11875,-0.004105,0.011445,-0.067870006,1742099395.705489
0.02625,0.025,0.115,-0.0018775001,0.0054775,9.25e-05,-0.0825,-0.03625,0.10375,0.070892505,0.02884,0.0216825,1742099395.8186638
0.02625,0.01875,0.11875,0.0042725,0.0004125,-0.0038299998,-0.0075,0.01625,0.11625,0.0010675,-0.0121625,0.0234675,1742099395.937995
0.0375,0.0125,0.11125,-0.0013425,0.00125,-0.0021675,0.0225,-0.0225,0.11375,0.0010375,0.002915,0.0099174995,1742099396.0468218
0.03125,0.01375,0.12,0.0009925,4.5e-05,0.0013575,0.065,-0.005,0.1175,0.0009775,0.008117501,0.0095375,1742099396.162271
0.03,0.02375,0.12125,-0.0006875,-0.00035,0.0018,0.09375,0.0125,0.1,-0.00032,-0.0021825,0.00592,1742099396.27676
0.03,0.03,0.11,-0.00045750002,-0.0034025,0.0002125,0.09,0.01625,0.11,0.005585,-0.01033,-0.0061350004,1742099396.387591
0.0275,0.01875,0.12375,-0.00093,-0.0028225,0.0022425,-0.06125,0.0125,0.1325,-0.0051875,0.0080875,-0.0523675,1742099396.501586
0.02375,0.035,0.1175,-0.0018300001,0.0036925,0.00142,-0.1,-0.035,0.1125,0.059447497,0.0036,0.030257499,1742099396.620488
0.02625,0.02125,0.12125,0.0023800002,-0.00122,-0.0027325,-0.03375,0.01375,0.13125,-0.0009,-0.0178375,0.0305325,1742099396.728597
0.03125,0.02125,0.11125,-0.0034175,0.00084,-0.0012975,0.01875,-0.0375,0.1275,-0.0085,0.0018300001,0.01175,1742099396.8427079
0.02875,0.0175,0.11875,0.000565,-0.0018,0.00113,0.08625,0.0075,0.12,-0.0016775,0.01416,0.0046550003,1742099396.957986
0.02625,0.02875,0.12125,0.001175,0.0014500001,0.0013575,0.09625,0.005,0.0975,-0.0012975,-0.0033875,-0.00093,1742099397.0695438
0.02875,0.01875,0.12,0.0040125,-0.0016325001,-0.0022274998,0.04875,0.01125,0.11875,0.0079499995,-0.0109399995,-0.02774,1742099397.183737
0.01875,0.01875,0.13375,0.0027474998,0.0027,0.0007325,-0.2325,-0.13375,0.2175,-0.0528575,0.0063475,-0.035767503,1742099397.297885
0.03375,0.02625,0.11375,-0.00091500004,0.001235,-0.0010975,-0.06375,0.02625,0.1075,0.0039825,-0.00998,0.030792499,1742099397.418653
0.02625,0.02125,0.1225,0.0021199998,0.00055,-0.0029000002,-0.00625,-0.01875,0.11125,-0.0074,-0.0055225003,0.008575,1742099397.524462
0.0375,0.01375,0.1075,-0.00174,0.00091500004,-0.0006725,0.05125,-0.04625,0.12875,-0.0030675002,0.0007475,0.0001825,1742099397.642213
0.0325,0.0225,0.1175,0.0015875,-0.0018150001,0.0027925,0.09625,-0.0225,0.11125,0.00079250004,0.002655,0.0028225,1742099397.7514691
0.02875,0.0175,0.11625,0.0003825,-0.0009925,-0.00125,0.09125,0.0125,0.125,0.0010975,-0.003235,-0.0135200005,1742099397.865673
0.0225,0.0225,0.135,0.0013875001,-0.00148,0.003005,-0.23875,-0.11,0.17625,-0.052415002,0.01834,-0.0688925,1742099397.9796128
0.03,0.0325,0.11375,-0.002395,0.0027474998,-0.0007775,-0.055,0.06,0.1175,0.0121925,-0.01802,0.039077498,1742099398.101077
0.0225,0.025,0.12125,0.0042125,-0.00061,-0.0039675,-0.0225,0.005,0.12375,-0.0078724995,-0.004135,0.020295,1742099398.207798
0.035,0.0175,0.10875,-0.00328,0.000885,-0.001175,0.08125,-0.02375,0.12375,-0.0021825,0.0076,0.0034625002,1742099398.321592
0.03,0.01875,0.11875,-0.001115,-0.000535,0.00348,0.08875,-0.01625,0.13375,0.0039375,0.0016925,0.0019075,1742099398.439567
0.03125,0.03,0.10625,-0.0048825,-0.0006875,0.00064,0.10125,0.035,0.115,0.0043025,-0.0072475,-0.0248575,1742099398.549629
0.01875,0.02375,0.145,0.0063024997,-0.00016750001,0.000625,-0.2725,-0.1125,0.23,-0.082839996,-0.002135,-0.0622875,1742099398.663646
0.04,0.0325,0.1,-0.003175,0.0016775,-0.0016325001,-0.0225,0.10125,0.10625,0.0061350004,-0.018477501,0.0299525,1742099398.778749
0.0225,0.025,0.12375,0.0028675,-0.0018625,-0.00351,-0.03625,-0.00375,0.12375,-0.0009625,-0.0132,0.0104975,1742099398.899557
0.03875,0.015,0.11375,-0.0033875,0.0037525,-7.75e-05,0.045,-0.03125,0.14375,-0.004395,-0.0039375,0.010284999,1742099399.005603
0.04125,0.00125,0.115,0.0188,-9.25e-05,0.0,0.08125,-0.01,0.13375,-0.0048975,0.0122375,-0.00293,1742099399.122145
0.03625,0.00625,0.1125,0.0024875,0.0012675,0.0039375,0.085,0.035,0.0975,-0.000245,-0.008515,-0.012345,1742099399.233304
0.03125,0.0,0.13375,0.000945,-0.001235,0.0042125,-0.235,-0.03875,0.23375,-0.05484,0.019485,-0.0667575,1742099399.346424
0.04375,0.025,0.10375,-0.0072475,0.0036324998,0.00058,-0.0975,0.0525,0.11,0.0009925,-0.018432502,0.0408325,1742099399.4598432
0.035,0.00625,0.12,-0.0019075,-0.003005,-0.005065,-0.03875,0.0175,0.125,-0.002335,-0.016432501,0.03354,1742099399.5807319
0.03625,0.00875,0.115,0.001725,-0.0042875,-0.000565,0.03125,0.02625,0.16375,0.009582501,0.008407501,0.0113525,1742099399.686497
0.03375,0.0125,0.11625,-0.000655,-0.0018625,0.002045,0.0575,0.0075,0.12625,0.0024875,0.0155175,0.00055,1742099399.800525
0.0275,0.01625,0.12125,-0.001115,1.5e-05,-0.001435,0.0725,0.01125,0.11,0.0022725,-0.0028225,-0.0087749995,1742099399.918802
0.0325,0.01375,0.12125,-0.0018475,-0.000535,-0.000825,-0.01,0.06875,0.1225,-0.016479999,0.010085,-0.065735,1742099400.028595
0.03125,0.01625,0.1275,0.00045750002,0.0006725,-0.00023,-0.13375,-0.06,0.0925,0.054137502,0.0287625,0.012802499,1742099400.1438148
0.0275,0.0175,0.11875,0.0010075001,-0.00142,-0.0013575,-0.03875,0.04625,0.12125,-0.01439,-0.024215,0.022155,1742099400.256665
0.035,0.0125,0.1075,-0.0034325,-0.0001225,-0.0010075001,0.0,0.03375,0.1625,0.0152275,-0.01474,0.0086675,1742099400.3803341
0.03,0.01125,0.11875,-0.0013425,-0.0012050001,0.001725,0.07,0.0025,0.13625,0.0025475,0.00859,0.0105275,1742099400.48453
0.02875,0.02875,0.11375,-0.0016925,0.0012050001,0.0001975,0.08125,0.00625,0.1175,0.0032650002,0.00087,0.0003825,1742099400.601512
0.035,0.01,0.1175,0.0013575,-0.0010975,-0.00148,0.005,0.02,0.11875,-0.021545,0.007935,-0.04599,1742099400.711636
0.03,0.01375,0.1225,-0.00235,0.00328,0.00174,-0.12375,0.01,0.12375,0.034424998,0.0178525,0.0016025,1742099400.825427
0.02875,0.0225,0.12125,-4.5e-05,-0.0013425,0.0001825,-0.03875,0.0375,0.12,0.00978,-0.014435001,0.0275275,1742099400.946327
0.035,0.015,0.10875,-0.0043800003,0.00016750001,-0.0001525,-0.015,-0.02,0.135,0.009002499,-0.0050500003,0.021057501,1742099401.060128
0.03375,0.01375,0.11375,-0.001405,-0.00264,0.0020899998,0.06375,-0.01125,0.10625,0.00264,0.017700002,0.013625,1742099401.167519
0.02625,0.03,0.1275,0.0016925,-0.00059500005,0.0009,0.09125,0.02375,0.09,0.0059975,0.001755,0.001725,1742099401.281539
0.03125,0.0225,0.10625,-0.0013275,-0.00035,-0.000885,0.1025,0.01125,0.12,0.0077525,-0.01686,-0.00644,1742099401.403441
0.01625,0.02375,0.1375,0.0072325002,-0.0040425,-0.002105,-0.2,-0.01875,0.14875,-0.020065,0.013015,-0.0646675,1742099401.509629
0.0425,0.0175,0.10125,-0.008195,0.0065300004,0.0018925001,-0.0525,0.035,0.09125,0.0178675,-0.01097,0.023909999,1742099401.623488
0.025,0.025,0.13,0.0062875,0.00059500005,-0.0012825,-0.01375,0.0,0.13,-0.0122675,-0.016205,0.010314999,1742099401.747743
0.03875,0.01625,0.105,-0.004685,0.001495,-0.0038599998,0.0225,-0.0225,0.14,0.001235,0.008880001,0.0077975,1742099401.8611782
0.03625,0.01125,0.11875,-0.0004425,-0.0009925,0.0019824998,0.085,-0.01875,0.1175,-0.002365,0.0028675,0.0061025,1742099401.965562
0.0325,0.02,0.11375,-0.0024725,0.0027,0.002045,0.055,0.015,0.13625,0.0016625,-1.5e-05,0.0042275,1742099402.081514
0.03875,0.0175,0.1175,0.000107500004,-0.0030825,-0.001235,-0.035,0.0125,0.1075,0.003525,0.016479999,-0.0356,1742099402.193557
0.0275,0.0125,0.13875,0.001145,0.0056775,0.0001975,-0.18375,-0.0275,0.18375,-0.01918,-0.006455,0.0072475,1742099402.30724
0.03625,0.0225,0.11,0.00264,0.00264,-0.00093,-0.05875,-0.00625,0.12125,0.014755,-0.005875,0.02823,1742099402.426846
0.04,0.01625,0.1125,0.0001375,-0.000825,-0.00229,0.02125,0.01375,0.13875,0.005585,0.0014500001,0.018692499,1742099402.5417118
0.0375,0.0125,0.11625,-0.00064,-0.0003975,0.001235,0.0775,0.02375,0.11875,0.0005025,0.012725,0.0047925,1742099402.647487
0.0325,0.025,0.12125,0.0031424998,-0.00151,0.0018300001,0.08375,0.0,0.115,0.0063024997,-0.0012825,-0.0023800002,1742099402.7615309
0.03125,0.01875,0.12125,0.0022425,-0.002625,-0.0003825,0.04375,0.01375,0.135,-0.0084675,-0.015565,-0.03218,1742099402.880119
0.0225,0.01875,0.13,0.0033425,-0.00016750001,0.0003825,-0.22125,-0.065,0.215,-0.0466925,-0.0005025,-0.026795,1742099403.00033
0.0325,0.015,0.115,-0.0004125,0.0001225,-0.002,-0.07,0.03125,0.09125,0.01303,-0.0128925,0.03218,1742099403.103743
0.03125,0.01875,0.115,-0.00091500004,0.0,-0.0016475001,-0.01125,0.00125,0.1425,-0.0045925,0.0030375,0.017424999,1742099403.2270908
0.03125,0.01125,0.115,-0.0007475,-0.0016625,0.00052,0.07,-0.01,0.09875,-0.00351,0.0249175,0.0009,1742099403.340876
0.02875,0.01875,0.1225,-7.75e-05,-0.00142,0.0018150001,0.105,0.005,0.10375,0.001115,0.0018300001,0.0061350004,1742099403.445476
0.03375,0.0175,0.10875,-0.0058125,0.001235,0.00079250004,0.1325,0.03125,0.13,0.0063175,-0.01567,0.000245,1742099403.561344
0.02375,0.02125,0.1325,0.003845,-0.0040425,0.0022274998,-0.1175,-0.0,0.10875,0.0024875,0.0202625,-0.069275,1742099403.673405
0.03125,0.03375,0.11125,-0.0031275,0.00502,0.0001525,-0.0875,-0.01375,0.06375,0.042770002,0.0095975,0.038345,1742099403.787313
0.0275,0.0175,0.12,0.002,-0.002335,-0.0029749998,-0.0225,0.0025,0.1075,-0.0102225,-0.013215,0.020477502,1742099403.900835
0.035,0.01375,0.115,-0.0040125,0.00151,-0.0012825,0.02375,-0.005,0.1425,0.00618,-0.000945,0.0081775,1742099404.021261
0.0325,0.01875,0.11625,-0.00023,-0.00032,0.0024725,0.10375,-0.00375,0.1325,0.003175,0.0065625,0.00389,1742099404.12842
0.025,0.0275,0.12375,0.0025625,0.00026,-0.0007625,0.09125,-0.0025,0.11,0.00508,-0.0040425,0.000245,1742099404.247937
0.035,0.0175,0.10875,0.0006725,-0.00325,0.0003825,0.10875,0.04375,0.09375,0.0121925,-0.002655,-0.026977502,1742099404.360532
0.0225,0.01625,0.13375,0.0016475001,0.0037525,0.00029,-0.27875,-0.07125,0.28125,-0.03267,0.02684,-0.0033725,1742099404.469215
0.03125,0.01875,0.1125,0.0013725,-0.002,-0.0032950002,-0.05375,0.02875,0.1075,0.0095225,-0.02501,0.030075,1742099404.5839438
0.02875,0.01625,0.12125,0.000275,-0.000107500004,-0.0032950002,-0.00125,0.00125,0.1375,-0.0036775,-0.014375,0.02449,1742099404.706441
0.03375,0.0025,0.11625,-0.0024575,6e-05,0.0010975,0.05875,-0.02,0.12375,-0.007645,0.01387,-0.00229,1742099404.821547
0.02875,0.0225,0.12,0.000107500004,0.00016750001,0.0042725,0.0925,-0.00625,0.13,-0.00798,0.0071875,-0.002655,1742099404.924172
0.0275,0.01875,0.115,-0.0037225,-0.000945,0.0004725,0.10625,0.02,0.11875,-0.0102375,-0.0047750003,-0.01468,1742099405.0452101
0.02,0.025,0.13125,0.00508,-0.0050975,0.00059500005,-0.0725,0.015,0.1125,-0.000535,0.0054175,-0.0582425,1742099405.151247
0.025,0.025,0.11375,-0.0029000002,0.00357,-0.0008075,-0.115,-0.025,0.09625,0.06453,0.0341025,0.0301675,1742099405.268887
0.0175,0.01625,0.13375,0.0054925,-0.0018925001,-0.0028074998,-0.0325,-0.01625,0.1075,0.0013725,0.000275,0.028549999,1742099405.381771
0.0325,0.00875,0.11125,-0.0036475,0.0031575,-0.0018925001,0.04875,0.02875,0.13375,0.0080575,0.0065625,0.0060725003,1742099405.503395
0.02875,0.01,0.11625,0.00084,-0.0013425,0.0027474998,0.11,-0.0175,0.09625,-0.0058449996,0.0050500003,0.0047600004,1742099405.606177
0.0225,0.0225,0.11875,-0.0018300001,0.0006875,0.004485,0.125,0.03,0.10125,0.0019525,-0.003905,0.0066825,1742099405.728147
0.02625,0.0225,0.11625,-0.0046375,-0.0051875,0.0031575,0.005,0.0325,0.09375,0.0010075001,-0.026549999,-0.0473325,1742099405.840833
0.015,0.03,0.13,-0.002685,0.0047750003,0.00093,-0.19625,-0.00875,0.2125,0.03807,0.034987498,0.01474,1742099405.946198
0.02125,0.025,0.11875,0.0062399996,-0.001525,-0.0036,-0.04375,-0.00125,0.10375,0.0157775,-0.0083925,0.035645,1742099406.059327
0.025,0.01625,0.1175,-0.0016175,0.0013125,-0.004485,0.01125,0.02125,0.11625,0.0048525,0.0089724995,0.0142675,1742099406.173322
0.0275,0.01,0.11375,0.00052,-0.0025175,0.00045750002,0.11,0.03,0.11875,0.0075825,0.00798,-0.0013125,1742099406.287343
0.02125,0.02375,0.125,0.00026,0.0007775,0.00296,0.1075,0.02125,0.11,0.00537,-0.009475,-0.0019225,1742099406.401149
0.02625,0.02375,0.11125,-0.0010225,-0.0028525,-0.00091500004,0.085,0.065,0.1,-0.0013725,-0.0072325002,-0.048295,1742099406.5208251
0.01375,0.01625,0.135,0.0021975,0.0038599998,-0.001145,-0.28625,-0.0375,0.28125,-0.035035,0.00554,-0.02417,1742099406.6282082
0.02625,0.02125,0.115,0.00296,-0.0001375,-0.0016175,-0.045,0.00375,0.1125,0.026535,-0.0172575,0.0343325,1742099406.7478778
0.0275,0.01875,0.11625,-0.000945,0.00016750001,-0.0034025,0.02625,-0.00375,0.13625,0.0018150001,0.007005,0.021545,1742099406.86132
0.02625,0.00875,0.115,0.0016625,-0.002075,0.0004425,0.1,-0.0125,0.09375,-0.0081775,0.0196525,0.0102075,1742099406.9692001
0.02375,0.0175,0.12625,0.0022274998,-0.0001225,0.004165,0.14,0.0225,0.0825,0.002335,-0.00058,0.0077675,1742099407.0846
0.02625,0.01625,0.1125,-0.00064,-0.00171,0.00174,0.1225,0.04375,0.09625,0.0029000002,-0.0316775,-0.018157499,1742099407.206172
0.0175,0.01875,0.13625,0.0039975,-0.00091500004,0.0025175,-0.135,-0.01875,0.12,-0.028137501,-0.0039975,-0.0690925,1742099407.309363
0.03,0.02625,0.1,0.00091500004,-0.0016025,0.00023,-0.07875,-0.025,0.085,0.0381325,0.00708,0.0384525,1742099407.4233348
0.01125,0.01625,0.1275,0.0083,-0.0058449996,-0.0046225,-0.0175,-0.01875,0.1075,-0.0060125,-0.00731,0.029465001,1742099407.5417001
0.00875,-0.01375,0.12875,0.0056149997,-0.0047750003,-0.0007625,0.045,-0.01125,0.12,-0.003845,0.0086525,0.00174,1742099407.651434
0.00375,0.00875,0.12625,-0.0060275,-0.0018925001,0.00325,0.105,-0.01125,0.115,0.0015725,0.004365,-0.0010675,1742099407.769648
0.0075,0.00625,0.125,-0.001145,-0.000305,0.0006875,0.09625,-0.01125,0.1125,0.0007775,-0.00348,0.002365,1742099407.882551
0.00875,0.00625,0.12375,-0.002305,0.00033500002,0.0024425,0.105,0.05125,0.1125,-0.000855,-0.014085,-0.0361325,1742099407.993239
0.0025,0.01,0.1225,0.0001825,-0.0020899998,-0.0020599999,-0.33125,-0.1,0.24625,-0.0614775,0.017105,-0.0295875,1742099408.107411
0.0075,0.0125,0.1225,-0.0006875,-0.000565,-0.0019225,-0.03,0.01625,0.1025,0.00148,-0.0213775,0.0183875,1742099408.228244
0.00625,0.01125,0.1225,-0.00084,-0.000107500004,-0.0001375,0.0025,-0.03,0.16125,-0.0019375,-0.0086675,0.0149525,1742099408.340527
0.005,0.01125,0.1225,-0.00125,-6e-05,0.0013575,0.09625,-0.06125,0.10375,-0.0137775,0.025817499,0.0066825,1742099408.4493618
0.005,0.0125,0.1225,0.0004425,-0.00064,6e-05,0.1,-0.01875,0.08875,-0.0013875001,0.00331,0.012604999,1742099408.5658638
0.005,0.01125,0.1225,-0.0001825,-0.0006875,0.0003975,0.10125,0.05,0.095,0.019775,-0.01854,-0.012207501,1742099408.685906
0.0025,0.01375,0.1225,-0.00125,0.0001975,0.0007325,-0.14625,-0.0275,0.12375,-0.0183875,0.0107125,-0.056,1742099408.800365
0.00875,0.0125,0.1225,0.0021675,-0.0009625,-0.0028225,-0.08625,-0.05875,0.16125,0.0228125,-0.00525,0.031235,1742099408.903218
0.0,0.00875,0.1225,-0.0007175,-0.0005025,-0.00059500005,-0.00375,-0.03875,0.12,-0.009002499,-0.0034175,0.0290375,1742099409.0212102
0.00125,0.01125,0.1225,-0.001235,0.0001225,0.00122,0.0625,-0.01125,0.09,-0.0073249997,0.0078724995,0.0155475,1742099409.1439412
0.00375,0.015,0.12125,0.00033500002,0.0003975,0.000655,0.09375,0.00625,0.09375,-0.007905,0.0066675,0.0137775,1742099409.245194
0.0025,0.01375,0.1225,0.000107500004,0.00064,0.00045750002,0.135,0.06875,0.10625,0.0099325,-0.0104075,-0.0019375,1742099409.360575
0.0025,0.01125,0.1225,-0.00033500002,0.0004125,0.0013575,-0.1125,0.0075,0.09875,-0.0104225,0.0024875,-0.0729825,1742099409.480659
0.00625,0.0075,0.12375,0.0016625,-0.000365,-0.0033725,-0.0925,-0.03125,0.11375,0.039017502,0.01799,0.030257499,1742099409.5852108
0.0025,0.0125,0.1225,0.0015725,-0.00055,-0.0007175,0.0025,-0.01375,0.1075,0.002685,-0.0032650002,0.0258325,1742099409.70579
0.00125,0.01125,0.1225,0.0001825,-9.25e-05,-0.00048750002,0.035,0.0,0.13,-0.0020299999,0.0010675,0.0141,1742099409.820528
0.00375,0.01,0.1225,0.00016750001,-0.00029,-0.000107500004,0.08875,0.015,0.10375,-0.0045475,0.00702,0.0111075,1742099409.9274712
0.0025,0.0075,0.1225,0.0013575,-0.0003825,-0.000655,0.10375,0.0325,0.10875,-0.001435,-0.0045775,0.0040275003,1742099410.0411892
0.0025,0.0075,0.12375,-0.00296,0.0003975,0.0010525,0.0725,0.10625,0.11,0.026,-0.00079250004,-0.0612025,1742099410.164096
0.0025,0.00375,0.12125,0.0054025003,-0.0016325001,-0.0018775001,-0.2775,-0.06875,0.305,0.0093225,0.01619,-0.0046550003,1742099410.26845
0.00125,0.01125,0.12375,-0.00122,-1.5e-05,0.0001825,-0.0475,-0.01625,0.1075,0.025315,-0.0117175,0.0437925,1742099410.38221
0.0,0.01,0.1225,-0.000855,0.0002125,-0.0005025,0.04125,0.04,0.13875,-0.0025325,-0.005235,0.028305,1742099410.500114
0.0025,0.01125,0.1225,-0.0006875,0.0001225,0.00091500004,0.105,0.02375,0.105,-0.022217501,0.0149225,0.0095375,1742099410.610089
0.00125,0.01125,0.1225,0.000655,0.0001225,-0.00033500002,0.1125,0.0325,0.09,-0.001725,-0.0018475,0.0007775,1742099410.7265742
0.0025,0.0075,0.1225,3e-05,0.000305,0.0010975,0.04125,0.0475,0.12875,0.0078724995,-0.04062,-0.040955003,1742099410.8398662
0.00125,0.01125,0.1225,0.0010525,-6e-05,-0.000535,-0.2275,-0.05125,0.19125,-0.024795,0.0065300004,-0.052017502,1742099410.959651
0.0025,0.0075,0.12375,-0.00151,-1.5e-05,-0.00026,-0.0625,0.0075,0.095,0.0208275,-0.0078125,0.0358275,1742099411.066457
0.00375,0.0075,0.12125,0.0025625,-0.0004725,-0.00113,0.0,-0.02875,0.105,-0.0047600004,0.001525,0.0281075,1742099411.184931
0.00125,0.00875,0.1225,-0.0012825,0.00016750001,0.0010675,0.07125,-0.0025,0.12625,-0.001725,0.01068,0.017182501,1742099411.298988
0.00125,0.01375,0.12125,0.001495,9.25e-05,-0.000565,0.125,0.0475,0.11625,-0.0022574998,0.0016925,0.0110625,1742099411.4082181
0.0025,0.00875,0.1225,-0.0001825,0.0001375,0.0007325,0.1625,0.08,0.1025,0.005005,-0.010757499,-0.02452,1742099411.522308
-0.00125,0.02375,0.12125,0.00174,-0.0005025,-6e-05,-0.22625,-0.02875,0.12375,-0.016205,0.009185,-0.0924525,1742099411.64316
0.0075,0.0075,0.1225,-0.00032,-6e-05,-0.000655,-0.02875,-0.035,0.0625,0.030547502,0.00052,0.044189997,1742099411.750239
-0.00125,0.0125,0.12125,0.0012825,-0.000275,-0.000655,-0.00375,0.0175,0.1325,-0.00061,-0.009965,0.018889999,1742099411.864243
0.00125,0.01125,0.12375,-0.001405,0.000365,9.25e-05,-0.0,-0.03625,0.085,0.02034,0.0063775,0.019257499,1742099411.98016
0.00375,0.00875,0.125,-0.001465,0.0011900001,0.0008075,0.045,-0.05375,0.1025,0.0034625002,0.0054325,0.0137175,1742099412.101609
