L-AccX,L-AccY,L-AccZ,L-GyrX,L-GyrY,L-GyrZ,R-AccX,R-AccY,R-AccZ,R-GyrX,R-GyrY,R-GyrZ,timestamp
0.56,0.58,-0.6,-1.1,0.06,-12.63,-0.15,-0.05,0.97,-28.14,-3.48,3.66,1742258834.992183
0.59,0.44,-0.53,5.98,-21.97,12.82,-0.82,-0.97,1.53,53.1,18.68,84.96,1742258835.107649
0.57,0.54,-0.54,7.57,-14.59,34.18,-0.23,-0.6,0.65,248.9,66.71,326.54,1742258835.218339
0.4,0.96,-0.76,-31.25,-21.97,21.55,0.26,0.32,0.93,-3.72,-32.1,191.59,1742258835.332347
0.33,0.91,-0.63,-23.44,-71.35,-49.32,0.16,-0.18,1.38,-18.31,59.81,56.76,1742258835.4462988
1.08,0.43,0.09,75.01,-27.4,-110.96,0.19,-0.18,0.17,20.81,11.66,43.64,1742258835.5602062
0.62,0.45,-0.51,-84.66,26.06,-10.99,0.79,-0.02,1.13,-83.98,-17.21,38.21,1742258835.674387
0.49,0.2,-0.84,14.04,-52.06,-27.28,0.64,-0.24,1.04,-49.8,0.06,14.95,1742258835.788332
0.94,0.46,-0.16,-23.44,-98.88,17.4,0.3,0.14,0.46,-31.86,83.8,22.34,1742258835.902184
1.18,0.43,-0.04,1.4,51.21,-40.65,0.4,-0.26,0.81,-6.29,-55.3,-45.72,1742258836.0154781
0.49,0.03,-0.67,-23.13,26.18,-9.03,1.17,0.14,1.26,-57.01,17.52,-2.14,1742258836.129837
0.49,0.34,-0.71,7.32,-48.4,38.33,0.45,-0.19,0.83,-8.0,34.06,13.18,1742258836.246947
1.32,0.94,0.49,12.88,1.34,-23.38,0.21,-0.09,0.29,25.7,-12.45,21.24,1742258836.35731
0.68,0.43,-0.38,-62.93,60.06,-40.53,0.91,0.1,1.03,-21.55,-55.73,-3.97,1742258836.471411
0.49,0.0,-0.91,27.28,-4.21,-21.06,0.73,-0.05,1.02,-6.77,44.19,15.08,1742258836.588959
1.08,0.44,-0.11,-3.54,-71.04,64.09,0.18,0.1,0.57,-13.24,34.12,18.01,1742258836.6991801
1.18,0.6,-0.09,-36.07,5.92,-35.58,0.55,-0.06,0.55,31.98,-28.99,-41.5,1742258836.8122969
0.53,-0.11,-0.6,1.16,-0.12,-24.84,1.15,-0.04,1.18,3.3,1.53,28.99,1742258836.927593
0.59,0.25,-0.72,49.93,-11.6,51.51,0.52,0.2,0.7,-30.7,19.71,16.85,1742258837.039135
1.34,0.8,0.35,-15.87,0.92,16.91,0.24,0.02,0.43,33.2,-19.17,5.8,1742258837.152311
0.86,0.31,-0.12,-4.58,62.99,-38.09,0.62,0.09,1.07,-8.79,-39.67,5.13,1742258837.268045
0.48,0.04,-0.91,14.53,28.56,-32.17,0.85,0.17,1.03,-14.34,-14.65,2.69,1742258837.380202
0.89,0.35,-0.56,18.31,-44.07,39.43,0.37,0.08,0.72,2.01,51.45,4.76,1742258837.4942122
1.17,0.44,0.07,25.51,4.7,-20.75,0.37,0.06,0.28,47.73,-25.88,-4.39,1742258837.609917
0.59,0.25,-0.51,-34.06,26.79,-20.08,0.94,0.15,0.97,5.31,-38.88,-5.74,1742258837.722998
0.58,0.13,-0.69,32.41,-15.32,21.67,0.66,-0.06,0.94,15.87,35.95,6.71,1742258837.836095
1.08,0.68,0.12,-24.96,-57.37,48.52,0.29,0.14,0.47,11.9,24.54,10.5,1742258837.949023
0.92,0.41,-0.05,-7.08,54.26,-14.22,0.64,-0.12,0.77,-17.09,-35.83,-11.96,1742258838.0631611
0.45,0.14,-0.75,-6.65,14.16,-26.0,0.89,0.18,1.11,-13.12,-4.76,4.03,1742258838.176217
0.8,0.35,-0.59,-8.18,-31.86,54.32,0.34,0.01,0.78,-11.72,34.91,4.15,1742258838.2901142
1.24,0.64,0.16,47.73,0.43,-13.85,0.34,-0.04,0.47,26.06,-2.87,-7.87,1742258838.408034
0.7,0.4,-0.51,-66.89,34.42,-27.1,0.82,0.12,0.96,-43.09,-33.02,3.78,1742258838.517343
0.63,0.11,-0.72,11.84,-5.0,5.37,0.68,0.05,1.03,-18.74,22.89,0.98,1742258838.631333
0.77,0.54,-0.24,14.95,-44.07,45.72,0.35,0.02,0.76,-5.13,31.13,8.73,1742258838.749175
0.99,0.46,-0.05,34.12,12.27,-0.18,0.44,-0.15,0.49,27.59,-9.52,-12.33,1742258838.8573
0.69,0.43,-0.53,-70.56,23.56,-8.12,0.68,-0.2,1.29,-60.42,-28.14,9.7,1742258838.971348
0.6,0.15,-0.82,15.81,-18.49,1.65,0.59,-0.0,1.03,-17.09,31.8,-2.14,1742258839.090028
0.94,0.5,-0.35,38.94,-33.2,18.74,0.31,0.05,0.69,-6.47,40.65,6.29,1742258839.199091
0.98,0.46,-0.23,10.8,10.25,-8.85,0.51,-0.03,0.61,28.02,1.34,-6.29,1742258839.3122659
0.68,0.28,-0.61,-64.76,14.16,0.24,0.7,0.05,0.89,6.16,22.28,8.24,1742258839.429225
0.69,0.37,-0.47,0.98,-4.03,9.34,0.69,-0.0,1.33,-95.4,3.23,8.06,1742258839.539235
0.7,0.33,-0.8,42.72,-25.15,3.91,0.38,-0.17,0.84,-5.8,58.23,0.43,1742258839.653277
0.98,0.54,0.01,21.24,-3.36,-10.56,0.43,-0.14,0.38,20.32,-23.93,-14.47,1742258839.768471
0.63,0.46,-0.41,-31.01,32.71,-21.42,0.78,0.02,1.04,-25.88,-5.37,15.38,1742258839.881233
0.62,0.2,-0.79,4.82,-9.03,3.17,0.64,-0.03,0.99,-20.32,27.95,3.23,1742258839.995258
0.88,0.49,-0.36,43.7,-34.3,10.07,0.33,-0.09,0.69,-2.38,23.13,7.39,1742258840.110846
1.02,0.47,-0.01,-8.06,33.26,-39.86,0.44,-0.27,0.46,-5.43,-16.91,-1.89,1742258840.2297878
0.7,0.43,-0.7,-24.9,25.39,-18.8,0.73,-0.15,1.36,-66.04,1.22,18.68,1742258840.337148
0.67,0.2,-0.7,23.68,-32.96,12.76,0.77,0.07,0.96,-11.6,18.07,-2.93,1742258840.45111
0.92,0.51,-0.11,50.96,-39.49,9.28,0.38,-0.13,0.56,42.72,12.51,6.59,1742258840.56966
0.96,0.51,-0.05,-25.76,47.49,-13.67,0.48,-0.23,0.86,-73.73,-29.97,27.28,1742258840.6782799
0.86,0.49,-0.62,48.58,9.22,-18.62,0.56,-0.44,1.31,52.43,-59.88,14.4,1742258840.792277
0.67,0.2,-0.68,-18.62,-27.4,26.49,0.66,0.05,0.99,-27.16,20.45,-20.75,1742258840.9099321
0.85,0.69,-0.41,-0.61,-44.62,25.94,0.33,-0.11,0.77,7.51,5.07,-16.48,1742258841.020291
1.12,0.42,0.02,37.9,6.65,-32.1,0.4,0.06,0.48,37.23,9.4,-10.62,1742258841.134015
0.6,0.3,-0.59,-23.56,43.82,-31.68,0.8,-0.04,1.51,40.89,33.2,-14.4,1742258841.249397
0.6,0.3,-0.51,-28.32,-40.04,42.72,0.64,-0.01,1.0,-38.27,8.85,-0.37,1742258841.361251
0.83,0.55,-0.28,31.74,-28.63,34.79,0.32,-0.13,0.76,3.54,15.93,4.27,1742258841.475103
1.07,0.34,-0.05,14.34,21.97,-31.31,0.45,0.04,0.5,11.41,-1.46,-17.27,1742258841.591799
0.64,0.25,-0.37,-40.47,51.82,-10.01,0.75,-0.04,1.24,-40.89,-36.62,-1.59,1742258841.710156
0.69,0.19,-0.64,-11.78,-50.72,48.34,0.66,-0.1,0.96,-22.03,19.17,18.31,1742258841.81716
0.94,0.62,-0.18,60.79,-23.99,1.83,0.33,-0.13,0.56,9.16,15.14,11.9,1742258841.931062
1.06,0.43,0.13,-15.38,44.74,-27.95,0.41,-0.02,0.47,-27.95,-43.7,-4.21,1742258842.050058
0.55,0.12,-0.98,-16.11,59.88,-46.33,0.73,0.04,1.05,10.8,-25.15,-19.53,1742258842.1591392
0.53,0.29,-0.87,11.05,-70.13,51.88,0.39,-0.32,1.14,24.35,33.94,10.5,1742258842.273171
1.12,0.79,0.25,3.6,-39.98,4.15,0.3,-0.08,0.45,14.83,2.75,5.62,1742258842.3908029
0.87,0.46,-0.1,7.63,67.38,-21.61,0.5,-0.08,0.88,-13.06,-45.35,-10.74,1742258842.500383
0.5,0.23,-0.84,18.62,42.24,-32.9,0.72,-0.1,1.11,-14.71,-41.81,-8.48,1742258842.614509
0.77,0.34,-0.42,-11.6,-52.55,42.36,0.39,0.03,0.97,-18.19,47.0,10.86,1742258842.730334
1.15,0.55,0.18,-10.31,-19.29,-3.66,0.19,-0.08,0.57,17.15,10.5,3.11,1742258842.842069
0.87,0.45,-0.15,-14.83,49.68,-9.4,0.45,-0.02,0.71,24.54,-33.75,-11.23,1742258842.956288
0.56,0.13,-0.77,68.24,22.77,-52.12,0.81,-0.21,1.13,24.23,-22.16,-10.19,1742258843.0707068
0.59,0.32,-0.66,-15.93,-58.41,34.73,0.37,-0.1,0.94,-30.7,49.62,40.47,1742258843.19046
1.14,0.74,0.36,-9.83,-47.0,18.37,0.16,-0.01,0.57,47.06,11.84,4.15,1742258843.298004
0.89,0.43,-0.15,-42.54,38.82,-0.79,0.46,-0.15,0.59,17.82,-54.38,-43.46,1742258843.4114099
0.49,0.14,-0.78,21.79,23.8,-30.21,0.8,-0.21,1.57,5.62,-33.39,-26.0,1742258843.530795
0.63,0.38,-0.26,-30.58,-61.22,59.63,0.44,-0.16,0.92,-41.32,64.45,-3.97,1742258843.639199
1.23,0.62,0.08,3.54,-62.07,22.28,0.2,-0.13,0.44,29.72,21.18,3.91,1742258843.7530382
0.94,0.41,-0.01,-7.57,62.87,-9.16,0.57,-0.05,0.72,8.12,-68.18,-19.29,1742258843.871568
0.56,0.1,-0.77,32.65,40.16,-27.89,0.8,-0.2,1.12,3.6,5.37,-5.31,1742258843.981075
0.61,0.46,-0.39,2.99,-61.22,42.97,0.48,-0.1,0.79,-1.71,62.93,7.69,1742258844.0951018
1.36,0.78,0.49,21.79,-11.17,-4.21,0.33,-0.14,0.38,34.61,-10.5,2.08,1742258844.211487
0.85,0.44,-0.35,-68.3,61.83,-16.36,0.59,-0.26,1.05,16.24,-68.6,-14.77,1742258844.3316538
0.51,0.08,-0.86,1.77,16.91,-12.33,0.75,-0.12,1.24,-5.55,8.36,5.07,1742258844.437093
0.76,0.63,-0.01,41.38,-26.92,34.48,0.49,-0.15,0.76,16.91,47.85,7.02,1742258844.5516438
1.2,0.92,0.42,-9.09,-13.18,16.54,0.38,-0.24,0.35,44.13,-11.84,-3.3,1742258844.671254
0.81,0.47,-0.19,39.61,92.53,-8.06,0.7,-0.06,0.63,24.84,-59.39,-21.42,1742258844.779211
0.38,0.22,-0.95,26.61,15.26,-9.7,0.78,-0.26,1.14,-41.14,8.91,3.66,1742258844.893079
0.65,0.7,0.17,-14.71,-53.04,61.28,0.45,-0.09,0.73,-1.28,35.34,5.31,1742258845.0112388
1.23,0.8,0.37,63.84,-5.31,-26.61,0.41,-0.11,0.36,-19.1,-13.49,12.63,1742258845.1212008
0.69,0.64,-0.33,-53.1,73.06,-56.4,0.81,-0.05,1.11,97.6,-56.15,-27.77,1742258845.235329
0.49,0.11,-0.89,-16.42,12.08,-6.29,0.72,-0.24,1.13,-15.2,8.61,25.63,1742258845.3519711
0.93,0.45,-0.62,33.39,-52.19,20.81,0.33,-0.15,0.7,-6.53,24.41,17.94,1742258845.472277
1.21,0.53,0.07,15.01,22.09,-33.87,0.32,0.03,0.51,5.86,-15.14,4.64,1742258845.577027
0.51,0.35,-0.44,-0.55,37.72,-22.95,0.77,-0.05,1.17,24.54,-12.02,-11.54,1742258845.692204
0.58,0.13,-0.81,-37.9,-51.57,46.14,0.62,-0.12,1.09,-17.58,31.07,-3.11,1742258845.81273
0.91,0.77,0.05,40.1,-51.7,37.48,0.34,-0.12,0.51,-17.82,25.94,6.47,1742258845.9191291
1.06,0.73,0.1,-4.21,24.9,-38.64,0.43,-0.17,0.58,25.51,-53.83,-24.54,1742258846.033212
0.51,0.33,-0.59,-18.37,35.16,-24.48,0.79,-0.25,1.27,27.22,3.6,-5.92,1742258846.156236
0.6,0.17,-0.71,-9.7,-43.76,34.0,0.59,-0.18,0.93,-5.31,26.12,7.32,1742258846.261185
0.99,0.77,0.04,11.6,-52.43,50.9,0.32,-0.06,0.54,-12.51,20.63,13.18,1742258846.375208
0.97,0.73,0.14,-7.14,38.27,-47.73,0.48,-0.24,0.68,-18.37,-38.76,-20.87,1742258846.493255
0.52,0.28,-0.54,-41.14,31.13,-49.13,0.78,-0.26,1.05,5.8,-11.11,-16.78,1742258846.603338
0.62,0.15,-0.7,19.9,-46.81,55.24,0.48,-0.27,1.03,-18.55,46.51,8.18,1742258846.717258
1.02,1.13,0.36,-32.84,-28.75,21.97,0.33,0.0,0.45,-9.83,15.69,17.76,1742258846.832717
0.83,0.36,-0.12,53.16,81.18,-57.13,0.51,0.02,0.83,10.93,-35.46,-17.27,1742258846.952115
0.51,0.17,-0.66,-11.84,24.78,-11.11,0.75,-0.25,1.15,-1.65,-22.83,-30.03,1742258847.0583339
0.66,0.25,-0.68,32.71,-52.37,67.08,0.42,-0.09,0.91,-21.97,43.09,15.38,1742258847.172141
1.04,1.07,0.46,-42.6,-40.65,27.4,0.3,-0.14,0.46,14.47,10.62,3.85,1742258847.292632
0.86,0.65,-0.02,-1.95,84.11,-49.07,0.42,-0.1,0.66,13.31,-68.66,-8.42,1742258847.4001431
0.51,0.21,-0.69,-10.07,31.43,-33.14,0.71,-0.29,1.19,0.0,-8.61,-1.53,1742258847.51425
0.67,0.22,-0.69,13.61,-58.29,51.03,0.52,-0.18,0.91,-11.78,38.33,23.8,1742258847.634828
0.97,0.89,-0.1,-40.28,-57.01,58.04,0.22,-0.09,0.51,-16.54,25.51,11.54,1742258847.742083
0.89,0.67,-0.11,26.92,56.76,-62.74,0.45,-0.31,0.87,11.9,-46.2,-0.98,1742258847.856129
0.67,0.37,-0.51,2.99,37.72,-39.73,0.64,-0.24,1.14,16.42,-24.96,6.29,1742258847.9729228
0.56,0.13,-0.74,3.54,-29.24,22.03,0.49,-0.2,0.98,-1.77,34.18,23.38,1742258848.093228
1.09,0.8,-0.09,20.87,-7.02,-2.38,0.31,-0.18,0.64,-26.12,14.4,19.04,1742258848.198111
0.99,0.53,0.12,31.98,74.89,-62.01,0.43,-0.04,0.55,22.71,-28.81,-1.22,1742258848.3127239
0.55,0.16,-0.55,-2.32,11.72,-56.21,0.66,-0.14,1.26,-0.79,-5.31,-9.09,1742258848.433491
0.64,0.16,-0.57,-9.58,-52.19,58.53,0.48,-0.2,0.9,-33.08,32.1,-15.81,1742258848.540137
0.77,0.91,-0.39,-88.07,-38.7,67.99,0.44,-0.19,0.66,9.46,43.88,7.26,1742258848.655741
1.09,0.64,-0.06,-17.64,33.81,-42.3,0.26,0.09,0.42,21.24,-69.27,13.18,1742258848.772686
0.51,0.1,-0.67,-68.48,59.39,-17.4,0.72,-0.08,1.13,27.4,-2.26,-11.05,1742258848.881212
0.45,0.03,-1.25,6.9,-28.26,36.62,0.61,0.16,1.16,-32.59,48.28,-11.47,1742258848.9951282
1.15,0.87,0.57,13.0,-54.69,0.37,0.46,-0.19,0.58,89.17,31.86,2.44,1742258849.113843
1.0,0.64,-0.05,2.14,31.62,-37.84,0.36,-0.15,0.75,-32.9,-63.29,-8.24,1742258849.229353
0.34,0.14,-0.81,-44.43,22.03,-18.01,0.75,-0.2,1.1,13.06,-33.69,-26.61,1742258849.336263
0.53,0.13,-0.82,-0.24,-79.53,77.09,0.44,-0.19,1.09,-1.04,79.59,-11.6,1742258849.452115
1.1,1.09,0.74,-34.73,-76.72,49.01,0.32,-0.16,0.31,52.55,17.58,-8.3,1742258849.57234
0.84,0.51,0.01,-19.29,91.06,-39.31,0.52,-0.08,0.82,4.7,-74.4,-4.88,1742258849.678093
0.39,0.04,-0.99,68.54,46.81,-30.7,0.74,-0.21,0.94,36.38,-51.94,-11.72,1742258849.792184
0.64,0.19,-0.6,41.75,-69.09,41.93,0.49,-0.17,0.82,-23.8,67.26,21.48,1742258849.9130251
1.37,0.81,0.34,56.4,-28.56,-37.41,0.33,-0.05,0.39,19.35,8.67,16.91,1742258850.019896
0.68,0.25,-0.02,9.7,117.61,-47.97,0.62,0.01,1.03,35.71,-41.56,-14.22,1742258850.135125
0.47,0.15,-0.97,-17.4,28.38,-14.04,0.68,-0.23,1.21,20.45,-24.41,-1.65,1742258850.252795
0.7,0.32,0.09,-8.36,-58.9,52.67,0.57,-0.15,0.66,14.47,71.23,-3.85,1742258850.361025
1.35,0.88,0.51,30.52,-29.85,-27.47,0.39,-0.14,0.35,22.28,-28.2,4.82,1742258850.4749749
0.7,0.37,-0.34,0.55,91.37,-34.12,0.51,-0.11,1.2,-15.08,-24.11,0.61,1742258850.593277
0.34,0.12,-0.99,43.95,16.72,-20.02,0.77,-0.16,1.08,-16.36,18.8,-1.71,1742258850.7124832
0.73,0.58,0.18,-70.19,-72.45,82.7,0.54,-0.2,0.68,-12.27,73.12,9.7,1742258850.816986
1.18,0.71,0.29,43.52,-20.75,-16.36,0.41,-0.09,0.3,23.5,-32.35,-9.95,1742258850.933177
0.75,0.31,-0.31,-17.64,88.81,-58.96,0.63,0.04,1.16,-0.12,-44.98,-1.04,1742258851.056316
0.51,0.05,-0.88,15.69,28.56,-10.68,0.76,-0.11,1.21,-28.56,13.49,8.97,1742258851.159032
0.75,0.52,0.3,-58.04,-55.91,81.18,0.44,0.1,0.54,-36.93,15.2,-36.99,1742258851.2733262
0.65,0.65,-0.06,-174.99,-120.3,84.59,0.51,-0.16,0.74,55.97,19.53,-12.82,1742258851.393358
0.99,0.31,-0.14,51.76,51.64,-15.08,0.65,-0.01,1.01,-18.19,-22.58,-1.59,1742258851.501173
0.43,0.14,-0.8,-2.75,48.46,-21.3,0.69,-0.06,1.42,-44.62,-6.96,13.06,1742258851.615066
0.68,0.29,-0.53,-13.43,-111.15,69.03,0.45,-0.14,0.73,-35.46,54.93,18.13,1742258851.7331572
1.22,0.65,0.15,28.2,6.41,-28.32,0.38,-0.02,0.32,32.17,0.55,1.04,1742258851.852572
0.68,0.35,-0.31,-48.77,88.62,-39.37,0.68,-0.18,1.23,27.1,-12.51,9.34,1742258851.955988
0.42,0.15,-0.94,-4.46,28.2,-16.36,0.66,-0.09,1.18,-14.77,-16.17,27.71,1742258852.072777
0.87,0.32,-0.76,46.08,-104.13,32.84,0.24,0.1,0.7,-53.1,47.18,41.02,1742258852.1921952
1.16,0.3,-0.07,40.77,19.47,-42.11,0.38,-0.01,0.43,14.53,-28.32,-25.33,1742258852.297073
0.61,0.4,-0.64,4.82,15.44,15.38,0.7,-0.29,1.36,-12.21,0.85,-16.36,1742258852.412638
0.54,0.03,-0.8,-17.88,-46.26,10.99,0.68,0.05,1.05,-46.39,39.06,7.57,1742258852.532795
0.96,0.67,0.04,62.26,-95.34,44.86,0.29,0.09,0.35,36.56,65.92,3.91,1742258852.638877
1.2,0.49,0.21,34.24,7.02,-26.92,0.51,-0.09,0.29,33.57,-76.6,-37.11,1742258852.753052
0.32,0.46,-0.66,-111.88,102.05,-54.63,0.96,-0.05,0.97,73.06,-70.43,-28.32,1742258852.8727849
0.44,0.2,-0.97,-52.73,-77.64,66.28,0.56,-0.24,1.0,-20.63,71.9,-6.77,1742258852.980989
1.35,0.95,0.51,41.32,-36.99,-2.08,0.32,-0.04,0.32,-29.54,31.86,25.45,1742258853.0951161
1.07,0.67,0.24,30.82,81.12,-55.24,0.48,-0.12,0.59,29.72,-136.96,-12.21,1742258853.212645
0.39,0.08,-0.99,21.79,62.81,-46.02,0.62,-0.52,1.09,91.61,-126.83,-49.26,1742258853.3303292
0.48,0.01,-0.81,21.67,-90.09,57.01,0.5,-0.23,1.01,-34.3,100.71,2.56,1742258853.436949
1.25,1.24,0.73,11.6,-45.41,14.95,0.26,-0.22,0.3,17.7,18.86,4.46,1742258853.553524
0.79,0.55,0.07,-5.62,82.76,-45.78,0.59,-0.07,0.94,-12.51,-81.05,-6.84,1742258853.664122
0.49,0.1,-0.99,30.27,40.65,-13.79,0.66,-0.27,1.23,50.66,-32.96,-14.28,1742258853.777992
0.54,0.19,-0.26,13.98,-133.0,70.74,0.36,-0.02,0.81,-76.78,56.09,25.21,1742258853.8933508
1.36,0.57,0.21,52.43,7.87,-26.86,0.23,-0.07,0.48,15.69,22.64,-6.84,1742258854.013082
0.66,0.26,-0.27,-47.55,115.36,-49.68,0.63,-0.13,1.41,16.42,-56.58,-5.55,1742258854.120011
0.43,0.05,-0.91,21.48,0.43,-20.08,0.68,-0.08,1.34,-13.18,36.44,10.62,1742258854.23399
0.67,0.37,-0.16,14.28,-74.71,75.2,0.42,-0.11,0.73,0.98,73.61,-12.45,1742258854.353489
1.35,0.72,0.36,56.64,-3.42,-37.11,0.26,-0.09,0.08,4.27,-35.77,-0.49,1742258854.4620512
0.72,0.22,-0.47,-101.99,77.7,-14.34,0.86,-0.02,1.61,19.78,6.77,-11.11,1742258854.575927
0.42,0.16,-0.95,34.06,-60.91,36.74,0.7,0.04,1.01,-24.05,68.36,-3.36,1742258854.6924958
1.2,0.64,-0.23,207.58,27.71,-30.82,0.11,-0.52,0.44,-33.87,29.91,5.49,1742258854.812958
0.99,0.69,0.04,27.77,88.07,-65.49,0.48,0.06,0.81,-17.33,-83.13,26.18,1742258854.917901
0.39,0.28,-0.75,-3.17,65.43,-42.24,0.92,-0.07,1.18,-25.94,-32.65,-5.31,1742258855.032771
0.53,0.17,-0.83,-23.32,-88.99,83.44,0.53,-0.15,0.96,-7.51,86.0,-6.41,1742258855.157133
1.0,1.11,0.7,-17.7,-64.94,42.36,0.31,-0.26,0.26,28.02,6.59,-3.72,1742258855.259935
0.88,0.63,0.04,-6.23,78.86,-34.12,0.65,0.12,0.86,27.04,-49.74,-16.85,1742258855.3739278
0.44,0.29,-0.74,-22.52,59.02,-20.14,0.88,-0.12,1.16,-28.75,-11.54,-1.89,1742258855.495436
0.53,0.3,-0.78,-5.8,-84.53,65.12,0.55,-0.08,0.82,-32.35,51.39,14.89,1742258855.601992
1.05,1.05,0.45,-20.39,-32.23,15.26,0.28,-0.29,0.4,32.29,4.21,9.52,1742258855.7159848
0.81,0.5,-0.09,37.41,79.1,-57.68,0.65,0.02,0.82,74.65,-37.35,-39.06,1742258855.833073
0.58,0.27,-0.42,-6.71,41.81,-13.92,0.31,0.12,1.06,-41.14,-71.29,-57.68,1742258855.953116
0.69,0.28,-0.5,79.59,7.69,40.16,0.24,0.21,0.87,-99.91,-2.69,-259.7,1742258856.058143
0.64,0.63,-0.42,80.26,-11.05,84.29,0.02,-0.58,0.9,-106.69,-90.45,-291.14,1742258856.1772952
0.65,0.81,-0.22,73.18,-16.97,55.3,-0.22,-0.49,1.06,-47.55,-14.89,-110.23,1742258856.2940102
0.57,0.84,-0.04,55.11,-36.44,39.31,-0.16,-0.43,0.96,-1.4,4.03,3.78,1742258856.400023
0.51,0.87,0.04,40.16,-35.16,27.89,-0.05,-0.26,0.94,13.31,30.64,-7.75,1742258856.513949
0.46,0.91,0.16,33.81,-39.12,16.3,0.03,-0.33,0.94,49.62,-10.07,3.3,1742258856.635555
