L-AccX,L-AccY,L-AccZ,L-GyrX,L-GyrY,L-GyrZ,R-AccX,R-AccY,R-AccZ,R-GyrX,R-GyrY,R-GyrZ,timestamp
-0.03,0.12,0.01125,-0.002075,-0.00557,0.0087425,-0.00625,-0.07125,0.09875,-0.013015,-0.0025775002,-0.0020299999,1742106121.45316
-0.03625,0.12875,0.01125,-0.0025475,0.0061500003,0.0090625,-0.0275,-0.09125,0.11625,0.028137501,0.0036925,0.008255,1742106121.567374
-0.035,0.12875,-0.00125,-0.0072775004,-0.0018300001,0.002105,-0.0125,-0.1175,0.09625,0.0184025,0.020569999,0.027725,1742106121.6880069
-0.04125,0.10125,-0.0375,-0.0219275,-0.003585,0.0010225,0.03625,-0.0825,0.0625,0.017745001,0.022782499,0.031600002,1742106121.795296
-0.075,0.11,-0.045,0.02449,-0.06689499,-0.0128775,0.06625,-0.05875,0.02375,0.0134275,0.021879999,0.0225975,1742106121.9092858
-0.0325,0.09375,-0.005,-0.053467497,0.0051875,0.002305,0.08875,-0.07125,0.02125,0.0054475004,0.00531,0.0054475004,1742106122.0272708
-0.035,0.09875,-0.07375,-0.032532502,0.02678,0.0081625,0.09625,-0.0725,0.0125,-0.0024100002,0.007005,0.00769,1742106122.137203
-0.0525,0.10875,-0.1075,0.030777501,-0.042815,-0.0008075,0.1,-0.07,0.00625,0.001435,0.0040749996,0.0028225,1742106122.251295
-0.04,0.13875,0.12375,0.0290975,0.055985,-0.0071725002,0.09875,-0.07875,0.0125,0.001435,-0.0010375,0.0019525,1742106122.3668082
-0.03875,0.09125,-0.0575,-0.008712499,0.045455,0.0019375,0.11,-0.06875,0.01,0.00325,0.0083325,0.0080875,1742106122.486478
-0.04625,0.105,-0.07,0.00079250004,0.00045750002,0.0018475,0.09625,-0.08125,-0.0025,0.0040125,0.0037850002,0.001725,1742106122.593083
-0.08625,0.10625,0.035,0.033005003,-0.096405,-0.00563,0.105,-0.0625,0.005,3e-05,0.00032,0.0019525,1742106122.7089338
-0.03375,0.11625,-0.02125,-0.0113825,0.0538175,0.00016750001,0.09875,-0.06125,0.02125,-0.000245,-0.0052024997,-0.0055225003,1742106122.8265688
-0.055,0.1075,-0.0775,-0.0092775,0.00972,0.0058125,0.105,-0.0625,0.0025,0.0086825,0.002625,-0.001405,1742106122.935199
-0.065,0.11,-0.0725,0.0309,-0.092300005,-0.0037850002,0.11625,-0.05875,-0.0,0.0019225,0.0044400003,0.0015875,1742106123.04927
-0.05375,0.13125,0.00875,-0.0503225,0.02826,0.009095,0.10875,-0.09625,0.00125,-0.0010225,0.0028375,0.0001225,1742106123.167368
-0.0475,0.1125,-0.06875,-0.016555,0.020385,0.0040425,0.1075,-0.05125,-0.0075,-0.0033575,0.003585,0.000825,1742106123.277211
-0.0425,0.1025,-0.06625,0.0286875,-0.0697625,-0.0054475004,0.10875,-0.05875,-0.01125,0.0007175,0.00154,0.00232,1742106123.3912792
-0.01625,0.08375,-0.01,-0.033355,0.0208425,0.0051875,0.1075,-0.06,-0.01,0.00026,-0.00016750001,0.0016175,1742106123.506314
-0.03875,0.115,-0.05375,-0.0204925,0.019775,0.00151,0.11,-0.045,-0.01875,-0.0101475,0.00302,0.0040275003,1742106123.626909
-0.03125,0.12375,-0.07375,0.012635,-0.03073,-0.0033875,0.11,-0.05625,-0.015,-0.0008075,-0.0002125,0.0015875,1742106123.733227
-0.01,0.0975,0.02375,0.016692499,0.04448,-0.0040749996,0.10875,-0.0575,-0.01125,0.000945,-0.0004725,0.000245,1742106123.847832
-0.045,0.11,-0.04375,-0.008545,0.0275275,0.0025325,0.10875,-0.05875,-0.0175,-0.00647,0.00557,0.0078425,1742106123.9671779
-0.03625,0.1175,-0.07375,0.0078575,-0.0087275,0.0018775001,0.10875,-0.06,-0.01625,-0.0021199998,-0.00026,0.0016475001,1742106124.075097
-0.08,0.15375,0.19,0.02974,0.0117025,-0.0002125,0.11,-0.05375,-0.015,0.0004725,-0.00033500002,0.0001825,1742106124.189153
-0.04875,0.125,-0.03,-0.0036,0.0367125,0.0007475,0.11125,-0.06875,-0.0075,0.014785,0.0018300001,0.0002125,1742106124.306676
-0.04,0.11,-0.0525,-0.0028074998,0.00331,0.0022125002,0.10375,-0.0625,-0.025,0.00377,0.00087,-0.00061,1742106124.417186
-0.055,0.12,-0.04375,0.021835,-0.077194996,-0.0036925,0.11,-0.05375,-0.0175,0.0004125,-0.0007775,-0.0009925,1742106124.531262
-0.0375,0.13125,-0.00875,-0.0348675,0.04042,0.007995,0.09625,-0.07375,-0.0125,0.00058,-0.0028375,-0.0030825,1742106124.6459892
-0.04125,0.1175,-0.0575,-0.0092325,0.008225,0.0009925,0.10625,-0.05625,-0.015,0.0072775004,-0.0010675,-0.0051125004,1742106124.766423
-0.04625,0.1125,-0.05,0.0205525,-0.067565,-0.0029749998,0.11125,-0.05375,-0.0175,0.0009925,0.000245,-1.5e-05,1742106124.873183
-0.04875,0.115,0.02625,-0.03212,0.028245,0.008805,0.11,-0.06,-0.01375,-0.0003825,-0.0004725,-0.0006725,1742106124.987125
-0.03625,0.11875,-0.05375,-0.0174875,0.014175001,0.0018775001,0.1125,-0.03875,-0.01625,-0.0044549997,0.0012825,-0.000565,1742106125.106347
-0.04,0.1075,-0.0475,0.0228725,-0.056137502,-0.0051275003,0.11125,-0.05125,-0.02,0.0001375,0.0007325,0.00087,1742106125.215285
-0.03,0.10375,0.00125,-0.026549999,0.019897498,0.0051424997,0.10875,-0.055,-0.015,0.0009,-0.00035,-0.0008075,1742106125.329107
-0.0375,0.11875,-0.055,-0.020399999,0.018692499,0.0013725,0.11125,-0.03875,-0.02125,-0.0104375,0.0021525,0.00264,1742106125.4467368
-0.035,0.10875,-0.0575,0.019012501,-0.0568075,-0.0040275003,0.11125,-0.0525,-0.02,0.0007325,-0.000107500004,0.00079250004,1742106125.557424
-0.0175,0.0925,-0.015,-0.0332025,0.0092,0.0030525,0.10875,-0.05625,-0.02125,0.0006875,-0.0008075,-0.000885,1742106125.671076
-0.0325,0.1125,-0.04875,-0.0158075,0.0141,0.001235,0.1125,-0.03625,-0.02375,-0.010375,0.0024875,0.0034325,1742106125.786698
-0.0325,0.11625,-0.04875,-0.00113,-0.00714,0.00023,0.11,-0.055,-0.02125,0.0003975,-0.000245,0.00093,1742106125.906487
-0.05125,0.1125,0.12375,0.00473,-0.017424999,-0.0065450002,0.10625,-0.05625,-0.0225,0.00093,-0.0007625,-0.00032,1742106126.013185
-0.03375,0.115,-0.04125,-0.0037850002,0.02539,0.00299,0.10875,-0.06375,-0.01375,0.006835,0.0022125002,0.004685,1742106126.127222
-0.03,0.1075,-0.04875,0.0036175,0.0019075,0.0021825,0.10375,-0.0625,-0.025,0.00113,-0.0001525,-0.0013425,1742106126.245656
-0.03625,0.11625,-0.05125,0.018280001,-0.056900002,-0.00093,0.11,-0.05375,-0.02375,0.0010525,-0.00033500002,0.0001375,1742106126.3551931
-0.04,0.1275,0.0,-0.034957502,0.021879999,0.00911,0.10875,-0.07625,-0.0175,-0.00174,-0.0019225,-0.0021825,1742106126.4690711
-0.03625,0.1175,-0.0575,-0.009185,0.009582501,0.0031575,0.1075,-0.04875,-0.02125,0.00415,-0.0006725,-0.0037850002,1742106126.58641
-0.04,0.115,-0.0675,0.0210875,-0.042662498,-0.0025175,0.11,-0.05375,-0.0225,0.0013425,0.00026,0.000107500004,1742106126.6972458
-0.01375,0.08375,-0.0125,0.0009625,0.027817499,0.0001975,0.1075,-0.05375,-0.02125,7.75e-05,-0.00058,-0.0003975,1742106126.811077
-0.04,0.1175,-0.04375,-0.0119325,0.0245675,0.0003975,0.11375,-0.03625,-0.0275,-0.0106975,0.00267,0.0060425,1742106126.926564
-0.03125,0.12125,-0.07125,0.013305,-0.016235001,-0.005905,0.11,-0.0525,-0.02375,-0.00033500002,-0.00048750002,0.000825,1742106127.0465658
-0.01875,0.1125,0.06125,0.021805,0.04445,-0.0024100002,0.10875,-0.05125,-0.02375,0.0007175,-0.0007475,-0.000655,1742106127.152909
-0.0325,0.11625,-0.0375,-0.002135,0.026885001,-0.00435,0.11,-0.0475,-0.03,-0.008880001,0.00348,0.0083475,1742106127.267162
-0.0225,0.11375,-0.04125,-0.0033425,0.0095525,-0.0001225,0.1075,-0.0625,-0.02625,-0.0013575,9.25e-05,0.00064,1742106127.386915
-0.03,0.11375,-0.0525,0.0225225,-0.06018,-0.003205,0.10875,-0.05375,-0.0225,0.00023,-0.00064,-0.0001525,1742106127.4951968
-0.03,0.1325,-0.0025,-0.0346525,0.0223225,0.00537,0.10625,-0.08625,-0.01875,-0.0033275,-0.00174,-0.0034175,1742106127.609102
-0.03,0.115,-0.0575,-0.01146,0.009582501,0.003875,0.10625,-0.0575,-0.0225,0.0038,-0.00058,-0.0036624998,1742106127.7293062
-0.035,0.1325,-0.08,0.01117,-0.0261225,-0.000565,0.11,-0.0525,-0.0225,0.0012050001,0.0001825,0.0004725,1742106127.837328
0.00125,0.105,0.0375,0.01065,0.040955003,-0.0013125,0.1075,-0.05375,-0.02125,0.000107500004,-0.0010825,-0.0010825,1742106127.9508
-0.035,0.11125,-0.08,-0.0077675,0.01677,0.0021675,0.11,-0.0475,-0.0275,-0.0036175,0.001785,0.00685,1742106128.066713
-0.03,0.1125,-0.065,0.0020299999,-0.005905,0.0012975,0.11,-0.0525,-0.02,-0.0007175,-0.0003825,0.0006875,1742106128.178111
-0.05875,0.13,0.03,0.03279,-0.0367275,-0.0025775002,0.10875,-0.05375,-0.02375,0.0004125,-0.0007625,-0.000275,1742106128.2919831
-0.0275,0.1225,-0.02875,-0.008025,0.0364675,-0.0006875,0.1075,-0.05625,-0.01375,0.0077825,0.0003975,0.00612,1742106128.4066792
-0.03125,0.11,-0.0575,0.0034949998,0.00734,-0.0013275,0.105,-0.06125,-0.025,9.25e-05,0.00016750001,-0.00059500005,1742106128.5268831
-0.03375,0.1125,-0.07,0.0281075,-0.043,-0.0069875,0.11125,-0.05125,-0.0225,0.000625,-9.25e-05,0.0004275,1742106128.6342
-0.02625,0.10875,0.00875,-0.021879999,0.0157775,0.0060275,0.10875,-0.055,-0.02,0.0001975,-0.0001525,-0.000535,1742106128.748116
-0.0325,0.11875,-0.06625,-0.018280001,0.014145001,0.0025025,0.1125,-0.0375,-0.0225,-0.000945,-0.00016750001,-0.0018,1742106128.866987
-0.02875,0.11375,-0.065,0.02742,-0.0455025,-0.0064850003,0.11125,-0.05375,-0.02125,0.0009,1.5e-05,-0.0001225,1742106128.9761548
-0.03375,0.1225,0.00875,-0.0366375,0.0166325,0.00679,0.1075,-0.05375,-0.02125,-1.5e-05,-0.0005025,-0.0004425,1742106129.089919
-0.02875,0.11875,-0.06375,-0.015595,0.0148175005,0.00154,0.1075,-0.04875,-0.02125,0.000365,-0.0006875,-0.0029749998,1742106129.208458
-0.02875,0.12,-0.06,1.5e-05,-0.008515,0.0013875001,0.11125,-0.05375,-0.0225,0.001115,0.0001825,-1.5e-05,1742106129.318128
-0.0525,0.12875,0.1075,0.0346975,-0.0078425,-0.00154,0.1075,-0.0525,-0.02,-0.0001525,-0.0004275,-0.0003825,1742106129.4320939
-0.03,0.115,-0.045,-0.008025,0.0320125,-0.00023,0.10875,-0.05625,-0.0275,0.00673,0.0015875,0.0054475004,1742106129.546179
-0.0275,0.10875,-0.05625,4.5e-05,0.0009625,0.0012975,0.10875,-0.05875,-0.025,-0.00033500002,0.0001225,-0.0001225,1742106129.666937
-0.0325,0.11625,-0.05875,0.0195775,-0.051025003,-0.00348,0.11,-0.0525,-0.02375,0.0007025,-0.0001375,-0.0004275,1742106129.7741902
-0.03,0.125,-0.0025,-0.029907499,0.021225,0.0046075,0.105,-0.08125,-0.0225,-0.00348,-0.00048750002,-0.0027625,1742106129.887986
-0.03,0.12,-0.0625,-0.011855,0.0107425,0.0010525,0.105,-0.0575,-0.025,0.0021825,-0.0008075,-0.0025025,1742106130.005883
-0.035,0.12375,-0.075,0.017075,-0.028275,-0.0038599998,0.11,-0.0525,-0.02375,0.000535,0.0001525,-3e-05,1742106130.116102
0.00375,0.08125,0.01,0.0027774998,0.0264275,0.00087,0.10875,-0.0525,-0.02,-0.000107500004,-0.00032,-0.000365,1742106130.229873
-0.02625,0.11375,-0.0525,-0.0098575,0.0196375,0.0020899998,0.11375,-0.0375,-0.0275,-0.0061500003,0.0015875,0.003555,1742106130.3468668
-0.0275,0.1175,-0.07,0.00998,-0.020477502,-0.0009775,0.11,-0.05375,-0.02125,0.0003975,-0.00023,-7.75e-05,1742106130.458286
-0.01875,0.125,0.05625,0.012955,0.027602501,-0.00045750002,0.10875,-0.0525,-0.02375,0.0001975,-0.00048750002,-0.0007175,1742106130.571903
-0.03,0.1125,-0.0525,-0.01085,0.0181725,0.0018150001,0.11375,-0.03875,-0.025,-0.0032950002,0.0022125002,0.004395,1742106130.687835
-0.02375,0.1125,-0.055,0.0019075,-0.00554,0.00052,0.11,-0.05375,-0.0225,-0.000275,-0.0001525,0.0004425,1742106130.806963
-0.0475,0.1275,0.04,0.02658,-0.037720002,-0.0018,0.10875,-0.0525,-0.025,0.0004125,-0.000365,-0.00023,1742106130.913982
-0.02625,0.12375,-0.02625,-0.0054175,0.0243825,-0.00048750002,0.10625,-0.0575,-0.0175,0.0051875,0.00064,0.0040425,1742106131.0281248
-0.02625,0.1175,-0.055,-0.0030525,0.0072025,7.75e-05,0.10625,-0.0575,-0.02625,-0.0002125,0.0001375,-0.000305,1742106131.1467679
-0.0275,0.12,-0.05625,0.018662501,-0.0347125,-0.003525,0.11,-0.05125,-0.025,0.00052,9.25e-05,-0.00016750001,1742106131.2559779
-0.02125,0.11375,-0.0075,-0.025557501,0.012069999,0.004105,0.10875,-0.05625,-0.02125,0.000107500004,-0.0001225,-0.0010375,1742106131.369931
-0.0275,0.12125,-0.06,-0.01538,0.013335,0.00322,0.11,-0.04375,-0.02375,0.001235,-0.00052,-0.002,1742106131.486869
-0.02875,0.12,-0.06125,0.012925,-0.019897498,-0.001525,0.11,-0.05375,-0.0225,0.000825,0.0002125,6e-05,1742106131.5980108
-0.00375,0.09875,0.005,0.015105,0.028350001,-0.0016175,0.1075,-0.0525,-0.02125,1.5e-05,-0.0008075,-0.0004425,1742106131.711862
-0.02875,0.11375,-0.0475,-0.012435,0.01918,0.0028525,0.11375,-0.03875,-0.025,-0.00415,0.00177,0.0039975,1742106131.827262
-0.02875,0.11375,-0.0525,9.25e-05,-0.0033575,0.0010975,0.11,-0.0525,-0.0225,-7.75e-05,-0.000535,0.0004275,1742106131.947082
-0.02875,0.12,-0.02875,0.02301,-0.041564997,-0.0045925,0.10875,-0.05125,-0.02375,0.000305,-0.00045750002,-0.00048750002,1742106132.0540328
-0.02375,0.12375,-0.01625,-0.01384,0.02948,0.0034625002,0.11125,-0.055,-0.01375,0.000855,-0.0010975,-0.0012975,1742106132.167991
-0.02875,0.1175,-0.0575,-0.0018625,0.0063024997,0.00061,0.10625,-0.0575,-0.025,-0.000245,0.0001225,-0.0007175,1742106132.286879
-0.0275,0.11875,-0.05125,0.0167075,-0.033585,-0.0047,0.11125,-0.05,-0.025,0.00033500002,0.0001375,0.000305,1742106132.3960161
-0.02125,0.11375,-0.00875,-0.0187675,0.008042499,0.0043325,0.10875,-0.055,-0.02125,0.0001375,-0.0001975,-0.00059500005,1742106132.509996
-0.0275,0.12,-0.05125,-0.01509,0.0118875,0.0022125002,0.11125,-0.04,-0.0225,0.0001375,-0.0003825,-0.0016325001,1742106132.626556
-0.0275,0.12,-0.05625,0.004395,-0.01036,-0.000655,0.11125,-0.0525,-0.0225,0.000625,-0.0001825,0.0001375,1742106132.737988
-0.03375,0.1275,0.09,0.02626,-0.019012501,-0.001115,0.10875,-0.05125,-0.02125,6e-05,-0.00023,-0.0001225,1742106132.851968
-0.03125,0.125,-0.02625,-0.0101925,0.0272225,0.00122,0.11125,-0.04875,-0.02625,0.0021525,0.001405,0.0045324997,1742106132.9670742
-0.02,0.11375,-0.0475,0.0001825,0.0060575,0.00059500005,0.11,-0.055,-0.02375,-0.00029,-0.000107500004,-1.5e-05,1742106133.0869172
-0.025,0.12,-0.05125,0.019515,-0.0372475,-0.0034625002,0.11,-0.05125,-0.025,0.00059500005,-0.00035,0.0,1742106133.1940181
-0.01375,0.10625,-0.005,-0.030365,0.0072625,0.0048525,0.10875,-0.0575,-0.02125,0.0001375,-0.0002125,-0.0007625,1742106133.3078752
-0.02625,0.115,-0.05625,-0.018615,0.0148,0.003905,0.1075,-0.0475,-0.0225,0.0013125,-0.0002125,-0.0027625,1742106133.427299
-0.02875,0.12,-0.065,0.00737,-0.015685,-0.0012050001,0.11125,-0.0525,-0.02125,0.00048750002,-6e-05,0.0001975,1742106133.535979
-0.02125,0.1325,0.08625,0.02774,-0.005035,0.0016925,0.10875,-0.0525,-0.02125,0.00016750001,-0.000565,-0.00033500002,1742106133.6498141
-0.025,0.1275,-0.025,-0.0033575,0.023682501,0.000625,0.11125,-0.05,-0.025,-0.0001525,0.00151,0.0042875,1742106133.766558
-0.025,0.11875,-0.04625,0.00061,-9.25e-05,0.000245,0.10875,-0.05875,-0.025,-0.0001975,-4.5e-05,-0.0006725,1742106133.877882
-0.03125,0.11875,-0.04,0.0205225,-0.0388025,-0.00319,0.11,-0.05125,-0.0225,0.00035,0.00016750001,-0.0001825,1742106133.99199
-0.02125,0.13125,-0.0125,-0.019897498,0.019685,0.00377,0.10875,-0.06,-0.0125,0.0027474998,-0.001405,0.0001375,1742106134.106854
-0.03,0.1225,-0.05375,-0.00966,0.011779999,0.001435,0.1075,-0.0575,-0.0275,-0.000275,0.0001975,-0.002105,1742106134.219877
-0.02875,0.12,-0.06875,0.0139625,-0.026535,-0.0030975002,0.11125,-0.04875,-0.02125,0.000535,0.000275,0.0001975,1742106134.3339572
-0.0,0.07875,-0.00625,0.0142525,0.027985001,-0.000885,0.10875,-0.055,-0.02125,0.0001975,-0.000365,-0.00064,1742106134.447863
-0.02875,0.1125,-0.0525,-0.0106975,0.02176,0.002915,0.115,-0.0325,-0.025,-0.0033875,0.000655,0.0010375,1742106134.5670881
-0.025,0.1175,-0.05625,0.0022574998,-0.0050975,0.00016750001,0.11125,-0.055,-0.02,0.0002125,-0.0004725,-0.000107500004,1742106134.6758158
-0.03375,0.13125,0.0875,0.0272375,0.0045475,-0.00061,0.10875,-0.0525,-0.02375,0.00032,-0.0004725,-0.00026,1742106134.7897012
-0.02625,0.1225,-0.03125,-0.0056925,0.02327,0.002395,0.11,-0.05,-0.02375,0.0013725,0.0013875001,0.00499,1742106134.9069529
-0.02625,0.11375,-0.04625,-0.00177,0.004165,0.0001975,0.10875,-0.05875,-0.0225,-0.00058,-0.0001825,-0.0007175,1742106135.0178618
-0.025,0.11625,-0.0625,0.01825,-0.039825,-0.0040599997,0.11,-0.0525,-0.025,0.000245,-0.00029,-0.000245,1742106135.131883
-0.0275,0.13125,-0.02875,-0.0220175,0.0059499997,0.0033725,0.10625,-0.07625,-0.02375,-0.0031575,0.000305,-0.0025775002,1742106135.250413
-0.02875,0.12,-0.04375,-0.01355,0.00711,0.00331,0.10625,-0.055,-0.02375,0.000107500004,0.000365,-0.0018150001,1742106135.366493
-0.02875,0.12125,-0.05625,0.011445,-0.017409999,-0.0046225,0.11125,-0.05125,-0.02125,0.0004425,0.0,0.00045750002,1742106135.473888
-0.01,0.085,-0.0075,0.000245,0.010375,-0.00058,0.10875,-0.05375,-0.02375,0.0001525,-0.000275,-0.000625,1742106135.5878232
-0.03125,0.115,-0.03375,-0.01587,0.0213925,0.0031575,0.115,-0.03375,-0.0225,-0.0012675,0.00061,-0.0005025,1742106135.709963
-0.02875,0.11875,-0.06875,0.0001225,-0.00055,-0.0005025,0.10875,-0.06,-0.02375,0.0007475,-0.00033500002,0.0007025,1742106135.815874
-0.04875,0.11625,0.07875,0.024292499,-0.0196525,0.00116,0.1075,-0.05375,-0.025,0.0003975,0.0001225,-0.000535,1742106135.929712
-0.0275,0.11625,-0.035,-0.0036475,0.023835,-0.00064,0.10875,-0.05375,-0.02125,0.0037075,0.0009625,0.0062725,1742106136.047819
-0.02625,0.115,-0.0525,0.000825,0.0049125,0.0013425,0.1075,-0.06375,-0.025,-0.00016750001,-6e-05,-0.001755,1742106136.157707
-0.02625,0.11625,-0.0775,0.0246125,-0.048905,-0.007355,0.11,-0.05,-0.02375,0.0004125,6e-05,-0.00033500002,1742106136.27194
-0.02375,0.135,-0.025,-0.02002,0.0139475,0.0043025,0.11,-0.07625,-0.0175,-0.0021825,-0.00113,-0.0024249998,1742106136.3873658
-0.0275,0.12125,-0.04375,-0.01265,0.011855,0.0037375,0.10625,-0.0575,-0.025,0.00029,0.0001825,-0.0031275,1742106136.506735
-0.02875,0.1225,-0.06125,0.01619,-0.0181725,-0.00325,0.1125,-0.04875,-0.02,7.75e-05,-1.5e-05,0.00064,1742106136.613824
-0.005,0.0775,-0.02125,-0.008255,0.0109250005,0.00264,0.10875,-0.05375,-0.0225,0.00045750002,-0.00035,-0.00016750001,1742106136.7303228
-0.02625,0.11375,-0.03625,-0.011275,0.017455,0.001405,0.115,-0.03,-0.02375,-0.0021525,0.000245,-0.0010375,1742106136.847716
-0.0275,0.12,-0.06375,0.0016175,-0.006455,-0.001145,0.11,-0.05625,-0.02125,0.000655,-0.000535,0.00055,1742106136.955849
-0.03625,0.12625,0.115,0.0237875,-0.0036,0.00351,0.10875,-0.05125,-0.025,0.00016750001,-0.000245,-6e-05,1742106137.069621
-0.02375,0.11125,-0.02875,-0.0025325,0.025969999,-0.00093,0.11125,-0.0475,-0.02375,0.00267,0.0015725,0.006805,1742106137.188492
-0.02875,0.11625,-0.0525,-0.009582501,0.0137175,0.00177,0.105,-0.065,-0.0275,4.5e-05,0.00023,-0.002595,1742106137.2977312
-0.025,0.115,-0.0925,0.028182501,-0.05223,-0.008315,0.11125,-0.04875,-0.0225,0.000305,9.25e-05,-0.0006725,1742106137.4117918
-0.02375,0.14125,-0.02875,-0.0225375,0.017212499,0.0037375,0.10875,-0.08625,-0.01875,-0.0045625,-0.000107500004,-0.003815,1742106137.52767
-0.02875,0.1175,-0.05125,-0.0139475,0.014907501,0.003005,0.105,-0.055,-0.02375,0.0012975,-0.000365,-0.0054325,1742106137.6471071
-0.0275,0.12,-0.07125,0.0166325,-0.0214225,-0.0030375,0.1125,-0.0475,-0.02125,0.00026,-0.0004425,0.0009625,1742106137.754004
-0.0025,0.09375,0.0125,0.018737499,0.033127498,-0.00293,0.1075,-0.05375,-0.02375,0.00023,-0.0004425,-0.0004125,1742106137.868004
-0.02625,0.11125,-0.04375,-0.015305,0.0213775,0.0018150001,0.11625,-0.02625,-0.02625,-0.0040749996,0.0020150002,0.0059975,1742106137.987662
-0.03,0.11625,-0.06875,0.0010525,-0.0034325,-0.000275,0.10875,-0.06125,-0.02375,0.0,-0.000535,0.0004725,1742106138.095979
-0.0425,0.1475,0.1375,0.03302,-0.0287025,0.0021675,0.1075,-0.05375,-0.02375,0.000245,-6e-05,-0.0004425,1742106138.2096431
-0.01625,0.12,-0.02125,0.0016325001,0.0254525,-0.0013275,0.1075,-0.0525,-0.02125,0.0048825,0.0007175,0.008805,1742106138.3274848
-0.02875,0.11875,-0.045,-0.0075675,0.0125275,0.0027625,0.105,-0.06625,-0.0275,0.0010225,0.0004725,-0.0042275,1742106138.446743
-0.01875,0.115,-0.07625,0.020782499,-0.0364075,-0.0055075004,0.11125,-0.0475,-0.02,0.00035,-0.0004125,-0.0001225,1742106138.551821
-0.02125,0.1325,-0.0375,-0.02832,0.0018475,0.00563,0.1025,-0.08,-0.0275,-0.0040275003,-0.0001825,-0.0028375,1742106138.667598
-0.02375,0.11875,-0.0325,-0.016815001,0.011275,0.00351,0.105,-0.05,-0.02,-0.0007025,-0.00045750002,-0.0037850002,1742106138.7876182
-0.0275,0.125,-0.0675,0.0042425,-0.0050500003,-0.0010075001,0.1125,-0.04875,-0.02,-0.0002125,-0.00026,0.00154,1742106138.8938408
-0.0325,0.1525,0.12125,0.035705,0.0193025,-0.0010975,0.1075,-0.0525,-0.025,0.000107500004,-0.00033500002,-0.000565,1742106139.00761
-0.025,0.11125,-0.035,-0.011229999,0.0216975,0.0014500001,0.11375,-0.03625,-0.0275,0.002715,0.0016625,0.0081025,1742106139.126934
-0.025,0.11625,-0.06375,0.0018925001,-0.0007025,0.0004275,0.10625,-0.06625,-0.02375,-0.00023,-0.00023,-0.000535,1742106139.235708
-0.05875,0.13125,0.1075,0.0326375,-0.0413975,-0.0021825,0.11,-0.05125,-0.02375,0.000245,7.75e-05,-0.00084,1742106139.3497128
-0.0175,0.12,-0.02375,-6e-05,0.024155,0.0018775001,0.1075,-0.055,-0.02,0.00473,0.00035,0.0074625,1742106139.467992
-0.03,0.1225,-0.0575,-0.00537,0.008315,0.002045,0.105,-0.06375,-0.02875,0.00084,0.0003825,-0.00322,1742106139.577755
-0.02375,0.1175,-0.075,0.027084999,-0.048722498,-0.0063625,0.1125,-0.0475,-0.02125,0.00048750002,4.5e-05,-7.75e-05,1742106139.69202
-0.02125,0.13125,-0.02625,-0.0119775,0.018860001,0.0042125,0.1125,-0.06625,-0.01125,0.0016175,-0.0016925,-0.00093,1742106139.807434
-0.0275,0.1225,-0.045,-0.0074775,0.014785,0.0016475001,0.10625,-0.05625,-0.02375,0.000625,0.00052,-0.003175,1742106139.927407
-0.02625,0.12,-0.0775,0.017455,-0.020584999,-0.00534,0.1125,-0.0475,-0.02125,0.00029,-4.5e-05,4.5e-05,1742106140.033911
0.00125,0.07,-0.01375,0.012665,0.028397499,-0.0020599999,0.10875,-0.05375,-0.02375,0.00045750002,-0.000275,-0.00035,1742106140.147624
-0.025,0.11375,-0.04,-0.016495,0.0136425,0.0019525,0.11625,-0.0275,-0.025,-0.0030375,0.00125,0.0022425,1742106140.266613
-0.02625,0.1175,-0.05875,-0.0020899998,-0.0007325,3e-05,0.11,-0.0575,-0.0225,0.0004275,-0.00035,0.00113,1742106140.375817
-0.0525,0.125,0.095,0.024872499,-0.0146175,0.00116,0.10875,-0.0525,-0.025,0.000275,-0.00016750001,-0.0005025,1742106140.48949
-0.02,0.1225,-0.025,-0.0003825,0.02304,-0.00016750001,0.10875,-0.0525,-0.02125,0.0036175,0.00091500004,0.006805,1742106140.60693
-0.025,0.1175,-0.05,-0.0028525,0.00798,0.0019375,0.10625,-0.0625,-0.02625,-0.000305,3e-05,-0.001465,1742106140.717601
-0.02,0.115,-0.06,0.023285,-0.03273,-0.004395,0.11125,-0.05,-0.0225,0.00035,0.00032,-6e-05,1742106140.831702
-0.02375,0.13375,-0.03,-0.030365,0.00033500002,0.003555,0.105,-0.07125,-0.025,-0.0022125002,-0.0004125,-0.0016325001,1742106140.947389
-0.0275,0.12,-0.0425,-0.0175775,0.0131075,0.0036624998,0.1075,-0.04375,-0.02,-0.000305,0.0001525,-0.002395,1742106141.067532
-0.0275,0.12125,-0.06625,0.0025475,-0.0057225,-0.00064,0.1125,-0.04875,-0.02,1.5e-05,-0.0004275,0.001525,1742106141.173708
-0.045,0.13625,0.12,0.032455,-0.0001525,-0.0005025,0.10875,-0.05125,-0.025,0.0001825,-0.000305,-0.0004725,1742106141.2876601
-0.02375,0.12,-0.02125,0.00122,0.0281525,0.0007025,0.11125,-0.04625,-0.02375,0.0043025,0.0008075,0.0061950004,1742106141.407048
-0.025,0.12,-0.05125,-0.0027474998,0.0073249997,0.0004725,0.10875,-0.06,-0.02375,-0.00064,-0.00033500002,-0.0011900001,1742106141.5156019
-0.02125,0.115,-0.06625,0.0290375,-0.04889,-0.005355,0.11125,-0.04875,-0.025,0.00032,0.000107500004,-0.000305,1742106141.629719
-0.02375,0.13625,-0.01375,-0.0219275,0.013854999,0.0040749996,0.11125,-0.06875,-0.015,-0.0037525,-0.00059500005,-0.003005,1742106141.750666
-0.02625,0.125,-0.0475,-0.0089724995,0.0106975,0.0025175,0.105,-0.0575,-0.025,0.000855,0.0003825,-0.00322,1742106141.857617
-0.025,0.12375,-0.06,0.013625,-0.02452,-0.0024725,0.1125,-0.04625,-0.02125,0.0001825,0.0004275,0.0007325,1742106141.9717178
-0.0075,0.09375,-0.02375,-0.026337499,0.0024725,0.0019824998,0.10875,-0.0525,-0.02125,7.75e-05,-0.00052,-0.000885,1742106142.0871391
-0.0225,0.11375,-0.0375,-0.017350001,0.010865,0.002655,0.11625,-0.02875,-0.02375,-0.00302,0.0007475,-0.00116,1742106142.1996632
-0.02625,0.12,-0.06125,-0.005295,0.001725,0.0010375,0.11125,-0.05375,-0.02125,0.00059500005,-0.00029,0.00113,1742106142.31367
-0.045,0.12375,0.01375,0.0273425,-0.035462502,-0.000655,0.10875,-0.0525,-0.025,4.5e-05,-0.0001525,-0.000305,1742106142.427972
-0.02375,0.125,-0.0225,-0.0055075004,0.026504999,0.0020599999,0.10875,-0.05375,-0.02,0.0045175,-0.0007775,0.0037075,1742106142.546724
-0.02875,0.1225,-0.04625,0.0015875,0.0095675,0.0018150001,0.10625,-0.06,-0.02625,-0.00061,-0.0002125,-0.001175,1742106142.655634
-0.02625,0.11875,-0.05125,0.0264275,-0.0320425,-0.0063175,0.11125,-0.0475,-0.02375,0.00048750002,0.00033500002,-6e-05,1742106142.769727
-0.01875,0.11375,-0.01375,-0.024139998,0.0056775,0.0029749998,0.1075,-0.0575,-0.0225,0.0001525,-0.00035,-0.000565,1742106142.887406
-0.02625,0.11625,-0.04,-0.017272498,0.0145425,0.0012050001,0.11125,-0.04,-0.02375,0.0,-4.5e-05,-0.00296,1742106143.00628
-0.02375,0.11625,-0.055,-0.0004125,-0.0066075,-0.00091500004,0.11125,-0.0525,-0.02125,0.0005025,-0.0003825,0.000655,1742106143.1119099
-0.0525,0.1325,0.10125,0.0329425,-0.009095,0.0004725,0.10875,-0.0525,-0.02625,0.0001975,-0.0004425,-0.0001975,1742106143.229729
-0.0225,0.12125,-0.01375,-0.0072025,0.030715,0.002685,0.10875,-0.055,-0.02,0.00354,0.00084,0.0060125,1742106143.346787
-0.02875,0.11875,-0.05375,-0.0056149997,0.0099475,0.002075,0.1075,-0.06125,-0.0275,-0.00035,0.00032,-0.0012975,1742106143.4535098
-0.02375,0.11375,-0.06125,0.023772499,-0.0396575,-0.0055225003,0.1125,-0.0475,-0.0225,0.0004425,0.000107500004,-0.00045750002,1742106143.5677152
-0.0225,0.11125,-0.00125,-0.026475001,0.0077049998,0.0036475,0.11,-0.0525,-0.02125,0.0003975,-0.00035,-0.0003975,1742106143.688344
-0.02875,0.12,-0.05875,-0.0143275,0.0157775,0.0021825,0.1075,-0.0475,-0.02375,0.001115,-0.00016750001,-0.002915,1742106143.7956579
-0.0275,0.11875,-0.06,0.0077675,-0.01767,-0.0020150002,0.1125,-0.05,-0.02125,0.0003975,4.5e-05,0.00023,1742106143.9095821
-0.02625,0.13,0.08375,0.0299825,0.027985001,-0.00059500005,0.10875,-0.05125,-0.0225,-4.5e-05,-0.0006725,-0.000275,1742106144.027355
-0.0325,0.12125,-0.02625,-0.005585,0.031692497,0.00059500005,0.11375,-0.04,-0.025,-0.00087,0.00116,0.00348,1742106144.137644
-0.025,0.1175,-0.05375,0.005035,-0.003235,-0.0007025,0.11125,-0.0525,-0.02125,-0.0002125,-0.00045750002,0.0004125,1742106144.25158
-0.03875,0.125,-0.00125,0.0296475,-0.0358275,0.0002125,0.10875,-0.0525,-0.025,0.000365,-0.0003825,9.25e-05,1742106144.3672562
-0.02875,0.125,-0.02125,-0.0148,0.027405001,0.0026099999,0.11,-0.05875,-0.015,0.0030825,-0.00058,0.0022125002,1742106144.487496
-0.03125,0.11875,-0.055,-0.001755,0.00351,0.00229,0.10875,-0.05625,-0.0275,-0.0001525,6e-05,-0.00016750001,1742106144.593508
-0.03125,0.1175,-0.05375,0.01645,-0.03157,-0.0010375,0.11125,-0.05,-0.02375,0.000535,0.0002125,-0.0004125,1742106144.7094688
-0.01625,0.0975,-0.01875,-0.023025,0.00502,0.0010075001,0.11125,-0.05125,-0.02,0.000275,-0.000275,-0.0001225,1742106144.8273978
-0.03,0.11125,-0.04625,-0.0119025,0.01857,0.00319,0.11375,-0.0375,-0.02375,-0.00171,0.000625,-9.25e-05,1742106144.93557
-0.03,0.1125,-0.04625,-0.00035,0.0013875001,0.0024575,0.11125,-0.05125,-0.02125,0.000655,-0.00032,0.000655,1742106145.049503
-0.03875,0.1225,-0.0425,0.02475,-0.047957502,-0.0010375,0.10875,-0.05,-0.02375,0.00029,-0.000565,0.0001375,1742106145.167271
-0.03375,0.12875,-0.01625,-0.0254675,0.018737499,0.0022574998,0.105,-0.065,-0.0225,0.0009625,-0.0010375,-0.002685,1742106145.277524
-0.03625,0.12125,-0.04875,-0.0078125,0.00702,0.0020299999,0.105,-0.05625,-0.02625,-0.00035,-0.0001525,-0.00055,1742106145.391537
-0.03125,0.11625,-0.055,0.0230875,-0.0316475,-0.0041799997,0.1125,-0.04625,-0.0225,0.00026,0.0004125,0.00029,1742106145.506592
-0.03125,0.11625,-0.01375,-0.0320125,-0.0071725002,0.0016175,0.11125,-0.05125,-0.02125,0.00026,-0.0003975,-0.00029,1742106145.6270561
-0.03375,0.11125,-0.04125,-0.021302499,0.015319999,0.0024575,0.11,-0.04,-0.0225,-0.0015875,0.00055,-0.001495,1742106145.7335198
-0.03625,0.1175,-0.0725,-0.0013875001,-0.00331,0.0016775,0.1125,-0.05,-0.02125,0.0001225,-1.5e-05,0.001175,1742106145.847842
-0.08,0.14625,0.10875,0.033982497,-0.0174875,0.0010075001,0.11,-0.04875,-0.02375,0.0001975,-0.0004125,-0.0001525,1742106145.967381
-0.02875,0.125,-0.02375,0.0072175004,0.03125,0.0001525,0.11125,-0.05875,-0.0175,0.0028525,0.00055,0.0013425,1742106146.075412
-0.0325,0.11,-0.045,-0.003175,0.00978,0.0054025003,0.11,-0.0525,-0.02625,-0.0012825,0.00023,-0.0003975,1742106146.18952
-0.0375,0.12125,-0.05,0.027207501,-0.04628,-0.00467,0.1125,-0.04625,-0.0225,0.000275,0.000107500004,-0.000107500004,1742106146.3075578
-0.0375,0.13,-0.015,-0.028549999,0.0133525,0.00267,0.1075,-0.06125,-0.02375,0.00035,-0.002,-0.0016025,1742106146.4175591
-0.0375,0.1175,-0.045,-0.015319999,0.0142375,0.0025775002,0.1075,-0.04875,-0.0225,0.0027474998,0.0,-0.003815,1742106146.5314429
-0.04,0.11375,-0.0725,0.021362498,-0.0281975,-0.0072325002,0.11375,-0.04375,-0.0225,-7.75e-05,0.000275,0.00084,1742106146.646927
-0.0125,0.06375,-0.0,-0.0178675,0.0142675,0.0018775001,0.11,-0.04875,-0.0225,0.0004275,-0.0001225,-0.0001975,1742106146.7666812
-0.0425,0.11375,-0.03875,-0.0107725,0.03041,0.00267,0.11875,-0.0275,-0.025,-0.0065450002,0.0021825,0.00467,1742106146.873565
-0.03375,0.115,-0.07125,0.006515,-0.011657501,-0.0016925,0.11125,-0.04875,-0.025,0.0010975,-0.0001525,0.00033500002,1742106146.987815
-0.07625,0.14625,0.135,0.0343775,-0.002915,-0.00122,0.11125,-0.0475,-0.025,0.00048750002,-0.0001525,-0.0004425,1742106147.1073909
-0.03625,0.1175,-0.03125,0.0013725,0.029815001,0.001235,0.115,-0.0525,-0.01875,0.0024725,0.0022425,0.00267,1742106147.215467
-0.035,0.11125,-0.0375,-0.00348,0.010605,0.00052,0.11,-0.05375,-0.02875,-0.0018475,0.0001975,0.0004725,1742106147.329535
-0.0325,0.11125,-0.065,0.0237875,-0.0394125,-0.0042425,0.1125,-0.04625,-0.025,0.0001375,-1.5e-05,-0.00023,1742106147.447579
-0.035,0.11375,-0.00375,-0.043855,-0.0033725,0.00154,0.1125,-0.0475,-0.025,3e-05,-0.000107500004,-0.00045750002,1742106147.557773
-0.0325,0.10875,-0.0475,-0.0189675,0.0130625,-0.00023,0.115,-0.03125,-0.025,-0.0013125,0.00026,-0.0020150002,1742106147.671525
-0.03375,0.11375,-0.0675,-0.000825,-0.00142,0.000855,0.1125,-0.0475,-0.025,0.000885,-6e-05,0.00061,1742106147.787473
-0.06625,0.145,0.0575,0.031495,-0.0292825,0.00052,0.11,-0.04875,-0.025,0.00023,-0.00045750002,-4.5e-05,1742106147.907466
-0.04,0.12,-0.0325,-0.017335,0.027069999,-0.0025175,0.1075,-0.06125,-0.02,0.0040275003,0.00055,-0.0002125,1742106148.013537
-0.03125,0.11,-0.06375,-0.0042275,0.0083925,0.0016625,0.11,-0.05375,-0.03,-0.0018475,0.000305,0.000305,1742106148.12744
-0.0375,0.11375,-0.07,0.0322575,-0.0396725,-0.00377,0.1125,-0.045,-0.02625,0.0001825,-7.75e-05,-0.0001525,1742106148.241565
-0.02875,0.1075,-0.0,-0.039794996,0.0072175004,0.00061,0.1125,-0.05,-0.02125,0.0008075,-0.000625,-0.00058,1742106148.3554602
-0.03125,0.105,-0.05125,-0.0143575,0.023559999,0.004195,0.11625,-0.03125,-0.02375,-0.0016625,0.0004275,-0.0013575,1742106148.469457
-0.035,0.11875,-0.0725,0.00441,-0.0089425,-0.00033500002,0.1125,-0.04875,-0.02125,0.0009,-0.000625,0.0006725,1742106148.587425
-0.06875,0.1475,0.145,0.043,0.0077049998,-0.001405,0.11,-0.04875,-0.02625,0.00033500002,-0.00052,-0.0003825,1742106148.6973472
-0.03375,0.115,-0.0275,-0.0034949998,0.0370625,-0.0002125,0.1125,-0.05375,-0.02,0.000535,0.0019375,0.0045175,1742106148.81165
-0.035,0.1125,-0.0525,-0.0030675002,0.0113825,0.00093,0.11125,-0.05375,-0.025,-0.0016025,-0.0001825,0.000305,1742106148.927549
-0.03,0.10875,-0.0575,0.0267175,-0.0525825,-0.0040125,0.1125,-0.045,-0.025,0.0005025,-0.0003825,-0.000565,1742106149.0478332
-0.03375,0.12125,0.0075,-0.04454,0.0109875,0.001175,0.1125,-0.04875,-0.0225,0.000275,-0.00033500002,-0.00016750001,1742106149.153422
-0.03,0.10875,-0.0575,-0.024780001,0.0189525,0.0036775,0.11125,-0.03875,-0.02375,-0.0009625,-0.0001525,-0.0020299999,1742106149.267413
-0.04125,0.1175,-0.0925,0.010605,-0.0204175,0.001785,0.11375,-0.04625,-0.02125,-0.0001225,0.0,0.000535,1742106149.387939
-0.06625,0.13,0.16125,0.042205002,0.02745,-0.0007025,0.11125,-0.045,-0.0225,0.000107500004,-0.000535,-0.0003825,1742106149.495328
-0.04125,0.1125,-0.02,-0.000305,0.048919998,0.0006725,0.11625,-0.0475,-0.02125,-0.005035,0.0030525,0.007675,1742106149.609426
-0.03625,0.105,-0.06875,-0.004395,0.007735,0.0025775002,0.11125,-0.055,-0.02875,-0.0024100002,0.0004125,0.001785,1742106149.7297971
-0.045,0.11375,-0.05375,0.038009997,-0.064849995,-0.0037075,0.1125,-0.0475,-0.02375,0.00059500005,-0.0001525,-0.0007025,1742106149.8375459
-0.0475,0.1175,0.0025,-0.049652502,0.0214375,0.0020150002,0.11625,-0.05375,-0.01875,-0.00061,-0.0007175,-6e-05,1742106149.951257
-0.0425,0.1175,-0.065,-0.017959999,0.010162501,0.0046550003,0.11,-0.0375,-0.0225,-0.00032,-0.0001825,-0.0027774998,1742106150.0672572
-0.04625,0.11375,-0.0625,0.0225225,-0.04013,-0.0069425,0.11375,-0.04375,-0.02125,0.000565,0.0001525,0.00061,1742106150.188362
-0.02625,0.08125,0.0425,-0.0099949995,0.028885,0.00023,0.11125,-0.04875,-0.02125,0.0,-0.0007775,-0.0007175,1742106150.293257
-0.045,0.115,-0.04875,-0.01587,0.031205,0.000855,0.11875,-0.025,-0.0275,-0.0069274995,0.0032650002,0.0061500003,1742106150.407872
-0.03375,0.11,-0.055,-0.00079250004,-0.0015575,-0.0004275,0.115,-0.04375,-0.0225,0.0014500001,-0.000565,-0.0004275,1742106150.52724
-0.04625,0.11375,-0.035,0.042907503,-0.075592496,-0.0038299998,0.11,-0.0475,-0.025,0.0002125,-0.00026,-0.0001975,1742106150.635556
-0.035,0.1275,-0.02,-0.0372625,0.0396575,0.0024425,0.1025,-0.0575,-0.02625,0.0046375,-0.0018925001,-0.0031424998,1742106150.7508569
-0.0375,0.11125,-0.055,-0.014175001,0.020370001,0.0024249998,0.10625,-0.05375,-0.03,0.004485,-0.0011900001,-0.00499,1742106150.867289
-0.03875,0.1075,-0.08,0.03131,-0.04631,-0.0054025003,0.11375,-0.0425,-0.02375,0.0004275,0.000365,0.00058,1742106150.977458
-0.02125,0.065,0.04625,-0.02008,0.0246125,-0.00348,0.1125,-0.04625,-0.02375,0.000107500004,3e-05,-0.00058,1742106151.091375
-0.04125,0.11,-0.04,-0.0202175,0.0356,0.0027625,0.12,-0.02,-0.03125,-0.0096275,0.0042725,0.008865,1742106151.2090912
-0.03125,0.10625,-0.04625,-0.006515,0.00949,-0.00142,0.11375,-0.04875,-0.0225,0.0007775,-0.0010225,0.00035,1742106151.327683
-0.035,0.10625,-0.07875,0.0337975,-0.0658725,-0.0015725,0.11,-0.045,-0.0275,-0.000107500004,-0.0001375,-0.0010375,1742106151.4334998
-0.0325,0.11625,0.00375,-0.0361325,0.0069575,-0.0019225,0.11375,-0.04625,-0.02375,-0.00087,7.75e-05,-0.0015575,1742106151.547651
-0.03375,0.11375,-0.03875,-0.0279075,0.02211,0.001235,0.12125,-0.02625,-0.03,-0.008117501,0.00232,0.0024100002,1742106151.667198
-0.03375,0.11125,-0.0625,-0.0045775,0.0018150001,0.003175,0.11375,-0.04375,-0.0225,0.0012975,-0.00122,0.00122,1742106151.7754052
-0.08125,0.11875,0.03625,0.03711,-0.0720225,0.0016175,0.11,-0.05,-0.025,-6e-05,-0.0001525,-0.0003825,1742106151.889232
-0.03625,0.12625,-0.01125,-0.023545,0.0469525,-0.00023,0.10375,-0.0625,-0.02125,0.0065450002,-0.0015725,-0.0033425,1742106152.006599
-0.035,0.11375,-0.05375,-0.0072325002,0.0139475,0.001495,0.105,-0.06,-0.03125,0.0054775,-0.0010225,-0.0058125,1742106152.117273
-0.04,0.11375,-0.07,0.027940001,-0.0562125,-0.003815,0.1125,-0.0425,-0.02375,0.0007625,0.000945,0.0001525,1742106152.2314181
-0.0425,0.1275,0.0375,-0.0233775,0.007095,0.001175,0.1125,-0.0475,-0.02375,-0.0003975,0.000107500004,-0.000535,1742106152.3473558
-0.005,0.07625,0.02375,0.0517125,0.062485002,0.0077525,0.12125,-0.02125,-0.02375,-0.01036,0.0034949998,0.0030975002,1742106152.466961
-0.01375,0.09625,0.03875,0.050355,0.029815001,0.017625,0.1125,-0.0475,-0.02625,-0.0034025,0.000945,-0.0025175,1742106152.573199
-0.0325,0.07,0.10125,0.0461125,0.0110775,0.017012501,0.1125,-0.05625,-0.02625,-0.000855,-9.25e-05,-0.001495,1742106152.688742
-0.035,0.04625,0.115,0.01416,-0.000655,0.005965,0.11,-0.0525,-0.0225,-0.005355,-0.001235,-0.0007475,1742106152.807706
