L-AccX,L-AccY,L-AccZ,L-GyrX,L-GyrY,L-GyrZ,R-AccX,R-AccY,R-AccZ,R-GyrX,R-GyrY,R-GyrZ,timestamp
-0.2,0.32,0.97,10.25,-5.86,8.0,-0.77,-0.32,-0.56,0.85,0.92,27.28,1742258680.91198
-0.46,0.47,0.99,49.5,8.91,10.44,-0.77,-0.36,-0.59,1.89,-1.89,10.8,1742258681.020848
-0.47,0.69,0.67,-103.33,-1.83,-157.59,-0.74,-0.34,-0.57,-4.33,-4.64,10.07,1742258681.1348941
-0.17,0.41,0.29,-158.2,-204.77,-160.34,-0.75,-0.44,-0.6,2.75,-14.1,4.7,1742258681.248765
-0.36,0.29,0.87,-131.29,-197.94,7.14,-0.75,-0.47,-0.62,13.92,-33.02,23.07,1742258681.3628008
-0.69,0.69,1.16,-68.36,-42.36,104.92,-0.87,-0.35,-0.71,-68.97,-35.28,25.76,1742258681.477288
-0.87,0.68,0.27,-97.23,-19.47,62.81,-0.49,-0.47,-0.52,-90.21,-73.85,-16.36,1742258681.593174
-1.14,0.91,0.05,-60.97,-95.34,-2.99,-0.03,-0.68,-0.19,34.61,48.03,-29.11,1742258681.7049139
-0.62,0.89,0.28,30.4,-87.65,-73.36,-1.47,-0.64,-0.84,19.59,84.59,62.38,1742258681.818771
-0.43,0.55,0.56,-16.05,35.89,5.68,-1.11,-0.62,-0.79,-55.36,-101.44,14.34,1742258681.932986
-1.16,0.63,-0.13,36.99,117.92,71.17,0.54,-0.77,0.04,2.5,4.58,-6.23,1742258682.0465422
-0.85,0.61,-0.38,11.96,-117.31,-35.64,-1.07,-0.67,-0.44,77.76,165.89,-32.53,1742258682.160744
-0.52,0.43,0.69,-16.17,15.14,-0.55,-1.25,-0.62,-0.89,-17.64,-82.28,-31.86,1742258682.275261
-0.89,0.59,-0.01,-38.57,96.62,72.57,0.44,-0.85,0.04,-10.68,-47.06,-34.55,1742258682.394285
-0.96,0.61,-0.5,38.7,-44.37,-34.91,-0.86,-0.67,-0.4,42.18,184.94,18.01,1742258682.502656
-0.4,0.42,0.54,29.11,-28.14,-44.74,-1.51,-0.16,-0.95,-43.52,-46.02,5.55,1742258682.6167748
-0.51,0.55,0.18,-93.14,-0.06,38.64,-0.06,-0.32,-0.27,-30.46,-126.46,-3.48,1742258682.735042
-1.23,1.12,-0.33,29.97,-65.31,19.71,-0.04,-0.9,-0.28,44.8,51.03,3.3,1742258682.844543
-0.69,0.81,0.37,33.69,-53.77,-79.35,-1.5,-0.43,-0.9,42.72,75.26,22.83,1742258682.9585469
-0.35,0.55,0.48,-36.5,18.98,12.7,-0.78,-0.56,-0.4,-104.92,-130.86,60.61,1742258683.073884
-1.03,0.67,-0.09,-44.07,64.09,114.99,0.35,-0.72,-0.07,3.11,-4.27,-32.65,1742258683.18677
-0.87,0.82,-0.21,20.87,-110.78,-55.97,-1.25,-0.72,-0.66,93.26,154.66,-52.49,1742258683.300656
-0.4,0.31,0.74,-23.68,4.09,-1.77,-1.16,-0.5,-0.9,-15.26,-89.17,-24.41,1742258683.414808
-0.94,0.6,-0.06,-39.18,87.52,51.27,0.11,-0.76,-0.11,-51.45,-68.24,-33.87,1742258683.5332422
-1.01,0.7,-0.34,14.22,-18.49,-45.78,-0.77,-0.67,-0.14,44.68,169.62,-3.11,1742258683.6426601
-0.37,0.58,1.25,-11.41,-19.41,-36.32,-0.99,-0.2,-0.55,-25.09,-49.62,20.32,1742258683.756763
-0.69,0.49,0.09,-34.48,59.88,48.58,-0.09,-0.49,-0.27,-16.24,-79.96,-23.93,1742258683.875554
-1.03,0.78,0.05,21.79,39.43,-6.29,-0.35,-0.74,0.03,22.4,87.89,15.26,1742258683.9844658
-0.54,0.44,0.47,21.0,-51.27,-72.69,-1.45,-0.38,-1.04,-7.69,13.37,63.54,1742258684.098594
-0.28,0.43,0.23,-56.34,5.49,10.5,-0.5,-0.3,-0.34,-92.65,-114.01,69.46,1742258684.215513
-1.06,0.71,-0.29,-13.55,54.14,84.59,0.26,-0.88,0.06,-14.95,-13.55,-4.27,1742258684.326661
-0.78,0.81,-0.31,-7.08,-134.64,-35.58,-0.98,-0.79,-0.64,70.74,107.06,-59.2,1742258684.4406762
-0.37,0.48,0.46,29.97,20.81,-10.44,-1.01,-0.46,-0.59,-4.88,-41.56,-15.75,1742258684.555478
-0.91,0.78,0.1,-87.16,60.73,41.56,-0.05,-0.73,0.0,20.45,-90.09,-44.01,1742258684.674817
-1.01,0.84,-0.22,39.92,-1.22,-38.7,-0.43,-0.83,-0.06,50.05,115.78,1.77,1742258684.7828321
-0.51,0.46,0.1,-25.33,-71.23,-26.37,-1.28,-0.26,-1.05,-8.61,-1.1,40.04,1742258684.89678
-0.5,0.6,0.21,-16.78,44.49,43.27,-0.23,-0.44,-0.29,4.09,-96.98,-37.9,1742258685.014708
-1.15,0.97,-0.36,-29.42,-27.65,26.37,-0.02,-0.82,-0.22,34.24,47.24,8.06,1742258685.124587
-0.6,0.58,0.34,100.16,-27.47,-54.87,-1.46,-0.48,-1.11,-7.81,35.16,32.96,1742258685.2386901
-0.36,0.58,0.24,-58.59,20.75,16.05,-0.64,-0.56,-0.39,-55.6,-102.97,14.4,1742258685.354967
-0.8,0.6,-0.1,-23.74,29.17,41.32,0.06,-0.79,-0.24,24.96,7.08,-18.01,1742258685.466553
-0.79,0.79,0.17,27.28,-61.16,-46.08,-0.9,-0.62,-0.61,50.78,100.22,-0.85,1742258685.580572
-0.42,0.47,0.5,47.97,23.86,-23.07,-0.88,-0.27,-0.58,10.44,-52.06,-26.61,1742258685.6953862
-0.8,0.65,0.2,-54.02,28.08,65.25,-0.28,-0.59,-0.55,6.71,-48.28,-32.96,1742258685.8086772
-1.03,0.84,0.03,15.08,9.58,-11.41,-0.26,-0.71,-0.28,-5.0,76.66,45.47,1742258685.922574
-0.61,0.58,0.24,36.25,-18.68,-60.91,-1.35,-0.36,-1.03,0.98,23.5,12.88,1742258686.036822
-0.45,0.56,0.3,-73.18,2.75,23.19,-0.35,-0.37,-0.22,-56.34,-97.78,15.26,1742258686.1567402
-1.06,0.78,-0.27,-17.88,4.39,39.61,-0.2,-0.68,-0.4,21.97,40.59,-12.76,1742258686.264588
-0.73,0.68,0.09,74.77,-48.83,-62.56,-1.03,-0.61,-0.86,29.42,28.32,27.77,1742258686.3785
-0.51,0.54,0.5,-43.52,-9.28,8.12,-0.95,-0.6,-0.95,-26.61,-66.16,-31.37,1742258686.4966772
-0.89,0.68,0.03,-115.72,19.17,43.09,-0.35,-0.83,-0.65,-6.29,-69.7,-21.97,1742258686.606785
-0.99,0.84,-0.15,-4.94,-19.35,-12.82,-0.36,-0.63,-0.33,-24.78,83.62,53.47,1742258686.720597
-0.53,0.5,0.38,-2.08,-35.95,-54.99,-1.16,-0.38,-1.07,-18.19,-23.38,46.14,1742258686.841119
-0.22,0.41,0.38,-95.95,32.84,7.2,-0.38,-0.47,-0.45,-93.02,-120.67,61.1,1742258686.957193
-0.98,0.84,-0.38,37.05,37.78,51.94,0.1,-0.77,-0.21,32.23,57.92,-14.28,1742258687.062528
-0.8,0.85,0.03,58.11,-75.07,-62.93,-0.96,-0.7,-0.95,80.63,84.11,-23.32,1742258687.177418
-0.48,0.42,0.5,29.97,31.92,-15.32,-0.79,-0.46,-0.76,-22.03,-42.72,-18.74,1742258687.290792
-0.76,0.53,0.13,-90.82,33.39,46.02,-0.22,-0.66,-0.88,12.15,-40.83,-32.23,1742258687.404706
-1.05,0.83,-0.21,-51.64,-28.93,20.14,-0.13,-0.74,-0.36,9.58,48.34,7.08,1742258687.5187268
-0.57,0.54,0.01,77.45,-31.49,-75.32,-0.9,-0.74,-0.89,52.06,69.64,-13.98,1742258687.637889
-0.43,0.57,0.63,-19.9,17.03,-4.03,-0.76,-0.65,-0.89,-38.33,-88.5,6.9,1742258687.746732
-1.06,0.91,-0.09,-98.08,47.36,71.47,-0.23,-0.83,-0.84,53.04,-71.04,-74.65,1742258687.86071
-0.95,0.92,-0.08,12.45,-21.3,-11.41,-0.23,-0.72,-0.3,8.54,84.47,19.1,1742258687.9774048
-0.62,0.65,0.24,70.31,-34.91,-48.28,-1.0,-0.49,-0.99,51.33,31.68,-13.79,1742258688.08922
-0.47,0.6,0.41,-45.35,19.9,20.75,-0.6,-0.68,-0.68,-66.83,-65.98,18.37,1742258688.2027469
-0.89,0.82,-0.15,-44.62,4.21,38.09,-0.05,-0.84,-0.12,0.12,-11.54,-10.44,1742258688.3210728
-0.8,0.92,-0.12,-11.9,-35.64,-33.57,-0.38,-0.58,-0.53,-19.84,70.74,40.41,1742258688.438569
-0.44,0.62,0.8,38.02,4.09,-31.74,-0.83,-0.41,-0.83,-3.05,-51.57,3.54,1742258688.544617
-0.55,0.53,0.12,-16.42,42.24,69.46,-0.37,-0.4,-0.51,-2.93,-73.85,-28.87,1742258688.658877
-1.03,0.87,-0.3,-17.46,-10.44,35.28,-0.18,-0.79,-0.35,-0.49,51.94,17.33,1742258688.779684
-0.81,0.92,0.11,102.91,-23.62,-67.69,-0.74,-0.74,-0.79,31.13,67.38,29.05,1742258688.886517
-0.43,0.56,0.33,57.92,2.87,-29.97,-0.84,-0.41,-0.89,4.27,-14.34,-9.03,1742258689.0005991
-0.77,0.54,0.24,34.0,57.13,56.4,-0.39,-0.35,-0.52,-0.24,-59.02,-40.89,1742258689.1175811
-1.04,0.75,-0.06,8.42,35.46,30.4,-0.02,-0.93,-0.4,9.83,6.71,-2.2,1742258689.2383602
-0.82,0.84,0.07,-18.68,-69.82,5.98,-0.44,-0.68,-0.45,-0.43,80.38,43.64,1742258689.342816
-0.53,0.69,0.6,0.49,-29.17,-20.57,-1.03,-0.27,-1.07,32.84,3.48,-32.29,1742258689.458729
-0.61,0.54,0.43,-50.17,41.99,34.97,-0.42,-0.33,-0.6,-40.83,-80.57,23.07,1742258689.577971
-1.18,0.93,-0.32,-54.93,8.54,25.51,-0.03,-0.88,-0.32,30.09,-6.47,26.12,1742258689.684515
-0.81,0.83,0.18,71.84,-45.23,-71.23,-0.62,-0.48,-0.75,31.01,56.76,58.84,1742258689.801575
-0.41,0.53,0.64,28.81,-10.93,-38.15,-0.89,-0.33,-0.92,-28.56,-54.75,-16.72,1742258689.919342
-0.62,0.54,0.09,-67.99,54.26,60.55,-0.31,-0.54,-0.57,-24.9,-54.99,-45.04,1742258690.026784
-0.9,0.86,-0.18,-8.0,-23.25,3.85,-0.08,-0.69,-0.38,16.78,58.9,24.05,1742258690.140577
-0.5,0.66,0.47,50.11,-33.87,-62.19,-1.0,-0.27,-0.95,0.37,31.43,10.74,1742258690.2602198
-0.44,0.6,0.47,-35.03,19.71,14.04,-0.62,-0.54,-0.85,-39.31,-63.29,-13.0,1742258690.379433
-0.77,0.79,0.06,-53.22,19.04,52.37,0.16,-0.81,-0.19,18.37,12.82,-16.72,1742258690.482715
-0.86,0.73,-0.14,75.01,8.48,-24.6,-0.38,-0.61,-0.5,-18.49,74.77,80.69,1742258690.6000159
-0.53,0.69,0.57,29.6,-23.38,-54.87,-1.01,-0.39,-1.1,-22.77,-27.4,39.98,1742258690.719342
-0.42,0.51,0.37,-34.73,27.28,10.07,-0.41,-0.54,-0.6,-30.33,-56.09,-11.11,1742258690.824757
-0.84,0.75,-0.04,-12.63,18.62,30.52,0.0,-0.8,-0.48,26.12,10.01,-6.84,1742258690.940168
-0.7,0.9,0.28,15.75,-56.4,-60.42,-0.67,-0.6,-0.79,44.86,73.06,19.59,1742258691.061609
-0.42,0.51,0.69,-0.85,34.18,-5.31,-0.69,-0.46,-0.82,-21.73,-51.09,-13.92,1742258691.167546
-0.68,0.52,0.12,-86.73,23.74,74.46,0.12,-0.82,-0.29,36.68,-31.8,-77.33,1742258691.282374
-0.8,0.95,0.05,9.77,-39.12,-34.06,-0.37,-0.55,-0.55,-12.51,89.42,58.29,1742258691.400747
-0.37,0.57,0.86,43.52,3.85,-36.68,-0.77,-0.3,-0.8,-24.23,-60.0,-2.08,1742258691.5093608
-0.63,0.62,0.14,-49.26,38.82,47.18,-0.0,-0.69,-0.4,-9.95,-61.65,-50.54,1742258691.622664
-0.91,0.98,-0.04,31.37,15.87,-24.72,-0.15,-0.61,-0.29,-15.26,77.58,62.68,1742258691.741005
-0.44,0.51,0.58,19.71,-45.65,-32.78,-1.23,-0.45,-1.31,-21.73,-42.6,30.76,1742258691.8588731
-0.42,0.55,0.19,-11.29,37.6,59.2,-0.02,-0.43,-0.15,-65.73,-77.76,14.77,1742258691.964554
-1.03,0.78,-0.37,-8.3,-9.34,39.49,-0.05,-0.8,-0.19,21.42,57.68,-8.0,1742258692.0813189
-0.7,0.69,0.57,24.11,-27.59,-53.59,-0.85,-0.56,-0.75,44.07,45.47,-1.95,1742258692.199956
-0.46,0.52,0.51,-42.85,-9.52,19.23,-0.9,-0.57,-0.96,-33.02,-68.85,-32.23,1742258692.3066409
-1.03,0.78,-0.1,-133.0,16.66,65.8,0.12,-0.96,0.27,0.79,-23.62,-61.58,1742258692.4204018
-0.99,0.95,-0.44,31.43,-8.36,-40.89,-0.61,-0.8,-0.37,9.16,129.58,33.87,1742258692.540056
-0.44,0.53,0.53,75.13,18.01,-59.39,-1.14,-0.35,-0.88,-3.54,-20.32,37.72,1742258692.660222
-0.69,0.58,0.35,-34.3,31.01,52.73,-0.37,-0.29,-0.62,-49.56,-93.93,15.01,1742258692.7625742
-1.02,0.76,-0.32,-19.96,-11.23,28.38,0.11,-0.9,-0.05,27.28,25.15,-0.67,1742258692.880515
-0.68,0.71,0.21,26.25,-53.34,-59.63,-0.93,-0.79,-0.67,87.46,84.29,4.39,1742258693.0003111
-0.48,0.74,0.68,-33.02,-29.54,-16.11,-0.96,-0.54,-0.94,-3.23,-50.17,-13.55,1742258693.104676
-0.92,0.81,0.02,-50.23,40.65,65.37,-0.33,-0.6,-0.47,-62.68,-90.03,2.56,1742258693.220567
-0.94,0.65,-0.31,-63.05,-45.29,21.85,0.04,-0.73,-0.2,31.31,32.23,-22.64,1742258693.33846
-0.53,0.64,-0.08,70.5,-20.02,-57.92,-1.23,-0.88,-0.73,110.66,112.79,-67.08,1742258693.446601
-0.53,0.69,0.56,-25.27,6.96,-6.23,-1.04,-0.57,-0.99,-10.31,-84.59,-38.7,1742258693.560687
-0.72,0.75,0.02,-97.17,18.62,45.9,0.31,-0.87,0.35,-53.41,-39.18,-26.25,1742258693.680171
-0.88,0.88,-0.49,21.42,-35.4,-13.24,-0.12,-0.77,-0.06,29.6,144.35,-10.01,1742258693.788592
-0.58,0.63,0.15,82.15,-47.42,-35.22,-1.24,-0.63,-0.9,61.65,47.67,-8.97,1742258693.902564
-0.35,0.41,0.33,-40.04,43.27,50.66,-0.67,-0.78,-0.18,-72.2,-73.06,-31.19,1742258694.020041
-1.25,0.8,-0.2,17.82,74.65,71.17,0.02,-1.1,-0.26,48.65,-5.19,-41.02,1742258694.14098
-0.87,0.92,0.0,48.1,-53.34,-60.24,-0.8,-0.57,-0.67,127.81,108.34,-40.77,1742258694.2444968
-0.26,0.17,0.82,-52.43,-12.15,-0.92,-1.06,-0.23,-0.79,-10.07,-40.71,-65.43,1742258694.3592079
-0.8,0.47,0.15,-112.0,34.42,80.02,-0.36,-0.48,-0.86,23.62,-100.52,-80.63,1742258694.480484
-1.1,0.91,-0.33,35.52,-41.99,-48.16,-0.12,-0.58,-0.31,-13.73,84.35,54.02,1742258694.586414
-0.5,0.39,0.79,73.06,-17.88,-82.46,-1.43,-0.31,-1.25,30.58,-1.22,22.22,1742258694.700427
-0.47,0.39,0.43,-24.54,5.74,15.87,-0.78,-0.26,-0.9,-48.16,-60.73,-16.17,1742258694.8229702
-0.97,0.64,0.27,-65.49,52.0,87.46,-0.08,-0.86,-0.26,-17.82,-50.35,-24.48,1742258694.929267
-1.15,0.96,-0.26,19.65,28.75,-89.29,-0.43,-0.7,-0.31,-10.5,99.85,90.33,1742258695.0424058
-0.26,0.38,0.7,83.68,-1.04,-76.05,-1.17,-0.28,-1.08,-38.21,-34.79,96.98,1742258695.1601322
-0.33,0.37,0.34,-71.17,15.14,49.01,-0.45,-0.64,-0.37,-97.72,-87.77,3.05,1742258695.2831419
-0.81,0.52,-0.03,-57.13,54.93,66.28,0.34,-0.73,-0.33,18.31,13.43,-38.27,1742258695.3842938
-0.89,0.83,-0.25,31.98,-43.03,-58.17,-0.76,-0.67,-0.78,8.42,96.92,29.11,1742258695.500884
-0.3,0.56,0.59,52.43,-5.62,-19.53,-0.85,-0.42,-0.82,-16.3,-46.51,-20.69,1742258695.619942
-0.76,0.66,0.13,-71.17,48.52,77.88,-0.33,-0.44,-0.61,4.46,-73.55,-51.15,1742258695.726537
-1.0,0.75,0.03,51.51,-21.61,-14.95,-0.28,-0.81,-0.49,25.33,55.73,17.4,1742258695.8441432
-0.69,0.69,0.15,84.41,-80.57,-81.12,-0.9,-0.57,-0.83,62.93,77.88,29.66,1742258695.959585
-0.33,0.59,0.73,-39.12,-8.97,-4.46,-0.92,-0.33,-0.98,-8.06,-75.44,-21.48,1742258696.070857
-0.85,0.63,0.05,-60.55,66.28,82.76,-0.15,-0.68,-0.17,-10.25,-21.85,-45.72,1742258696.1826692
-1.12,0.89,-0.27,15.32,-22.03,-34.18,-0.17,-0.72,-0.45,15.26,52.31,22.34,1742258696.302067
-0.46,0.45,0.58,51.39,-46.14,-68.54,-1.12,-0.26,-1.1,9.52,-8.24,23.99,1742258696.420789
-0.33,0.43,0.5,-53.89,49.19,48.83,-0.46,-0.66,-0.41,-73.0,-55.85,8.67,1742258696.524524
-1.17,0.7,-0.09,0.85,43.33,70.92,0.28,-0.8,-0.39,8.73,-17.27,-22.52,1742258696.640702
-0.94,0.83,-0.05,50.05,-40.04,-75.32,-0.66,-0.4,-0.57,22.34,122.8,6.1,1742258696.7608728
-0.12,0.23,0.79,29.36,18.98,-24.41,-0.94,-0.21,-0.68,8.42,14.95,-48.71,1742258696.866514
-0.85,0.52,0.16,-66.1,32.35,73.79,-0.39,-0.47,-0.76,-42.11,-82.4,-30.27,1742258696.980601
-1.03,0.85,0.05,-8.79,-12.88,-16.3,-0.15,-0.72,-0.45,40.65,11.66,22.28,1742258697.100171
-0.62,0.74,0.25,88.2,-14.1,-93.26,-1.16,-0.62,-1.0,118.16,16.91,-35.16,1742258697.2130718
-0.34,0.43,0.69,-28.2,33.63,11.72,-0.78,-0.33,-0.71,-66.16,-86.98,3.72,1742258697.32329
-0.59,0.57,0.3,38.64,64.27,37.6,0.06,-0.82,-0.28,-4.33,-29.79,-40.1,1742258697.4399061
-0.88,0.85,0.14,30.58,8.0,-26.49,-0.25,-0.84,-0.61,7.93,62.74,81.36,1742258697.5605109
-0.32,0.43,0.7,26.86,-40.53,-56.46,-1.0,-0.26,-1.12,28.38,-18.49,-31.86,1742258697.6646268
-0.31,0.46,0.43,-107.48,-8.79,62.74,-0.38,-0.36,-0.59,-75.99,-54.14,-3.3,1742258697.7817001
-1.21,0.87,-0.12,-47.06,9.34,96.44,0.13,-1.05,-0.43,47.61,41.93,-17.09,1742258697.901737
-0.78,0.72,0.53,16.48,-63.29,-67.75,-1.12,-0.69,-1.05,107.36,111.76,-18.01,1742258698.006498
-0.54,0.73,0.28,-70.86,-66.59,-30.33,-0.66,-0.4,-0.82,-52.49,-46.33,9.52,1742258698.120456
-0.53,0.58,0.19,38.88,77.7,32.96,0.46,-0.86,-0.03,-21.24,-5.98,-25.39,1742258698.240184
-1.13,0.8,-0.16,46.26,13.18,-1.53,-0.39,-0.94,-0.4,28.75,137.88,57.37,1742258698.3591511
-0.55,0.69,0.46,21.91,-71.35,-44.01,-1.08,-0.31,-0.88,2.14,49.26,41.14,1742258698.462257
-0.3,0.45,0.38,-26.67,47.55,29.05,-0.6,-0.78,-0.29,-100.46,-120.3,-36.5,1742258698.5804281
-1.05,0.52,-0.12,-84.35,53.28,110.96,0.23,-1.08,-0.28,-4.21,-22.77,-31.62,1742258698.700035
-0.83,0.66,-0.5,-4.52,-70.43,-62.56,-0.46,-0.53,-0.42,-5.13,98.21,49.13,1742258698.804557
-0.4,0.49,0.55,29.79,10.8,-39.67,-1.12,-0.6,-0.75,-41.69,-37.11,8.97,1742258698.920528
-0.92,0.67,0.15,-5.92,73.67,69.34,-0.18,-0.76,-0.35,17.82,-84.66,-101.81,1742258699.039624
-1.23,0.94,-0.21,27.04,-2.99,-25.45,-0.24,-0.62,-0.16,15.69,87.52,22.16,1742258699.146222
-0.34,0.55,0.75,73.73,-22.09,-59.75,-1.47,-0.41,-1.08,-3.05,-23.86,53.16,1742258699.265412
-0.72,0.58,0.29,-42.97,92.96,87.52,-0.11,-0.53,-0.39,-26.86,-99.06,-17.7,1742258699.380311
-1.24,1.07,-0.42,45.35,-33.08,-20.02,-0.21,-0.77,-0.04,9.95,66.71,23.44,1742258699.488267
-0.45,0.55,0.54,57.5,-80.93,-87.95,-1.44,-0.59,-1.12,51.45,15.5,5.86,1742258699.602227
-0.33,0.17,0.19,-80.02,36.07,75.87,-0.3,-0.31,-0.68,-50.42,-90.94,41.32,1742258699.7205918
-1.42,0.99,-0.51,-40.53,-5.55,27.77,-0.1,-0.82,-0.27,13.43,8.24,30.82,1742258699.830241
-0.64,0.62,0.33,86.79,-66.83,-89.97,-1.23,-0.67,-1.43,23.62,4.27,-10.62,1742258699.947405
-0.45,0.51,0.29,-92.47,28.93,41.38,-0.55,-0.6,-0.52,-74.58,-68.3,10.86,1742258700.061009
-1.21,0.8,-0.33,-1.83,21.73,39.25,-0.13,-0.78,-0.44,4.46,19.84,13.06,1742258700.181004
-0.63,0.6,-0.06,71.9,-45.84,-65.55,-0.75,-0.45,-0.58,101.07,91.8,-76.42,1742258700.2864609
-0.37,0.32,0.45,-37.78,-5.31,6.29,-0.79,-0.18,-0.86,-63.6,-49.38,65.55,1742258700.4005399
-0.97,0.78,-0.01,-79.47,41.87,64.45,0.0,-0.79,-0.06,-10.44,-45.1,-26.73,1742258700.520482
-0.98,0.92,-0.26,75.44,-21.06,-61.71,-0.43,-0.6,-0.34,14.59,118.71,31.86,1742258700.6283011
-0.28,0.34,0.61,63.11,2.87,-35.22,-1.06,-0.29,-0.75,-30.4,-17.21,37.84,1742258700.7424881
-0.85,0.66,0.15,-37.35,40.34,79.96,-0.55,-0.46,-0.48,-45.41,-63.05,-23.93,1742258700.8599749
-1.2,0.76,-0.37,-19.41,-8.42,15.81,-0.2,-0.76,-0.36,31.74,12.94,-4.7,1742258700.981417
-0.83,0.74,0.27,17.4,-60.24,-65.12,-0.73,-0.6,-0.47,60.67,71.72,-1.77,1742258701.084331
-0.98,0.65,0.49,29.11,-90.94,-96.07,-0.86,-0.53,-0.67,24.9,33.45,38.94,1742258701.2003698
-0.43,0.5,0.69,28.63,211.24,-115.42,-0.65,-0.36,-0.54,-16.54,3.3,2.81,1742258701.3236191
-0.2,0.56,0.29,111.57,323.67,15.56,-0.71,-0.55,-0.57,-38.21,-26.73,-32.9,1742258701.426435
0.03,0.79,0.25,253.11,96.92,123.35,-0.59,-0.55,-0.45,-35.28,-27.59,-33.81,1742258701.5407832
-0.52,0.74,0.82,89.78,-64.7,59.69,-0.68,-0.65,-0.4,-18.55,-10.5,-34.36,1742258701.660799
-0.29,0.43,0.89,29.85,15.75,9.09,-0.69,-0.64,-0.44,-4.52,-1.59,-1.34,1742258701.7684858
-0.16,0.38,0.93,-36.07,13.18,-5.07,-0.67,-0.57,-0.49,-6.23,-2.2,8.42,1742258701.882383
