L-AccX,L-AccY,L-AccZ,L-GyrX,L-GyrY,L-GyrZ,R-AccX,R-AccY,R-AccZ,R-GyrX,R-GyrY,R-GyrZ,timestamp
0.015,0.055,0.10875,-0.00055,0.001785,-0.000535,-0.02375,-0.05375,0.11625,0.0040425,9.25e-05,-0.000655,1742104861.5424352
0.015,0.055,0.1075,-0.000305,0.0004725,-0.0002125,-0.0175,-0.0575,0.115,0.004395,0.0046225,0.0072775004,1742104861.656638
0.01375,0.05625,0.1125,0.0009775,0.00026,0.0002125,-0.01125,-0.05875,0.11125,0.00113,0.0034025,0.0019525,1742104861.7702458
0.01625,0.055,0.10875,-0.000245,-3e-05,0.000275,-0.00625,-0.06,0.1075,0.0013725,0.003005,0.0022574998,1742104861.883631
0.01625,0.05625,0.11,0.001115,0.0002125,9.25e-05,-0.00625,-0.06125,0.10875,0.00171,0.0013275,0.0013125,1742104861.997271
0.01375,0.05375,0.11,0.0004275,-0.0016325001,1.5e-05,-0.0075,-0.065,0.105,0.0019824998,7.75e-05,0.0004425,1742104862.110332
0.01375,0.0525,0.10875,0.00026,-0.0018150001,0.000305,-0.005,-0.06625,0.105,0.0002125,0.0001375,-1.5e-05,1742104862.223352
0.00875,0.055,0.11125,0.00048750002,-0.0012975,0.0001225,-0.00375,-0.065,0.1075,-0.000245,0.000245,6e-05,1742104862.336479
0.01,0.05125,0.11,0.00093,-0.00229,0.0001225,-0.0025,-0.06375,0.1075,-0.0001525,0.000945,0.00032,1742104862.450565
0.00625,0.0525,0.1125,0.00055,-0.00093,0.00016750001,-0.0025,-0.06375,0.10625,0.0003975,0.000275,0.000305,1742104862.564378
0.00625,0.0525,0.11125,0.00061,-0.00035,0.00033500002,-0.0025,-0.065,0.10625,-0.0001525,0.00023,0.00023,1742104862.677372
0.005,0.0525,0.11375,0.000855,0.0004725,-0.0001525,-0.00125,-0.0625,0.10625,-4.5e-05,0.000305,-9.25e-05,1742104862.790577
0.00625,0.05125,0.1125,0.00084,0.00033500002,9.25e-05,-0.0025,-0.06625,0.10625,-0.0002125,1.5e-05,-0.0004725,1742104862.904275
0.00625,0.05,0.1125,0.0005025,-0.00016750001,9.25e-05,-0.00125,-0.065,0.10625,0.0004125,4.5e-05,6e-05,1742104863.017378
0.00625,0.05,0.11125,-6e-05,-0.00016750001,0.0002125,-0.0025,-0.065,0.10625,0.0004275,-7.75e-05,0.0001375,1742104863.132256
0.00625,0.05,0.11125,0.00032,-0.000655,0.00016750001,-0.0025,-0.065,0.10625,0.0001225,-6e-05,0.0001375,1742104863.244363
0.0025,0.05,0.11375,0.0007625,-0.00084,0.0010825,-0.0025,-0.06625,0.10625,-0.0001825,-0.000655,-0.00079250004,1742104863.357364
0.00375,0.05,0.115,0.00016750001,-6e-05,-0.0001225,-0.0025,-0.06625,0.1075,-4.5e-05,-0.000275,4.5e-05,1742104863.471454
0.00375,0.04875,0.1125,0.000305,0.000107500004,-0.000107500004,-0.00375,-0.065,0.10625,-0.0001225,0.000107500004,-0.000245,1742104863.5853791
0.005,0.04875,0.11375,0.0001375,-0.00026,-6e-05,-0.0025,-0.065,0.10625,3e-05,-4.5e-05,-6e-05,1742104863.699499
0.00375,0.04875,0.11375,-7.75e-05,-0.000245,0.0001375,-0.0025,-0.065,0.1075,-3e-05,0.0001825,-7.75e-05,1742104863.813498
0.00375,0.0475,0.1125,-1.5e-05,-0.00032,0.0002125,-0.0025,-0.065,0.10625,1.5e-05,0.000625,0.0001975,1742104863.9292421
0.005,0.045,0.1125,-0.00325,-0.0012050001,0.0013125,-0.0025,-0.065,0.10625,0.000275,0.000655,0.00052,1742104864.041326
0.00125,0.055,0.11375,-0.0010225,0.001525,0.00079250004,-0.00125,-0.06625,0.1075,0.000305,0.0019225,0.0013125,1742104864.1555562
0.0,0.05625,0.11,-0.0015875,-0.0010975,-0.000535,0.0025,-0.06375,0.10625,-0.0027325,0.000825,0.0010225,1742104864.269582
0.0,0.05375,0.11125,-0.00058,-6e-05,7.75e-05,0.00125,-0.0625,0.1075,-0.0006875,7.75e-05,0.00079250004,1742104864.383616
0.00375,0.05375,0.11125,-7.75e-05,-0.000655,-0.0008075,0.00375,-0.06375,0.11125,-0.0004725,0.0003975,0.0003975,1742104864.4977632
0.0025,0.0525,0.11125,-0.00079250004,-0.0004725,-0.00058,0.0,-0.065,0.10375,0.00029,-0.000855,0.000885,1742104864.611441
0.0025,0.05375,0.11125,0.0001375,-0.0009,6e-05,0.005,-0.06125,0.1075,0.001175,0.00058,0.00079250004,1742104864.725502
0.0025,0.05375,0.1125,1.5e-05,-0.0004725,-0.000275,0.00375,-0.0625,0.10875,0.0004275,0.0001825,0.0007025,1742104864.839436
0.00125,0.055,0.11,-0.0004275,-0.0007025,-0.00045750002,0.005,-0.0625,0.10875,0.000855,0.0010825,0.00113,1742104864.953461
0.00125,0.05375,0.11125,-0.00091500004,-0.00055,-0.0010675,0.00625,-0.0625,0.1075,0.0010375,0.000945,0.000855,1742104865.0692701
0.00125,0.05625,0.11125,-0.000365,-9.25e-05,-0.0006875,0.01,-0.06375,0.1075,0.000855,0.0018625,0.0009625,1742104865.181501
0.00125,0.055,0.11125,-0.00029,0.000825,-0.0007775,0.015,-0.06375,0.10625,0.00045750002,0.001145,0.0001225,1742104865.2954109
0.0025,0.055,0.11,-6e-05,0.00023,-0.0005025,0.00875,-0.06625,0.105,0.0018625,-0.0006875,0.00055,1742104865.409389
0.00375,0.055,0.11,0.000245,0.0010075001,6e-05,0.0125,-0.06625,0.10375,0.0006875,0.0001525,0.0001975,1742104865.523351
0.005,0.055,0.11,0.000625,0.0007175,-0.0002125,0.0125,-0.0675,0.10375,0.0004725,0.0003975,0.0001375,1742104865.637275
0.00625,0.05375,0.11125,0.0006875,0.0010225,-0.000305,0.0125,-0.0675,0.105,0.0001375,0.0004125,3e-05,1742104865.750277
0.00625,0.05375,0.11125,0.0010225,0.00035,-0.0004725,0.0125,-0.06875,0.10375,-0.00035,0.000275,0.0003825,1742104865.8633049
0.00625,0.0525,0.11125,0.0002125,-0.000107500004,-0.0004725,0.0125,-0.06875,0.10375,-0.0007775,6e-05,0.00023,1742104865.976435
0.00375,0.05375,0.1125,-0.0004275,-0.0012975,-0.0007475,0.01375,-0.06625,0.10375,-0.00125,0.000107500004,0.0001825,1742104866.090527
0.00375,0.0525,0.1125,-0.0004125,-0.000275,-0.0009775,0.01375,-0.06625,0.105,-0.0012050001,-0.0004125,0.000855,1742104866.204559
0.005,0.0525,0.10875,-9.25e-05,-0.00045750002,-0.000107500004,0.01375,-0.06375,0.1075,-0.0008075,-0.00016750001,0.0007025,1742104866.318659
0.0025,0.0525,0.11375,0.001115,-0.0013875001,-0.0001375,0.015,-0.0625,0.10625,-0.00023,0.0008075,0.0009,1742104866.432415
0.0025,0.0525,0.11375,0.00032,-0.0001825,-0.00023,0.01625,-0.06375,0.10625,-0.000305,-0.0001225,0.0001525,1742104866.549092
0.00375,0.0525,0.1125,1.5e-05,-1.5e-05,-0.000365,0.015,-0.06375,0.10625,0.000107500004,-0.0007625,0.0,1742104866.660418
0.0025,0.05375,0.1125,0.00052,4.5e-05,-0.00029,0.015,-0.06375,0.10625,0.00026,-0.00029,0.0001525,1742104866.774221
0.0025,0.055,0.1125,0.000365,-0.0006875,-0.001145,0.0125,-0.065,0.10875,0.000625,-0.00045750002,0.00087,1742104866.8897421
0.005,0.04875,0.11,0.0009625,0.0001825,-0.000655,0.01625,-0.0625,0.10625,0.0006725,0.000945,0.002885,1742104867.001502
0.00125,0.05125,0.115,0.003005,-0.00055,0.0001975,0.01875,-0.06125,0.10625,0.00045750002,0.000945,0.001435,1742104867.115227
0.00375,0.05,0.11375,-0.000107500004,0.0002125,-0.0004725,0.01875,-0.06375,0.105,0.0001525,0.0002125,-1.5e-05,1742104867.2287638
0.0025,0.04875,0.1125,-0.00016750001,-0.0001375,-0.0006875,0.01875,-0.065,0.105,0.0010975,-0.00064,0.0001825,1742104867.342717
0.0025,0.04875,0.11375,0.0001225,-0.00033500002,-0.000305,0.01875,-0.0625,0.10625,0.0016175,0.00055,-0.001525,1742104867.4563122
0.0025,0.04875,0.11375,-0.00016750001,0.0002125,-0.00023,0.01875,-0.06625,0.1025,-0.001145,0.0009775,-0.0001525,1742104867.570345
0.00375,0.05,0.11375,-0.00059500005,0.0003975,-0.000655,0.02,-0.0675,0.10375,0.001725,-0.0004425,0.000275,1742104867.6844952
0.00375,0.05,0.1125,-0.0007175,0.000305,-0.0003975,0.01875,-0.06875,0.1025,0.000855,-0.0007775,0.000885,1742104867.79858
0.00375,0.05,0.11375,-0.000625,0.0003975,-0.0006725,0.0175,-0.06875,0.10625,-0.00033500002,-0.00058,0.00079250004,1742104867.91235
0.00375,0.05,0.11375,-0.000655,0.0007475,-0.00087,0.01875,-0.06875,0.1025,-0.0013875001,-0.0018300001,0.00113,1742104868.029248
0.005,0.05,0.11125,-0.0010675,0.00091500004,-0.00061,0.0175,-0.06625,0.105,0.00048750002,-0.001115,0.0015575,1742104868.140359
0.00625,0.0525,0.11125,-0.0015575,0.0012050001,9.25e-05,0.01625,-0.0675,0.10625,-0.0006875,0.002625,0.00064,1742104868.254386
0.00875,0.055,0.11125,-0.001115,0.0010675,-0.000275,0.01875,-0.06875,0.10125,0.00302,-0.0016625,0.0007175,1742104868.369545
0.00875,0.05375,0.11125,-0.001115,0.0007625,-0.00087,0.0225,-0.06375,0.10625,0.00087,0.0018,0.00032,1742104868.482335
0.00875,0.0575,0.11,-0.0004425,0.0007025,-0.00154,0.02,-0.07,0.10125,0.000945,0.0001525,0.000625,1742104868.5963688
0.01,0.05625,0.1125,-6e-05,0.0012050001,-0.0019375,0.0225,-0.07,0.10625,0.0020299999,0.0001375,0.0013725,1742104868.7103539
0.01375,0.055,0.1075,-0.00059500005,0.000535,-0.00177,0.0225,-0.06625,0.10625,-0.0021199998,0.0010675,0.0025325,1742104868.824395
0.0125,0.0525,0.11,0.0016925,-0.00267,-0.0003975,0.025,-0.06125,0.1025,0.0005025,0.00091500004,0.0018625,1742104868.9385412
0.01375,0.055,0.10625,-0.0030975002,0.0021525,0.0018775001,0.02625,-0.05875,0.1025,0.000275,9.25e-05,0.00033500002,1742104869.052246
0.0125,0.05875,0.11,-0.0013725,-0.0002125,0.0007475,0.025,-0.06625,0.105,0.00116,-0.0009,-0.000305,1742104869.166444
0.01375,0.05875,0.10875,-0.00055,-0.0001975,0.000107500004,0.025,-0.06375,0.10375,0.00113,-0.0009925,3e-05,1742104869.2804532
0.0125,0.06,0.1075,-0.00033500002,-0.0004275,-0.000245,0.025,-0.0675,0.1025,0.0006875,0.0,-0.00052,1742104869.394423
0.0125,0.05875,0.1075,-0.0001975,-0.0005025,-0.00032,0.025,-0.0675,0.10125,0.00026,0.0001375,-0.00048750002,1742104869.509978
0.0125,0.05875,0.10875,-6e-05,-0.00093,0.00029,0.02375,-0.07125,0.1,-0.00093,-0.0008075,-0.00029,1742104869.622415
0.0125,0.06,0.1075,-0.0007175,0.0009,0.0002125,0.02375,-0.07,0.1025,-0.00079250004,-0.0007325,-0.000305,1742104869.736474
0.0125,0.06,0.10625,-0.001755,0.00148,0.00048750002,0.0225,-0.06625,0.1025,-0.0001525,0.00045750002,-0.0006725,1742104869.85026
0.01375,0.06375,0.10375,-0.0042125,-0.00093,0.0009,0.0225,-0.0675,0.1025,0.00035,-0.0003975,-0.000885,1742104869.963567
0.01,0.06875,0.10625,0.000655,0.0001525,-0.0009625,0.02125,-0.0675,0.1025,0.000945,-0.000365,-0.00113,1742104870.077295
0.00875,0.06375,0.1025,-0.0015575,0.0016325001,-0.00087,0.02,-0.07,0.10125,3e-05,0.0012675,-0.000625,1742104870.191243
0.01375,0.0675,0.10125,-0.0040599997,0.003585,0.0011900001,0.0225,-0.0675,0.1025,0.00142,0.0018775001,0.00032,1742104870.3092868
0.01375,0.0775,0.10125,-0.0033275,0.0027774998,0.0009775,0.025,-0.06875,0.1025,0.0016925,0.0019075,0.000945,1742104870.418386
0.0175,0.07125,0.1,0.00091500004,0.0016475001,0.00052,0.02375,-0.07125,0.09875,0.001235,0.00154,-0.000245,1742104870.532298
0.01875,0.07375,0.09875,-0.00148,0.0010375,0.0007475,0.0275,-0.0725,0.095,0.0021199998,0.0012675,-0.0004425,1742104870.646234
0.01875,0.075,0.09875,-0.0019225,0.0027474998,-0.00064,0.025,-0.0775,0.0975,0.0009775,-0.001525,-0.0010225,1742104870.760549
0.01875,0.07875,0.1,-0.00113,0.0022725,-0.00177,0.025,-0.0775,0.09875,0.00235,0.0039975,-0.00064,1742104870.874218
0.02375,0.075,0.09625,-0.0019225,0.0016475001,-0.0016625,0.03125,-0.075,0.0925,0.001115,0.0029449998,-0.00029,1742104870.9897442
0.02875,0.07375,0.09,-0.002915,0.00091500004,-0.00029,0.0325,-0.07625,0.09,0.0004125,0.00035,0.0004125,1742104871.102217
0.03,0.07625,0.08875,-0.0045324997,0.000107500004,0.00023,0.03125,-0.0775,0.09125,0.0019824998,0.0013125,-0.00023,1742104871.216152
0.02625,0.08625,0.08875,-0.0038299998,0.00116,0.0007025,0.0325,-0.07875,0.08625,0.0027774998,0.00177,-0.00125,1742104871.330065
0.0275,0.08375,0.08625,-0.004395,0.0028225,-0.0013875001,0.035,-0.08375,0.0875,0.0057675,0.0033725,-0.0010525,1742104871.4422998
0.02875,0.0875,0.085,-0.00151,0.000655,-0.00029,0.03875,-0.0875,0.0825,0.003235,0.0025475,0.0003975,1742104871.5563111
0.02875,0.0875,0.08,-0.0022125002,0.000655,-0.000107500004,0.0375,-0.08875,0.08,0.0007325,0.000855,0.0013275,1742104871.6742358
0.03,0.09,0.07875,-0.0045324997,-0.00052,0.0007175,0.03875,-0.08875,0.0775,0.0015875,0.0009625,0.00084,1742104871.784309
0.03125,0.09125,0.07875,-0.0033875,-0.0013425,0.00116,0.04,-0.08875,0.0775,0.0018300001,0.0010675,0.0001225,1742104871.898277
0.02875,0.0925,0.07875,-0.0006725,-0.00052,0.000275,0.04125,-0.09125,0.07625,0.00059500005,0.000245,-0.0007175,1742104872.012167
0.02875,0.09125,0.075,0.0001375,-0.000245,0.00064,0.04125,-0.0925,0.075,0.0007475,0.000365,-0.00113,1742104872.126152
0.0275,0.09375,0.07625,0.0001375,-0.000565,0.000945,0.04,-0.09125,0.0725,0.000365,-0.000625,-0.0007025,1742104872.240065
0.02625,0.09375,0.0775,4.5e-05,-0.00055,0.00064,0.03875,-0.0925,0.075,6e-05,-0.001175,-6e-05,1742104872.3530529
0.025,0.09375,0.07875,0.0003975,-9.25e-05,0.0007325,0.0375,-0.09125,0.075,0.0007325,-0.000535,1.5e-05,1742104872.469801
0.02375,0.09375,0.08,0.00026,-1.5e-05,0.00052,0.03875,-0.0925,0.07375,0.000305,-0.00052,0.00023,1742104872.579047
0.02375,0.0925,0.07875,-0.00026,0.00032,0.000535,0.0375,-0.0925,0.075,0.000305,-0.00045750002,-7.75e-05,1742104872.692078
0.0225,0.095,0.07875,4.5e-05,0.000245,0.0006875,0.0375,-0.09375,0.075,0.0,-0.0006875,-0.0002125,1742104872.805001
0.02375,0.095,0.07875,6e-05,6e-05,0.000245,0.0375,-0.09375,0.075,0.00026,-0.000245,-0.000245,1742104872.918088
0.02375,0.09375,0.0775,-9.25e-05,-0.0001225,0.0001825,0.03625,-0.09375,0.07375,-3e-05,0.000107500004,-0.00023,1742104873.03119
0.02375,0.0925,0.07875,-0.0003975,0.00023,9.25e-05,0.03625,-0.0925,0.075,-6e-05,-0.0001225,-9.25e-05,1742104873.1451771
0.0225,0.09375,0.0775,-0.000365,7.75e-05,0.000107500004,0.03625,-0.0925,0.075,1.5e-05,-0.00026,-0.000275,1742104873.258071
0.02375,0.09375,0.0775,-4.5e-05,4.5e-05,0.000275,0.03625,-0.0925,0.075,-4.5e-05,-7.75e-05,-0.00016750001,1742104873.371059
0.0225,0.09375,0.0775,0.0001225,-1.5e-05,0.0001375,0.03625,-0.0925,0.075,4.5e-05,0.0001825,-0.0002125,1742104873.4840698
0.0225,0.09375,0.0775,-6e-05,-0.00035,0.000107500004,0.03625,-0.0925,0.075,-1.5e-05,0.0001525,-0.0001225,1742104873.5971992
0.0225,0.09375,0.0775,6e-05,-6e-05,7.75e-05,0.03625,-0.09375,0.07375,-3e-05,-4.5e-05,3e-05,1742104873.7110531
0.0225,0.09375,0.0775,0.0,3e-05,0.000107500004,0.03625,-0.0925,0.07375,7.75e-05,-9.25e-05,-0.0001825,1742104873.824008
0.0225,0.09375,0.07875,-7.75e-05,-0.00016750001,9.25e-05,0.03625,-0.0925,0.075,-4.5e-05,0.000107500004,-0.00035,1742104873.9372082
0.0225,0.09375,0.07875,4.5e-05,0.0001225,0.000107500004,0.03625,-0.09375,0.07375,0.000107500004,0.0002125,-0.00048750002,1742104874.051009
0.02125,0.09375,0.0775,0.0001225,0.00023,4.5e-05,0.035,-0.09375,0.075,-0.00026,-0.0001225,-0.00032,1742104874.163997
0.02125,0.095,0.0775,-0.00035,0.00093,0.00064,0.035,-0.0925,0.075,-0.0002125,0.0004425,-0.0004425,1742104874.27723
0.02125,0.095,0.0775,0.0,-0.000365,0.000245,0.03625,-0.09375,0.07375,-9.25e-05,0.0007025,-0.000365,1742104874.391096
0.02125,0.095,0.0775,0.0001975,-0.0001975,0.0001375,0.035,-0.09375,0.0775,-0.00064,0.00045750002,-4.5e-05,1742104874.504192
0.02125,0.095,0.0775,0.00061,6e-05,7.75e-05,0.035,-0.0925,0.07625,-0.00148,7.75e-05,0.0001375,1742104874.617024
0.02125,0.09375,0.07875,0.00052,-1.5e-05,-6e-05,0.0375,-0.09125,0.0775,-0.000625,0.0007325,0.0004125,1742104874.730182
0.02125,0.09375,0.07875,0.0004125,-0.0003975,-7.75e-05,0.03625,-0.09,0.07875,-0.0013725,0.0001375,0.00052,1742104874.844202
0.02,0.09375,0.08,0.0007325,-0.000245,-1.5e-05,0.0375,-0.0875,0.08,-0.0016775,-0.000245,0.00016750001,1742104874.958237
0.02125,0.09375,0.08,0.00079250004,3e-05,-0.0001525,0.0375,-0.0875,0.08,-0.00055,0.0001525,0.0,1742104875.072067
0.02125,0.09,0.0825,0.000535,-0.00048750002,-0.00033500002,0.03875,-0.0875,0.08,-0.00045750002,-0.00061,0.0001525,1742104875.185197
0.02125,0.09125,0.08125,-9.25e-05,-7.75e-05,-6e-05,0.0375,-0.0875,0.0825,0.0004275,-0.0001525,-6e-05,1742104875.29932
0.02125,0.09125,0.08,0.0001375,-1.5e-05,-0.0001525,0.03875,-0.08625,0.08,0.0001975,0.0006725,-0.0001975,1742104875.413227
0.02125,0.09125,0.0825,9.25e-05,-0.0001225,0.0,0.0375,-0.08875,0.08,0.000625,0.0003825,-0.0007475,1742104875.5297558
0.02,0.0925,0.0825,0.0014500001,0.000107500004,-0.0003825,0.0375,-0.08875,0.07875,0.0007625,0.00016750001,-0.0010225,1742104875.640089
0.0225,0.08875,0.08375,0.0012050001,-0.00026,-0.0007475,0.03625,-0.09,0.07875,-0.00064,-0.0007175,-0.00052,1742104875.753224
0.0225,0.08625,0.08625,0.0004275,-0.0003825,-0.000305,0.03625,-0.08875,0.08,-0.0001525,-3e-05,-0.0004275,1742104875.869341
0.0225,0.0875,0.085,0.00033500002,-0.0002125,-0.0001375,0.03625,-0.08875,0.07875,9.25e-05,-0.0002125,-0.00033500002,1742104875.981212
0.0225,0.08625,0.08625,0.0003825,-3e-05,-1.5e-05,0.035,-0.09,0.08125,0.0,-0.000245,-0.0002125,1742104876.0952241
0.0225,0.08875,0.085,-1.5e-05,-0.0001375,-0.000305,0.035,-0.08875,0.08,-0.00023,1.5e-05,-0.0001525,1742104876.210006
0.0225,0.08625,0.085,-4.5e-05,-0.00026,3e-05,0.035,-0.0875,0.08,-0.000107500004,-0.00023,-0.000365,1742104876.3231082
0.02125,0.0875,0.085,0.000245,-0.0001825,0.00035,0.035,-0.08875,0.08,7.75e-05,-0.0005025,-0.00048750002,1742104876.436061
0.02125,0.0875,0.085,0.0001375,-0.000275,0.000245,0.035,-0.09,0.07875,-6e-05,-0.00059500005,-0.00055,1742104876.5496058
0.02125,0.08625,0.08625,0.00059500005,0.000107500004,-4.5e-05,0.03375,-0.0875,0.08,-0.0005025,-0.000305,-0.00045750002,1742104876.663108
0.02125,0.08625,0.08625,3e-05,6e-05,6e-05,0.03375,-0.08875,0.08,-0.000625,-0.0004125,-0.00026,1742104876.775986
0.02125,0.0875,0.08625,-4.5e-05,0.00016750001,0.0002125,0.0325,-0.09,0.08125,-0.00055,-0.000365,-9.25e-05,1742104876.890143
0.02125,0.0875,0.085,-0.000275,0.00048750002,0.0007175,0.0325,-0.08875,0.08125,-0.0004125,-0.0002125,-0.00023,1742104877.003204
0.02125,0.0875,0.085,-0.000107500004,-0.00016750001,0.0002125,0.0325,-0.0875,0.0825,-0.0013425,-0.000365,-0.0001225,1742104877.11719
0.02,0.08625,0.08625,4.5e-05,9.25e-05,0.00035,0.03125,-0.0875,0.0825,-0.00016750001,-4.5e-05,9.25e-05,1742104877.230912
0.02,0.0875,0.0875,0.00055,0.00033500002,0.0004425,0.03125,-0.0875,0.0825,-0.0001375,-0.0001225,-6e-05,1742104877.3438761
0.02,0.0875,0.08625,6e-05,0.0004125,0.000305,0.0325,-0.08875,0.0825,-0.00029,-0.0001225,0.0001975,1742104877.456874
0.02,0.0875,0.08625,0.00048750002,-9.25e-05,-6e-05,0.03125,-0.085,0.0825,-0.000945,-0.000275,-0.0002125,1742104877.570219
0.02,0.08625,0.08625,0.0007625,9.25e-05,4.5e-05,0.0325,-0.08625,0.08375,0.0001975,0.0001375,-0.0003975,1742104877.6838589
0.02,0.08625,0.08625,0.000305,-0.00059500005,-0.0001825,0.03125,-0.08875,0.0825,0.0006875,0.00033500002,-0.00023,1742104877.797039
0.02,0.08625,0.08875,0.0004125,-0.0010525,-0.00059500005,0.03125,-0.0875,0.08375,0.0004425,-6e-05,-4.5e-05,1742104877.910214
0.02,0.085,0.0875,-0.0001525,-0.000655,-0.00033500002,0.0325,-0.08875,0.08125,0.00029,9.25e-05,0.0001375,1742104878.024252
0.01875,0.085,0.0875,0.0001375,-0.00055,-0.000305,0.03125,-0.08875,0.08125,-0.00016750001,-1.5e-05,6e-05,1742104878.138127
0.01875,0.08625,0.08875,0.0002125,-0.0009625,-0.0007625,0.03125,-0.0875,0.0825,-7.75e-05,-0.0001825,6e-05,1742104878.252088
0.0175,0.085,0.0875,-1.5e-05,-0.00055,-0.000535,0.0325,-0.08875,0.0825,0.0001225,-6e-05,0.0001825,1742104878.36976
0.01875,0.085,0.08875,0.0001975,-0.0006725,-0.000625,0.03125,-0.0875,0.0825,0.000245,-0.0001525,3e-05,1742104878.480222
0.0175,0.085,0.08875,-0.0001225,-0.0010975,-0.00058,0.0325,-0.08875,0.08125,0.0004125,0.00032,-4.5e-05,1742104878.5942678
0.0175,0.085,0.0875,-4.5e-05,-0.00061,-0.00029,0.0325,-0.08875,0.08125,0.000275,0.00016750001,-6e-05,1742104878.710015
0.0175,0.085,0.08875,0.000365,-0.0004125,-0.00016750001,0.0325,-0.08875,0.08125,0.00032,9.25e-05,-0.000245,1742104878.822061
0.0175,0.085,0.08875,0.000565,-0.000275,-7.75e-05,0.03125,-0.08875,0.08125,0.0003975,-4.5e-05,-6e-05,1742104878.936183
0.01875,0.08375,0.09,0.00035,0.00045750002,-0.0003825,0.0325,-0.08875,0.08,0.0001975,-0.0001975,-7.75e-05,1742104879.050004
0.01625,0.0825,0.09375,0.00035,-0.0016775,-0.0010075001,0.03125,-0.08875,0.08125,0.0001975,-0.00029,-9.25e-05,1742104879.163094
0.01625,0.08375,0.08875,-0.00055,-0.0004425,-0.0001375,0.03125,-0.09,0.08125,-0.0001825,-0.00029,-9.25e-05,1742104879.277272
0.015,0.08625,0.08625,-0.0001525,-0.001145,-0.000625,0.03125,-0.08875,0.08125,-0.0001225,-0.0001975,-0.0001225,1742104879.39124
0.015,0.08375,0.09,3e-05,-0.001235,-0.00084,0.03125,-0.08875,0.08125,3e-05,6e-05,-9.25e-05,1742104879.5051148
0.015,0.085,0.09125,-0.001235,7.75e-05,-0.00048750002,0.03125,-0.09,0.08,0.000565,-0.00064,-0.00016750001,1742104879.619091
0.0175,0.08625,0.08625,-0.002105,0.00151,0.00032,0.03125,-0.09,0.08,0.00052,-0.0009775,-0.000107500004,1742104879.732973
0.0175,0.0875,0.0875,-0.0001225,-0.00016750001,0.0004275,0.03,-0.09,0.08125,0.00032,-0.00052,-6e-05,1742104879.8495228
0.01625,0.0875,0.085,-0.00084,-0.0007025,0.0002125,0.03,-0.09,0.08,0.0001975,7.75e-05,3e-05,1742104879.960257
0.01625,0.08875,0.085,-0.000825,-0.00016750001,0.000275,0.03,-0.09,0.08,6e-05,0.0002125,-7.75e-05,1742104880.0741491
0.015,0.08875,0.085,-3e-05,0.0004725,7.75e-05,0.03,-0.09125,0.08,-1.5e-05,0.0,4.5e-05,1742104880.188437
0.01625,0.0875,0.085,0.0,0.00032,-7.75e-05,0.03,-0.09125,0.08,-0.0001525,9.25e-05,7.75e-05,1742104880.301953
0.015,0.09,0.085,-0.0001525,-0.00032,-0.00016750001,0.03,-0.09125,0.08,-6e-05,-0.0003825,7.75e-05,1742104880.4152598
0.015,0.09125,0.0875,-0.000107500004,4.5e-05,-0.0007175,0.03,-0.09375,0.08,-0.000655,-0.0004425,0.000305,1742104880.5295029
0.0175,0.08875,0.08375,0.000305,-4.5e-05,-0.00055,0.03,-0.08875,0.0825,-0.0013425,-0.00032,-0.000107500004,1742104880.642161
0.015,0.08875,0.0875,0.0005025,0.0004275,-0.001435,0.03,-0.08875,0.0825,-0.0018,-3e-05,-0.0001375,1742104880.7559412
0.02,0.085,0.08375,0.00055,0.0005025,-0.00045750002,0.03,-0.0875,0.085,-0.00048750002,0.0005025,0.000855,1742104880.869694
0.0175,0.08875,0.08625,-0.0001225,0.000275,-0.000535,0.0325,-0.08625,0.0825,-0.000275,0.00035,0.000855,1742104880.982016
0.01875,0.0875,0.085,-0.000107500004,0.0008075,-0.0007175,0.0325,-0.08625,0.0825,0.0001375,0.0002125,0.0010675,1742104881.096
0.02,0.0875,0.08375,-0.0007025,0.00055,-0.000305,0.0325,-0.08625,0.0825,0.0005025,0.00052,0.000565,1742104881.210005
0.02,0.08875,0.08375,-0.00059500005,-0.000855,-0.0006875,0.0325,-0.0875,0.08125,0.000825,0.0002125,-0.00029,1742104881.324191
0.02,0.09,0.085,0.000365,-0.0007475,-0.0001525,0.03375,-0.0875,0.0825,0.000365,-0.0005025,-0.00026,1742104881.4380019
0.02125,0.08875,0.08375,4.5e-05,0.00032,4.5e-05,0.03375,-0.08875,0.0825,0.0004275,-0.00016750001,0.00023,1742104881.5518231
0.02,0.08875,0.08375,7.75e-05,1.5e-05,1.5e-05,0.0325,-0.0875,0.08125,4.5e-05,0.00016750001,7.75e-05,1742104881.6648462
0.02,0.08875,0.08375,7.75e-05,-0.00032,0.000107500004,0.03375,-0.08875,0.08125,0.00033500002,-0.00016750001,-0.000245,1742104881.7780879
0.02,0.08875,0.085,1.5e-05,-0.00058,-0.0001825,0.03375,-0.09,0.08125,0.00061,0.00026,9.25e-05,1742104881.892014
0.01875,0.08875,0.085,4.5e-05,-0.0001525,-0.0001525,0.0325,-0.09,0.08,0.00023,-0.000825,0.0001525,1742104882.00943
0.01875,0.08875,0.08375,-0.0001225,-0.0003975,0.0,0.0325,-0.09,0.08,0.0001525,-9.25e-05,-0.0001825,1742104882.1200619
0.01875,0.09,0.085,0.0001375,-0.0010075001,-0.00023,0.0325,-0.09,0.08,-3e-05,-0.0001225,-0.00035,1742104882.234078
0.01875,0.08875,0.08375,-0.00016750001,-3e-05,-7.75e-05,0.0325,-0.09,0.08,-9.25e-05,-0.00048750002,-0.0001825,1742104882.349144
0.0175,0.08875,0.08375,0.0002125,-9.25e-05,0.00016750001,0.03125,-0.09,0.08,7.75e-05,-0.00023,1.5e-05,1742104882.461944
0.01875,0.08875,0.08375,-0.00035,-1.5e-05,-0.00033500002,0.03125,-0.09,0.08125,0.0001975,-0.0001525,0.0001375,1742104882.575126
0.01875,0.08875,0.08375,0.0001825,-1.5e-05,-0.0001375,0.03125,-0.08875,0.08125,0.0001375,-0.0002125,0.0002125,1742104882.689046
0.01875,0.08875,0.085,-0.0002125,-0.00026,-0.00048750002,0.0325,-0.09,0.08,-9.25e-05,-4.5e-05,0.0001825,1742104882.803162
0.01875,0.08875,0.08375,-0.000535,0.000655,-9.25e-05,0.03125,-0.09125,0.08125,-9.25e-05,-0.00023,0.0003975,1742104882.9170592
0.02,0.09,0.0825,-0.0007025,0.00045750002,-0.000107500004,0.0325,-0.09,0.08,0.000107500004,0.0001825,0.0010375,1742104883.031175
0.02125,0.09,0.0825,-0.00058,0.00032,-0.0003825,0.03375,-0.08875,0.0775,0.0010675,-0.0004425,0.001405,1742104883.144969
0.02,0.09,0.0825,-0.000275,0.0001375,0.00023,0.03375,-0.0875,0.08,0.0007475,-0.000825,0.00035,1742104883.2589598
0.02,0.0925,0.0825,-0.0004425,-0.00033500002,-0.00079250004,0.03375,-0.09125,0.07875,0.0004725,-0.000535,0.0001825,1742104883.37216
0.02,0.0925,0.0825,-0.00064,0.0003975,-0.0010975,0.03375,-0.09125,0.08,0.00052,0.0001975,0.00079250004,1742104883.489556
0.02125,0.09,0.08125,-0.0007625,0.00084,-0.0010825,0.035,-0.09,0.0775,0.0012050001,0.000107500004,0.0010225,1742104883.5999732
0.02375,0.09125,0.07875,-0.00148,0.00035,-0.00059500005,0.035,-0.09125,0.07875,0.0013125,0.0010225,0.00142,1742104883.7139509
0.02375,0.09125,0.08125,-0.0012050001,0.00026,6e-05,0.03625,-0.0925,0.07625,0.0007025,0.000365,0.0015575,1742104883.829816
0.0225,0.09375,0.08,-0.000535,0.0007325,6e-05,0.0375,-0.09,0.07625,0.0007175,-4.5e-05,0.0009775,1742104883.941848
0.02375,0.09375,0.0775,-0.00064,0.00093,-0.00035,0.0375,-0.09,0.075,0.00148,0.0005025,0.0001825,1742104884.0550048
0.025,0.09375,0.07875,0.0002125,0.0010075001,-0.00059500005,0.04,-0.09375,0.075,0.0009625,0.0012825,-0.0001375,1742104884.16892
0.025,0.09375,0.0775,0.00035,0.0016325001,-0.00032,0.04,-0.09375,0.0725,0.00061,0.0007625,0.00058,1742104884.281909
0.02875,0.09375,0.07375,0.00055,0.00148,0.0002125,0.04125,-0.09375,0.07375,0.0007625,0.0004725,0.0011900001,1742104884.394782
0.0275,0.0925,0.07875,0.0015575,0.0013425,0.00033500002,0.0425,-0.0925,0.07,0.00174,-0.00059500005,0.0012675,1742104884.5091012
0.02625,0.09375,0.08,0.0012050001,0.002305,0.0002125,0.04125,-0.09,0.07375,0.0018775001,-0.000625,0.00151,1742104884.6207721
0.03125,0.09,0.08,0.00232,0.0036324998,0.0001375,0.04375,-0.095,0.07,0.0020899998,0.00122,0.0013725,1742104884.733842
0.0325,0.0875,0.08125,0.0016775,0.00055,-0.000365,0.04375,-0.0925,0.07125,-0.00033500002,0.00064,0.0012050001,1742104884.849817
0.03,0.08875,0.08125,0.0014500001,-9.25e-05,-0.00026,0.04625,-0.09375,0.06625,-0.00023,0.0009925,0.0004125,1742104884.9599948
0.03125,0.08625,0.08375,0.00087,-0.00087,-0.0001225,0.04875,-0.09125,0.06875,-0.0010075001,0.0009625,-0.000245,1742104885.0740218
0.03125,0.085,0.085,4.5e-05,-0.00079250004,-0.00016750001,0.0475,-0.09375,0.06625,0.00045750002,0.0020150002,0.0001375,1742104885.188205
0.03125,0.08875,0.0825,-0.0001225,-0.000625,0.0001375,0.05,-0.0925,0.065,0.000107500004,-0.0004125,-0.00026,1742104885.302013
0.03,0.0875,0.0825,-0.0003975,1.5e-05,0.0001825,0.04875,-0.09375,0.0675,0.00033500002,-0.000305,0.001115,1742104885.415977
0.03,0.0875,0.08,-0.00023,-0.0002125,0.0004125,0.04875,-0.09125,0.065,0.0004125,3e-05,0.000107500004,1742104885.530049
0.02875,0.08875,0.085,-0.0001975,-0.0006725,-3e-05,0.04875,-0.095,0.06625,0.0009625,-0.0010975,0.0,1742104885.644085
0.0275,0.08875,0.0825,-0.000305,0.0007025,-0.000565,0.04875,-0.09375,0.065,0.00033500002,0.00032,0.00032,1742104885.758087
0.03,0.0875,0.08125,-0.00058,-1.5e-05,-0.0004425,0.04875,-0.09375,0.065,4.5e-05,-0.00113,0.00023,1742104885.872097
0.03,0.09125,0.0775,0.0019225,-0.0076149995,-0.0034625002,0.05,-0.0925,0.06375,-0.0013275,-0.004195,0.0014500001,1742104885.98963
0.0275,0.085,0.0925,0.0007175,-0.001435,-0.0016175,0.04625,-0.09125,0.07125,0.0030375,-0.004105,0.0013875001,1742104886.100029
0.0275,0.08625,0.08125,0.0013125,-0.0001975,-0.00055,0.04625,-0.09375,0.0675,-0.0001525,-0.00059500005,0.0007025,1742104886.213877
0.02875,0.085,0.085,0.0012825,-0.0036775,-0.00154,0.04625,-0.0925,0.0675,-0.000565,-0.0010075001,1.5e-05,1742104886.3295949
0.0275,0.08375,0.0925,-0.00177,0.0013125,-0.0005025,0.0475,-0.09375,0.0675,-0.00052,-0.00061,0.0001525,1742104886.441121
0.0275,0.085,0.08625,0.00016750001,-0.0010675,-0.0001375,0.045,-0.09125,0.07,-0.0007475,-0.0022274998,0.000855,1742104886.55509
0.0275,0.0825,0.0875,0.00016750001,-0.00079250004,-0.00058,0.045,-0.09125,0.07125,-0.00016750001,-0.000885,0.00055,1742104886.668894
0.02875,0.0825,0.0875,0.00033500002,-1.5e-05,-0.00029,0.045,-0.09125,0.07,-0.0003975,-0.0024249998,0.00093,1742104886.7821429
0.0275,0.08375,0.08875,-0.0007775,-0.00016750001,-0.0001975,0.045,-0.09375,0.0725,-0.00052,-0.001465,0.001525,1742104886.896029
0.0275,0.08375,0.08625,-0.00052,-0.0001525,-4.5e-05,0.045,-0.09,0.07125,-0.0001975,-4.5e-05,-1.5e-05,1742104887.0101728
0.02625,0.08375,0.08875,0.00016750001,-0.00035,0.000107500004,0.045,-0.09125,0.0725,-1.5e-05,3e-05,-9.25e-05,1742104887.123788
0.0275,0.085,0.08625,-6e-05,0.00023,0.00029,0.04625,-0.09125,0.07,6e-05,9.25e-05,-3e-05,1742104887.236825
0.0275,0.08375,0.08625,3e-05,-0.0001975,-3e-05,0.045,-0.09125,0.07125,0.00026,-1.5e-05,0.000305,1742104887.349997
0.0275,0.08375,0.08625,-0.00016750001,-0.0001375,-0.0001975,0.045,-0.09125,0.07125,-0.000107500004,0.0004425,-0.0001825,1742104887.464051
0.02625,0.08375,0.08625,0.000245,0.0005025,0.0007025,0.045,-0.0925,0.07125,-0.00026,3e-05,1.5e-05,1742104887.577738
0.0275,0.085,0.0875,-0.000107500004,0.0001825,9.25e-05,0.04625,-0.09,0.07125,-9.25e-05,-0.0001225,3e-05,1742104887.690816
0.0275,0.08375,0.08625,-4.5e-05,0.00016750001,0.0001825,0.04625,-0.09125,0.07125,-9.25e-05,-0.0001375,-4.5e-05,1742104887.8040051
0.0275,0.08375,0.08625,-0.0001225,-7.75e-05,6e-05,0.045,-0.09125,0.07125,7.75e-05,-9.25e-05,-6e-05,1742104887.917985
0.02625,0.085,0.0875,0.000107500004,-0.0001225,-0.0001975,0.045,-0.09125,0.0725,9.25e-05,-7.75e-05,-7.75e-05,1742104888.031955
0.02625,0.08375,0.0875,0.0001375,0.00029,-7.75e-05,0.045,-0.09125,0.07125,-7.75e-05,0.00033500002,0.0,1742104888.1458392
0.02625,0.08375,0.08625,-0.000245,-0.0001375,3e-05,0.045,-0.09,0.07125,1.5e-05,-0.0001525,6e-05,1742104888.2591581
0.02625,0.085,0.08625,-6e-05,0.00055,0.00023,0.04625,-0.09,0.07125,-9.25e-05,-0.00032,-1.5e-05,1742104888.3728058
0.0275,0.08375,0.0875,-0.00023,0.0001825,0.0,0.045,-0.09,0.07125,9.25e-05,-0.0001975,-4.5e-05,1742104888.489654
0.02625,0.08625,0.0875,-1.5e-05,0.00029,-0.0001525,0.045,-0.09125,0.0725,-0.00026,-4.5e-05,7.75e-05,1742104888.599936
0.0275,0.08625,0.08625,0.0,-6e-05,-0.0001375,0.045,-0.09125,0.0725,-9.25e-05,-0.00016750001,4.5e-05,1742104888.713932
0.0275,0.085,0.08625,0.0,-0.000365,-0.000305,0.04625,-0.09,0.07125,-0.0001225,0.0001525,-6e-05,1742104888.8290591
0.02625,0.085,0.085,0.0001225,-0.0001375,-3e-05,0.045,-0.09,0.0725,-0.00016750001,7.75e-05,-9.25e-05,1742104888.941922
0.0275,0.085,0.08625,0.000107500004,-0.00026,-7.75e-05,0.045,-0.09,0.0725,-0.0001975,-0.00023,-0.0001525,1742104889.055975
0.02625,0.08375,0.08625,3e-05,0.0001225,-0.000305,0.045,-0.09125,0.0725,-0.0004425,-7.75e-05,1.5e-05,1742104889.173716
0.02625,0.08625,0.0875,-0.000245,-0.00026,-0.00026,0.045,-0.09,0.0725,-0.000655,-6e-05,-0.00048750002,1742104889.284079
0.02625,0.08625,0.08625,-0.00026,-0.00029,-0.00061,0.045,-0.09,0.07375,-0.00023,0.000275,-0.000275,1742104889.398081
0.02625,0.08375,0.085,-0.0001975,-0.0002125,-0.00052,0.045,-0.09,0.07375,-0.000535,0.00084,-0.000275,1742104889.511939
0.02625,0.08625,0.0875,-0.000365,-0.0006725,-0.0003975,0.045,-0.08875,0.0725,-0.00023,0.0006875,-0.0004275,1742104889.6260219
0.0275,0.085,0.08625,0.0001825,-0.00125,-0.00045750002,0.045,-0.09125,0.07375,-0.00059500005,0.0003975,-0.00033500002,1742104889.739799
0.02625,0.085,0.085,0.00016750001,-0.0010525,-0.0004425,0.045,-0.08875,0.07375,-0.00048750002,0.0004425,3e-05,1742104889.8539321
0.025,0.085,0.08875,0.0004725,-0.00033500002,-4.5e-05,0.045,-0.08875,0.0725,-0.0001975,-0.0001525,-0.00026,1742104889.9700742
0.02625,0.085,0.0875,0.0006875,0.0001375,-0.00016750001,0.04625,-0.08875,0.07375,-0.0001375,0.0001825,-6e-05,1742104890.081881
0.025,0.08375,0.08625,0.00151,-0.0001825,-6e-05,0.045,-0.08875,0.0725,4.5e-05,7.75e-05,0.0004275,1742104890.1958249
0.025,0.08375,0.08875,0.0004275,0.000275,-0.0004275,0.045,-0.08875,0.07375,0.0003825,-0.000107500004,-4.5e-05,1742104890.309717
0.02625,0.08375,0.08875,-0.00061,9.25e-05,-0.00045750002,0.04625,-0.08875,0.07375,6e-05,0.0001825,0.000107500004,1742104890.422851
0.02625,0.08,0.08625,-0.00033500002,-0.0004725,-0.00058,0.045,-0.08875,0.07375,0.0,0.0001225,0.00026,1742104890.536924
0.02625,0.08375,0.09125,-3e-05,-0.0003975,-9.25e-05,0.04625,-0.09,0.07375,9.25e-05,0.000305,-0.0002125,1742104890.653177
0.02625,0.0825,0.08875,-0.000885,0.0003825,-0.0006875,0.04625,-0.09,0.07375,-0.00023,0.0001225,0.00026,1742104890.764888
0.02625,0.0825,0.08875,-0.00026,-1.5e-05,-0.00026,0.045,-0.09,0.0725,0.0001825,-7.75e-05,-1.5e-05,1742104890.8789508
0.02625,0.085,0.08875,0.000275,0.0001525,-6e-05,0.04625,-0.09,0.07375,0.0001225,0.0001825,7.75e-05,1742104890.992749
0.02625,0.0825,0.08875,0.0007325,7.75e-05,-9.25e-05,0.04625,-0.08875,0.0725,3e-05,-3e-05,-3e-05,1742104891.105759
0.02625,0.0825,0.0875,0.0003975,-0.00026,-6e-05,0.04625,-0.08875,0.0725,3e-05,0.0001525,-7.75e-05,1742104891.218807
0.02625,0.0825,0.09,-0.00084,-0.00079250004,0.00023,0.045,-0.09125,0.07375,-1.5e-05,-4.5e-05,-0.0001225,1742104891.332872
0.02625,0.0825,0.0875,-0.0005025,0.000107500004,1.5e-05,0.04625,-0.09,0.0725,0.00016750001,0.00058,-0.00058,1742104891.449454
0.02625,0.08375,0.08875,0.00093,-3e-05,0.00035,0.04625,-0.09,0.07125,0.000107500004,0.0,1.5e-05,1742104891.559718
0.02625,0.0825,0.0875,0.0007325,0.00016750001,0.00023,0.04625,-0.09,0.0725,0.00023,0.0001525,-4.5e-05,1742104891.673706
0.02625,0.0825,0.08875,0.0006725,0.000275,0.000245,0.04625,-0.09125,0.07125,-3e-05,0.00023,4.5e-05,1742104891.789481
0.025,0.0825,0.09,0.0006875,-7.75e-05,0.000305,0.04625,-0.09,0.07125,9.25e-05,7.75e-05,4.5e-05,1742104891.898748
0.025,0.0775,0.0925,0.003005,-0.000535,0.00154,0.04625,-0.09125,0.0725,0.0,0.0,-9.25e-05,1742104892.0117388
0.02375,0.0825,0.09125,-0.002,0.0007325,0.00091500004,0.04625,-0.09125,0.07125,-4.5e-05,6e-05,-0.00032,1742104892.125781
0.02375,0.0825,0.08875,6e-05,0.00059500005,0.0008075,0.04625,-0.09,0.07125,0.0001525,1.5e-05,-4.5e-05,1742104892.239739
0.02375,0.08125,0.09125,-0.00026,-0.000305,9.25e-05,0.04625,-0.09,0.0725,0.000275,-7.75e-05,-9.25e-05,1742104892.353889
0.0225,0.08125,0.09125,-0.00023,-1.5e-05,0.000107500004,0.04625,-0.09,0.07125,0.000565,-0.0007325,0.000245,1742104892.4700348
0.02375,0.08,0.09125,-0.00016750001,0.0,0.00026,0.045,-0.09,0.07375,0.000245,-0.0014500001,-0.00035,1742104892.581743
0.0225,0.0825,0.09125,0.0004425,0.000305,0.00079250004,0.045,-0.09125,0.0725,-0.0001825,-0.000305,-0.000245,1742104892.695694
0.02375,0.0825,0.09,0.0002125,0.00045750002,3e-05,0.04375,-0.09125,0.0725,-0.00064,-0.000275,-0.00055,1742104892.8094232
0.02375,0.08125,0.09,0.0005025,0.00079250004,-6e-05,0.04375,-0.09125,0.0725,4.5e-05,0.0,-0.000245,1742104892.922892
0.025,0.08125,0.09,0.00055,0.00029,0.000245,0.04375,-0.09125,0.07375,-0.0005025,0.000107500004,-0.0004725,1742104893.036591
0.025,0.0825,0.09,0.00023,0.000565,-3e-05,0.04375,-0.09125,0.0725,0.0001525,0.00035,-0.00048750002,1742104893.153169
0.0275,0.0825,0.08875,-0.0028675,0.0045324997,-0.00058,0.0425,-0.09375,0.0725,-7.75e-05,0.0003975,-0.00055,1742104893.2638552
0.0275,0.08375,0.0875,-0.0013425,0.00148,-6e-05,0.04375,-0.0875,0.07375,-0.001175,0.00061,-0.000825,1742104893.377959
0.02875,0.08375,0.0875,0.0001975,0.000107500004,0.000245,0.045,-0.09,0.07125,-0.0015875,0.00087,-0.000565,1742104893.4918542
0.0275,0.0825,0.0875,-6e-05,-0.0007025,0.00023,0.04375,-0.09,0.0725,0.00055,0.0002125,-7.75e-05,1742104893.605781
0.0275,0.0825,0.08875,9.25e-05,-0.000825,-7.75e-05,0.04375,-0.09125,0.0725,-7.75e-05,-0.00035,-7.75e-05,1742104893.719926
0.0275,0.0825,0.08875,9.25e-05,-0.0001525,1.5e-05,0.04375,-0.09,0.0725,0.0001825,-0.0007175,0.00016750001,1742104893.833683
0.02625,0.08375,0.0875,0.000275,-0.0004425,0.0001525,0.0425,-0.09,0.07375,-0.0001825,-0.0001525,-0.000305,1742104893.9497669
0.02625,0.08375,0.0875,0.00093,9.25e-05,1.5e-05,0.0425,-0.09,0.0725,-0.0004425,-0.0001225,-0.0004275,1742104894.059754
0.02625,0.0825,0.08875,0.000275,-0.0004275,-0.0002125,0.0425,-0.09125,0.0725,0.0,0.000885,-0.000535,1742104894.173867
0.02625,0.0825,0.0875,-7.75e-05,-0.0004425,-0.00016750001,0.0425,-0.09125,0.0725,0.0006725,0.0021199998,-0.0007325,1742104894.289336
0.02625,0.0825,0.08875,0.0001825,-0.00048750002,0.0001225,0.04375,-0.09375,0.07,0.00048750002,0.0009,-0.00055,1742104894.401851
0.02625,0.0825,0.08875,0.000245,-0.000275,1.5e-05,0.04375,-0.09375,0.07,-0.0007625,-0.0009775,0.0,1742104894.515743
0.025,0.0825,0.09,1.5e-05,-7.75e-05,9.25e-05,0.04375,-0.0925,0.07375,-0.000275,-0.0004425,-1.5e-05,1742104894.632651
0.025,0.0825,0.08875,0.0001825,-6e-05,-3e-05,0.04375,-0.09125,0.07125,-0.001115,0.000655,0.0003975,1742104894.7418299
0.025,0.0825,0.09,0.0001225,-0.0002125,-4.5e-05,0.04375,-0.09125,0.0725,0.0013125,0.0007475,0.0001375,1742104894.855825
0.025,0.0825,0.09,0.00023,0.0001825,0.00029,0.04375,-0.09125,0.07125,9.25e-05,0.00026,-0.00035,1742104894.969704
0.025,0.08125,0.09,-0.0001375,4.5e-05,0.00016750001,0.045,-0.0925,0.07,-0.00016750001,0.000885,-0.0009625,1742104895.082849
0.025,0.0825,0.09125,0.0004275,-4.5e-05,0.000275,0.04375,-0.09125,0.07,0.0001375,-0.00035,-0.000305,1742104895.1967092
0.025,0.0825,0.09,0.0001825,0.000275,0.00026,0.04375,-0.09375,0.07125,4.5e-05,-0.0002125,-0.0001825,1742104895.30984
0.025,0.0825,0.09,9.25e-05,0.00016750001,0.0001225,0.04375,-0.09375,0.07,-0.000305,-0.00079250004,9.25e-05,1742104895.423609
0.025,0.08125,0.09,0.0001375,0.000245,-0.0001225,0.0425,-0.0925,0.0725,-0.0007175,-0.00045750002,-1.5e-05,1742104895.5366771
0.025,0.08125,0.09125,0.000275,0.00029,0.0001825,0.0425,-0.09125,0.0725,-0.001115,-0.000365,-3e-05,1742104895.653148
0.025,0.0825,0.09,0.0002125,0.00087,0.0007325,0.04125,-0.08875,0.07625,-0.002595,7.75e-05,-0.000825,1742104895.7636201
0.025,0.08125,0.08875,0.00026,0.0002125,0.00029,0.0425,-0.09125,0.07375,-0.00125,0.000855,-0.001465,1742104895.876569
0.025,0.08125,0.09,0.00032,6e-05,0.000275,0.0425,-0.09,0.075,-0.00087,0.0009,-0.001145,1742104895.9900138
0.02375,0.08125,0.09125,0.00148,-0.0002125,0.00087,0.04125,-0.08875,0.075,-0.0009775,0.000365,-0.00079250004,1742104896.102846
0.02375,0.08125,0.09125,0.0025625,0.00026,0.0013575,0.04,-0.08875,0.07625,-0.00035,0.000825,-0.0013125,1742104896.216825
0.0225,0.08,0.0925,0.0013725,-0.00087,0.0010075001,0.04,-0.09,0.07625,-0.00023,0.0004725,-0.0010525,1742104896.330657
0.0225,0.07875,0.095,0.001495,-0.00087,0.00055,0.04,-0.09,0.07625,-0.0007475,-6e-05,-0.0010525,1742104896.4439502
0.02125,0.075,0.095,0.0014500001,-0.000855,0.0001525,0.03875,-0.09,0.07625,-0.0009775,0.000275,-0.000855,1742104896.557739
0.01875,0.075,0.09625,0.00319,-0.002305,0.0007625,0.0375,-0.08625,0.07875,-0.0004125,0.00055,-0.00125,1742104896.673883
0.0175,0.0725,0.09875,0.0023800002,-0.0022274998,0.0010825,0.0375,-0.09,0.07875,-0.000275,0.0004275,-0.0013725,1742104896.785832
0.015,0.0725,0.10125,0.001405,-0.0010225,0.00052,0.0375,-0.09,0.08,-0.000825,0.00023,-0.0010975,1742104896.8996081
0.01375,0.07125,0.10125,0.0010375,-0.0001525,0.000275,0.03625,-0.08875,0.0775,-0.0007025,1.5e-05,-0.00084,1742104897.0193222
0.015,0.07,0.1,-0.000305,-0.0001525,0.00016750001,0.03625,-0.08875,0.08,-0.0004275,-0.00033500002,-0.000885,1742104897.125779
0.01375,0.07125,0.10125,-3e-05,-3e-05,0.0001375,0.035,-0.08875,0.08,-0.00035,-0.000107500004,-0.00061,1742104897.239778
0.015,0.07125,0.1,0.00016750001,-6e-05,0.00035,0.03375,-0.08875,0.08,-0.00023,-0.0003975,-0.00052,1742104897.353618
0.01375,0.07,0.1,0.000365,0.0001825,0.00058,0.03375,-0.08875,0.08,-0.00026,-0.000275,-0.0004425,1742104897.469513
0.01375,0.07,0.1025,0.001405,0.000245,0.00091500004,0.03375,-0.09,0.08125,-0.000625,-1.5e-05,-0.000825,1742104897.580603
0.01375,0.06875,0.10375,0.0034475,0.0006875,0.0004425,0.03375,-0.09,0.0825,-0.00171,0.0003975,-0.00079250004,1742104897.693553
0.01375,0.0625,0.105,0.0057225,0.001525,0.00029,0.03,-0.085,0.08875,-0.008195,0.001235,-0.0016325001,1742104897.809603
0.015,0.06375,0.10375,0.0036,3e-05,-0.00055,0.03375,-0.085,0.08375,-0.00409,0.0010225,-0.0019525,1742104897.919635
0.01375,0.05875,0.1075,0.0029000002,-0.00059500005,-0.001175,0.035,-0.08125,0.085,-0.0025475,-0.00026,-0.00058,1742104898.033943
0.015,0.0575,0.1075,0.0024249998,-0.00052,4.5e-05,0.03375,-0.08,0.08875,-0.0021825,-0.0013575,-7.75e-05,1742104898.147636
0.01375,0.055,0.10875,0.0031275,-0.00171,-0.000365,0.03,-0.07875,0.0925,-0.002335,-0.0022574998,4.5e-05,1742104898.260865
0.01125,0.05125,0.1125,0.0025475,-0.0011900001,0.000565,0.0275,-0.0775,0.09375,-0.0020899998,-0.0018,-0.000365,1742104898.374791
0.01125,0.0525,0.11125,0.00052,-0.00029,0.00016750001,0.0275,-0.07625,0.095,-0.001115,-0.000365,0.0002125,1742104898.489714
0.01125,0.05125,0.1125,-6e-05,-0.0001975,-0.0004275,0.0275,-0.075,0.095,-0.00093,-0.0003825,0.00035,1742104898.602758
0.01125,0.05,0.11125,-0.000625,0.00033500002,-0.0001225,0.0275,-0.07375,0.095,-0.000855,-0.00079250004,0.0001525,1742104898.716945
0.01375,0.05,0.11125,-0.0032650002,0.003175,0.000107500004,0.0275,-0.07375,0.09625,-0.000275,-0.0001975,-0.00052,1742104898.83076
0.01875,0.055,0.10625,-0.0068975003,0.0039975,0.0009625,0.02875,-0.07625,0.095,0.00079250004,0.00116,-0.0006725,1742104898.9445708
0.0125,0.07125,0.105,-0.009675,-0.00026,0.0009925,0.0275,-0.075,0.095,0.000365,0.0003825,-0.00061,1742104899.058506
0.0125,0.0725,0.1025,-0.0036775,0.0001825,0.0014500001,0.02875,-0.07625,0.09375,0.0012050001,0.0006875,-0.000885,1742104899.173954
0.01625,0.0725,0.09875,-0.0015725,0.0015725,0.001465,0.02875,-0.0775,0.09125,0.0009625,-0.00174,-0.0001975,1742104899.289684
0.015,0.0725,0.09875,-0.00059500005,0.00084,0.0007175,0.02625,-0.07875,0.09625,-0.00029,-0.0010225,-4.5e-05,1742104899.4007611
0.01625,0.0725,0.09875,-0.0001825,0.000275,0.0004125,0.02625,-0.0775,0.09375,0.00055,3e-05,-0.000365,1742104899.514563
0.0175,0.0725,0.09875,-0.0009925,0.0001225,-0.00033500002,0.02625,-0.07875,0.09625,-0.00048750002,-0.00016750001,-0.000305,1742104899.629598
0.015,0.0725,0.09875,0.0001525,-0.000365,0.0001825,0.02625,-0.07875,0.09375,0.00016750001,0.000245,-4.5e-05,1742104899.74261
0.01625,0.07375,0.09875,-0.0002125,4.5e-05,0.00033500002,0.025,-0.07875,0.09375,-0.00125,-0.00079250004,-0.00026,1742104899.85675
0.015,0.075,0.09875,-0.0001525,0.00061,0.000245,0.025,-0.0775,0.09625,-0.0001525,0.0001375,0.0001825,1742104899.9705842
0.01625,0.07375,0.0975,-0.00026,0.0008075,4.5e-05,0.02625,-0.07625,0.09375,4.5e-05,0.000565,-1.5e-05,1742104900.084578
0.0175,0.07375,0.0975,-0.0003975,0.0010825,-0.0002125,0.02625,-0.0775,0.095,-0.000305,-0.000245,-0.0002125,1742104900.198766
0.0175,0.07375,0.09625,0.0001225,0.0004275,0.00033500002,0.025,-0.0775,0.095,-0.000245,-0.00052,-0.00032,1742104900.312767
0.0175,0.07375,0.09625,0.00016750001,9.25e-05,0.00029,0.02375,-0.07625,0.095,-0.0009,-0.0009,-0.0010825,1742104900.4291809
0.0175,0.075,0.09875,0.0011900001,-0.0010825,0.000275,0.0225,-0.07625,0.0975,-0.00084,-0.0007775,-0.0006725,1742104900.540691
0.01625,0.0725,0.09875,0.0010225,-0.0004425,0.0003825,0.0225,-0.07625,0.09625,-1.5e-05,0.000275,-0.0003825,1742104900.654672
0.015,0.07125,0.1,0.0024100002,-0.0024425,0.000535,0.0225,-0.07625,0.09625,-3e-05,7.75e-05,-4.5e-05,1742104900.770187
0.01375,0.07125,0.09875,0.000565,-0.00045750002,0.00035,0.0225,-0.07625,0.09625,-9.25e-05,0.00048750002,-0.00058,1742104900.882642
0.0125,0.07,0.10125,0.000855,-0.0016925,0.00084,0.02375,-0.07625,0.095,-1.5e-05,0.00016750001,-0.000535,1742104900.996607
0.01,0.07,0.1025,0.001145,-0.0013575,0.00087,0.0225,-0.07625,0.09625,-0.0004275,-0.0004725,-0.0004125,1742104901.1108181
0.01,0.07,0.1025,0.000535,-0.00059500005,0.00059500005,0.0225,-0.075,0.09625,-0.000245,-0.0004275,-0.00045750002,1742104901.224662
0.00875,0.06875,0.10375,0.00052,-0.00032,-3e-05,0.02125,-0.07625,0.0975,-0.000305,-0.0001375,-0.0002125,1742104901.3386729
0.00875,0.06875,0.1025,-7.75e-05,0.0001825,7.75e-05,0.02125,-0.075,0.09625,-0.0002125,-0.00035,-0.0001375,1742104901.4526799
0.00875,0.06875,0.1025,4.5e-05,6e-05,0.0001525,0.02125,-0.075,0.0975,-0.00033500002,-1.5e-05,-0.000275,1742104901.569503
0.00875,0.06875,0.1025,-9.25e-05,0.0001525,-1.5e-05,0.02125,-0.075,0.0975,-0.000305,7.75e-05,-0.000245,1742104901.6805718
0.00875,0.07,0.1025,-0.00032,1.5e-05,0.000275,0.02125,-0.07625,0.0975,-0.0001825,-4.5e-05,-0.000245,1742104901.794671
0.00875,0.06875,0.10125,-7.75e-05,3e-05,-0.000107500004,0.02,-0.075,0.0975,-7.75e-05,-4.5e-05,0.000107500004,1742104901.910151
0.00875,0.06875,0.10375,0.0001525,0.0003825,0.00048750002,0.02,-0.07625,0.0975,-0.0002125,4.5e-05,-0.0001825,1742104902.0225239
0.0075,0.06875,0.1025,0.000305,0.0002125,0.0001825,0.02,-0.07125,0.10125,-0.0007325,0.0009925,-0.00029,1742104902.1366148
0.00875,0.0675,0.1025,0.0002125,-0.000275,0.00016750001,0.0225,-0.07375,0.0975,-0.000885,0.0016025,-0.0007325,1742104902.2505028
0.0075,0.0675,0.10375,0.0001525,-0.0004725,-3e-05,0.0225,-0.07375,0.0975,0.000275,0.0001375,-0.0001525,1742104902.364535
0.0075,0.0675,0.10375,-0.0001525,-0.00016750001,7.75e-05,0.02125,-0.07375,0.0975,0.00064,-6e-05,-0.0004125,1742104902.478545
0.0075,0.06875,0.10375,9.25e-05,-6e-05,6e-05,0.02125,-0.07625,0.09625,3e-05,9.25e-05,-0.0002125,1742104902.592395
0.00625,0.06875,0.10375,0.00045750002,-0.00033500002,9.25e-05,0.02125,-0.075,0.09875,4.5e-05,-0.0001825,-0.000365,1742104902.705533
0.00625,0.0675,0.10375,3e-05,-6e-05,9.25e-05,0.02125,-0.07625,0.09625,0.0,9.25e-05,-0.00032,1742104902.8194182
0.0075,0.06875,0.1025,0.0,-0.0001375,1.5e-05,0.02125,-0.075,0.0975,-3e-05,-0.00033500002,-0.00023,1742104902.932619
0.00625,0.0675,0.10375,0.0001525,-0.00064,-7.75e-05,0.02125,-0.07625,0.0975,-0.000305,-7.75e-05,-0.0001525,1742104903.049082
0.005,0.0675,0.10375,0.0001225,-0.0003825,1.5e-05,0.02,-0.075,0.09625,4.5e-05,-0.00035,-6e-05,1742104903.160521
0.00375,0.06875,0.105,0.00084,-0.00048750002,-0.0001525,0.02,-0.075,0.09875,-0.00033500002,-0.0004725,-0.00048750002,1742104903.2746072
0.005,0.0675,0.10375,0.0007325,0.0001225,-0.000245,0.02,-0.075,0.0975,-0.000365,7.75e-05,-0.0007625,1742104903.389333
0.005,0.06625,0.105,0.00177,0.0002125,-0.0001225,0.01875,-0.07375,0.09875,-0.0012825,-0.0004275,-0.000885,1742104903.5026162
0.00625,0.06375,0.10375,0.0024100002,-0.000365,-0.0003825,0.0175,-0.075,0.1,-0.001725,-0.000245,-0.0010075001,1742104903.6164749
0.005,0.06125,0.10625,0.0037525,-0.0012825,-0.00033500002,0.01625,-0.07125,0.1,-0.001785,-0.00125,-0.00059500005,1742104903.7305741
0.00375,0.06,0.10875,0.0010375,-0.0021975,-0.0006725,0.015,-0.06875,0.1025,-0.0018,-0.000655,-0.0007775,1742104903.844592
0.0025,0.05875,0.11,0.00055,-0.0004275,-0.000245,0.015,-0.07,0.1025,-0.0028074998,-0.0020599999,-0.00087,1742104903.9585972
0.0025,0.05625,0.10875,0.000305,0.0002125,4.5e-05,0.01375,-0.065,0.105,-0.0032950002,-0.0027625,-0.000305,1742104904.072584
0.00375,0.05625,0.10875,0.0001525,0.00048750002,-1.5e-05,0.01125,-0.06125,0.10375,-0.003845,-0.005005,-0.002625,1742104904.1887019
0.00375,0.05625,0.1075,0.0019225,0.000535,0.000107500004,0.005,-0.06,0.10875,-0.0045775,-0.0062399996,-0.004485,1742104904.300595
0.00375,0.05375,0.11125,0.0027,-0.00045750002,6e-05,-0.005,-0.05375,0.1075,-0.00415,-0.006165,-0.004395,1742104904.414638
0.0025,0.05,0.11375,0.001405,-0.0001825,4.5e-05,-0.0175,-0.055,0.115,-0.0036,-0.0045775,-0.0015575,1742104904.52979
0.00375,0.0525,0.11125,0.0010225,-3e-05,0.0009625,-0.03125,-0.05375,0.135,-0.0098875,-0.00177,-0.0016025,1742104904.642592
