L-AccX,L-AccY,L-AccZ,L-GyrX,L-GyrY,L-GyrZ,R-AccX,R-AccY,R-AccZ,R-GyrX,R-GyrY,R-GyrZ,timestamp
-0.02,0.2,0.9,6.47,-15.44,5.55,-0.25,-0.32,0.85,-15.32,6.35,44.07,1742257867.989704
-0.48,0.25,0.89,12.02,2.32,-5.07,-0.26,-0.23,0.86,-3.91,0.37,15.32,1742257868.1075609
-0.33,0.21,0.85,-25.82,60.67,-96.98,-0.22,-0.26,0.87,19.1,-17.58,4.39,1742257868.2177238
0.12,0.19,0.8,-60.49,-2.69,-43.03,-0.29,-0.37,0.9,-2.69,-19.23,-0.06,1742257868.331914
0.26,0.34,0.99,-18.43,-23.56,14.4,-0.3,-0.31,0.87,-3.91,3.23,10.13,1742257868.448456
0.27,0.46,0.92,-49.44,20.2,14.59,-0.28,-0.32,0.81,7.57,-2.01,0.67,1742257868.559731
0.1,0.47,0.82,16.85,-42.36,29.6,-0.31,-0.33,0.88,14.28,-5.31,-2.38,1742257868.6738272
-0.04,0.52,0.82,-13.92,-36.19,31.37,-0.31,-0.36,0.88,2.69,-5.68,-8.18,1742257868.791296
-0.16,0.62,0.88,-13.85,-26.31,27.16,-0.33,-0.33,0.89,2.62,11.66,-5.07,1742257868.9017842
-0.24,0.54,0.85,-14.83,-15.81,17.33,-0.33,-0.33,0.84,22.77,28.02,-3.48,1742257869.01564
-0.27,0.58,0.79,-1.04,-9.09,15.38,-0.25,-0.39,0.85,3.3,-3.3,-8.36,1742257869.129835
-0.3,0.58,0.8,-8.48,-1.34,6.16,-0.27,-0.44,0.89,-4.88,-2.75,2.75,1742257869.24835
-0.28,0.55,0.78,4.94,-4.46,5.86,-0.25,-0.4,0.81,5.55,5.8,13.61,1742257869.3575602
-0.29,0.55,0.8,20.2,-7.32,4.33,-0.3,-0.38,0.86,-5.0,-3.97,15.32,1742257869.471754
-0.27,0.53,0.7,-3.91,-6.9,8.36,-0.25,-0.38,0.85,-1.04,0.49,2.93,1742257869.587212
-0.36,0.54,0.83,19.96,-26.55,-2.99,-0.23,-0.39,0.89,-0.85,3.3,3.66,1742257869.6996858
-0.33,0.46,0.74,4.33,-13.92,-5.49,-0.22,-0.41,0.82,-3.78,5.68,-2.5,1742257869.813849
-0.4,0.45,0.76,-4.15,-16.24,6.65,-0.24,-0.36,0.83,-5.31,-1.1,-2.2,1742257869.927822
-0.43,0.53,0.79,-9.52,-18.68,5.13,-0.26,-0.4,0.89,3.54,-11.96,-3.05,1742257870.04186
-0.47,0.49,0.78,14.71,-15.56,-0.24,-0.27,-0.37,0.89,-2.87,-7.39,0.85,1742257870.155734
-0.48,0.48,0.76,0.55,-4.52,7.87,-0.3,-0.37,0.86,-5.49,-6.35,1.77,1742257870.269758
-0.5,0.49,0.74,0.43,1.59,0.12,-0.29,-0.36,0.85,-0.67,-2.2,-5.62,1742257870.387274
-0.49,0.44,0.79,-5.74,7.39,-2.93,-0.29,-0.3,0.83,-26.49,-15.26,-27.89,1742257870.497866
-0.46,0.5,0.7,16.11,2.56,-0.61,-0.33,-0.32,0.88,-2.81,2.44,-9.34,1742257870.6117702
-0.45,0.44,0.76,10.25,-4.46,-1.34,-0.33,-0.29,0.86,-5.49,-5.0,-5.74,1742257870.7274911
-0.48,0.45,0.76,10.74,-1.65,-0.24,-0.36,-0.24,0.83,-10.68,-14.65,-10.74,1742257870.839831
-0.45,0.38,0.75,19.04,-7.08,0.43,-0.39,-0.25,0.91,-18.74,-36.38,-14.89,1742257870.9538078
-0.49,0.38,0.78,15.5,-17.27,9.83,-0.45,-0.16,0.84,-9.4,-11.41,-3.91,1742257871.067957
-0.53,0.34,0.81,14.28,-14.04,3.85,-0.47,-0.16,0.82,-4.58,-13.73,-5.8,1742257871.181817
-0.54,0.31,0.78,11.78,-13.0,5.25,-0.53,-0.17,0.83,0.06,-23.99,-3.97,1742257871.295787
-0.58,0.3,0.77,1.53,-12.39,9.89,-0.54,-0.15,0.78,23.68,-5.55,10.25,1742257871.4096682
-0.59,0.3,0.72,13.61,-19.41,8.3,-0.54,-0.32,0.78,22.46,-22.58,-0.61,1742257871.5241358
-0.67,0.29,0.77,18.37,-15.26,2.62,-0.55,-0.13,0.82,27.83,15.5,3.48,1742257871.637575
-0.65,0.22,0.71,5.74,-9.7,4.64,-0.55,-0.3,0.82,-1.53,-4.88,1.04,1742257871.751752
-0.68,0.23,0.72,11.54,-6.29,1.22,-0.52,-0.25,0.76,15.01,4.94,-0.79,1742257871.868299
-0.67,0.21,0.72,1.65,0.0,-0.24,-0.52,-0.24,0.78,1.95,3.11,-0.37,1742257871.979689
-0.66,0.21,0.72,-9.09,5.55,-4.03,-0.52,-0.25,0.78,2.99,3.05,1.34,1742257872.093575
-0.65,0.22,0.71,-0.92,-1.65,0.06,-0.52,-0.27,0.78,2.62,-0.49,2.69,1742257872.2076318
-0.66,0.21,0.72,-17.88,-8.97,2.08,-0.52,-0.26,0.8,14.47,3.23,-1.59,1742257872.321661
-0.68,0.26,0.68,5.31,-2.93,2.08,-0.51,-0.31,0.75,7.69,0.43,-0.37,1742257872.435715
-0.68,0.22,0.7,19.41,-3.48,1.46,-0.51,-0.29,0.78,2.01,-1.34,0.73,1742257872.549647
-0.69,0.21,0.69,0.31,-2.44,0.98,-0.51,-0.3,0.78,8.3,8.12,-1.83,1742257872.667854
-0.69,0.2,0.69,4.15,-2.5,0.18,-0.51,-0.32,0.77,2.2,0.43,0.85,1742257872.777598
-0.69,0.2,0.69,-0.85,-1.28,0.24,-0.51,-0.32,0.77,2.32,-0.31,0.85,1742257872.891637
-0.69,0.2,0.69,0.92,-0.79,0.43,-0.5,-0.32,0.77,1.34,0.12,0.73,1742257873.0077481
-0.7,0.2,0.69,1.53,-0.49,1.04,-0.51,-0.32,0.77,1.46,-0.43,1.46,1742257873.119722
-0.69,0.2,0.68,2.2,-0.49,0.92,-0.49,-0.32,0.81,6.77,15.75,-3.66,1742257873.233663
-0.7,0.18,0.69,10.44,0.98,0.79,-0.48,-0.36,0.76,0.49,2.56,0.31,1742257873.347612
-0.69,0.16,0.7,9.34,1.16,-0.49,-0.49,-0.34,0.77,0.73,-1.71,0.49,1742257873.461605
-0.69,0.16,0.7,-1.59,-0.31,-0.55,-0.49,-0.33,0.77,2.75,0.12,-0.06,1742257873.575688
-0.7,0.17,0.7,-15.62,-2.69,-1.46,-0.49,-0.33,0.76,1.65,0.0,-0.85,1742257873.6897101
-0.69,0.2,0.67,-7.87,-0.12,-1.4,-0.49,-0.34,0.77,0.06,-0.49,0.18,1742257873.803639
-0.69,0.2,0.69,-2.32,-0.12,-2.69,-0.49,-0.33,0.78,-1.53,-1.16,-0.67,1742257873.9177952
-0.69,0.21,0.68,-7.14,0.18,-1.89,-0.49,-0.34,0.77,-3.48,-1.71,-0.73,1742257874.031789
-0.69,0.22,0.68,-9.52,0.24,-0.12,-0.5,-0.33,0.77,0.12,-1.28,-0.49,1742257874.14746
-0.7,0.23,0.68,-9.83,0.12,2.26,-0.5,-0.34,0.76,1.77,0.43,-0.67,1742257874.2596748
-0.69,0.25,0.66,-3.97,-1.1,1.28,-0.5,-0.32,0.76,-0.92,-3.66,-2.14,1742257874.373767
-0.7,0.24,0.68,-2.87,-0.24,1.16,-0.51,-0.32,0.75,-0.31,-2.01,0.24,1742257874.487675
-0.68,0.25,0.66,0.12,-0.49,0.43,-0.51,-0.33,0.77,1.28,-1.22,-0.06,1742257874.6018
-0.7,0.24,0.67,1.65,-0.98,-0.55,-0.51,-0.33,0.76,1.34,-1.28,0.12,1742257874.7155478
-0.7,0.24,0.67,-1.16,-0.49,-0.31,-0.54,-0.33,0.79,4.39,-1.1,1.46,1742257874.8312562
-0.69,0.25,0.66,2.81,-0.24,-0.49,-0.53,-0.34,0.74,-10.68,0.43,3.05,1742257874.947076
-0.7,0.24,0.67,3.42,-0.12,-0.37,-0.52,-0.31,0.76,-8.18,0.98,3.05,1742257875.057617
-0.7,0.25,0.68,6.35,0.92,-2.26,-0.51,-0.34,0.77,2.56,3.05,5.0,1742257875.174826
-0.7,0.23,0.69,7.51,0.61,-3.85,-0.5,-0.34,0.76,1.95,1.22,6.9,1742257875.291007
-0.69,0.24,0.68,2.14,-0.12,-3.66,-0.5,-0.34,0.76,1.4,-0.06,6.59,1742257875.3996
-0.69,0.23,0.68,5.19,-1.28,-2.81,-0.5,-0.34,0.77,-0.79,-0.55,3.72,1742257875.513723
-0.69,0.22,0.69,4.64,-0.06,-1.83,-0.5,-0.35,0.76,0.06,0.31,0.79,1742257875.627469
-0.69,0.23,0.68,1.22,0.18,-0.37,-0.5,-0.35,0.76,0.12,0.31,0.79,1742257875.741424
-0.69,0.23,0.68,2.5,-0.61,-0.12,-0.5,-0.35,0.76,0.61,0.0,0.31,1742257875.855478
-0.69,0.21,0.68,4.27,-1.1,0.85,-0.5,-0.35,0.76,2.87,1.4,-1.1,1742257875.969613
-0.69,0.21,0.69,1.4,-1.28,2.26,-0.49,-0.36,0.78,-1.4,-0.85,-2.75,1742257876.087421
-0.7,0.22,0.7,2.44,-0.31,3.05,-0.5,-0.37,0.75,1.53,0.92,-1.22,1742257876.197644
-0.7,0.22,0.67,0.79,-0.49,0.55,-0.5,-0.35,0.76,0.24,0.31,0.18,1742257876.3114529
-0.7,0.2,0.69,-1.53,0.49,-0.43,-0.5,-0.35,0.76,-0.92,-0.55,-0.31,1742257876.428087
-0.7,0.21,0.69,-0.73,0.92,-0.61,-0.5,-0.35,0.76,-0.67,-0.12,0.0,1742257876.539665
-0.69,0.22,0.69,0.31,-0.12,-1.53,-0.5,-0.35,0.76,0.67,0.12,0.06,1742257876.653483
-0.69,0.21,0.68,0.43,-0.12,-0.98,-0.5,-0.35,0.76,0.0,-0.12,-0.06,1742257876.769102
-0.69,0.21,0.68,0.0,-0.18,-0.12,-0.5,-0.36,0.76,0.55,0.0,-0.37,1742257876.881553
-0.7,0.21,0.68,-0.37,-0.24,0.06,-0.5,-0.35,0.76,0.79,0.43,-0.12,1742257876.995862
-0.69,0.21,0.69,0.24,-0.18,-0.18,-0.5,-0.35,0.76,0.92,0.31,-0.73,1742257877.109555
-0.7,0.21,0.68,0.0,-0.18,-0.12,-0.5,-0.35,0.76,-0.79,-0.12,0.24,1742257877.2278569
-0.69,0.21,0.68,-0.92,0.06,-0.49,-0.5,-0.35,0.76,-0.18,0.0,-0.43,1742257877.3376079
-0.69,0.21,0.68,-0.24,-0.24,-0.49,-0.51,-0.35,0.76,0.18,0.06,-0.85,1742257877.4515462
-0.69,0.21,0.68,-1.4,-0.24,-0.79,-0.51,-0.35,0.76,-2.69,-1.59,-0.18,1742257877.567283
-0.69,0.21,0.69,-2.32,-0.85,-0.61,-0.5,-0.35,0.76,-2.69,-0.67,-1.1,1742257877.67971
-0.69,0.23,0.68,-3.54,-0.98,-1.04,-0.51,-0.34,0.76,-5.92,-2.75,-1.77,1742257877.7937
-0.7,0.23,0.67,-5.43,-0.06,-2.2,-0.52,-0.33,0.76,-6.59,-3.42,-2.14,1742257877.907715
-0.69,0.23,0.68,-6.53,0.98,-2.26,-0.53,-0.31,0.77,-5.25,-2.32,-1.28,1742257878.0217412
-0.69,0.26,0.67,-8.06,1.28,-0.85,-0.53,-0.31,0.76,-0.67,0.31,-0.61,1742257878.135618
-0.68,0.27,0.67,-4.76,0.61,-1.28,-0.52,-0.3,0.76,-1.22,-0.43,0.18,1742257878.249648
-0.69,0.27,0.67,-2.75,-0.31,-0.79,-0.53,-0.3,0.76,0.24,0.06,-0.31,1742257878.367676
-0.69,0.27,0.66,-1.1,-0.24,0.18,-0.53,-0.3,0.76,1.22,0.43,0.43,1742257878.477473
-0.69,0.27,0.67,1.53,-0.49,0.85,-0.52,-0.31,0.76,2.99,1.65,0.79,1742257878.591481
-0.69,0.27,0.67,4.09,-0.79,1.46,-0.52,-0.31,0.77,4.27,1.89,0.92,1742257878.707602
-0.69,0.26,0.67,4.88,-0.79,1.65,-0.52,-0.32,0.77,9.22,2.99,2.01,1742257878.8194602
-0.69,0.25,0.67,7.32,-1.04,2.08,-0.51,-0.35,0.75,7.69,2.5,1.77,1742257878.937046
-0.7,0.23,0.67,7.93,-1.4,2.62,-0.51,-0.36,0.75,6.84,1.53,1.95,1742257879.047849
-0.69,0.22,0.67,8.3,-1.46,2.75,-0.51,-0.37,0.75,9.22,2.87,2.2,1742257879.161473
-0.7,0.2,0.68,9.52,-1.83,2.38,-0.49,-0.38,0.75,7.75,1.95,2.69,1742257879.275373
-0.71,0.19,0.68,7.87,-1.77,2.75,-0.49,-0.4,0.75,7.57,1.59,2.87,1742257879.389455
-0.71,0.18,0.67,8.06,-1.34,3.54,-0.49,-0.41,0.74,12.02,2.14,2.87,1742257879.506763
-0.71,0.16,0.68,12.63,-1.53,3.85,-0.48,-0.43,0.74,13.18,2.62,3.85,1742257879.617486
-0.72,0.14,0.68,12.45,-1.83,5.0,-0.46,-0.46,0.71,19.71,5.68,5.07,1742257879.7315168
-0.72,0.11,0.68,13.85,-2.75,5.74,-0.46,-0.49,0.7,10.86,1.4,4.09,1742257879.847163
-0.73,0.08,0.68,11.41,-3.36,4.52,-0.45,-0.51,0.7,7.02,1.16,3.6,1742257879.959471
-0.73,0.06,0.67,6.65,-2.99,3.3,-0.44,-0.52,0.69,6.23,1.04,2.2,1742257880.073368
-0.74,0.05,0.67,4.82,-2.08,2.14,-0.44,-0.53,0.69,5.07,0.18,1.53,1742257880.187362
-0.74,0.04,0.67,3.23,-1.53,2.14,-0.44,-0.54,0.69,2.93,-0.79,1.59,1742257880.301568
-0.74,0.04,0.67,0.43,-0.55,1.34,-0.44,-0.54,0.69,-0.06,-1.04,0.31,1742257880.41551
-0.74,0.04,0.67,0.49,-0.06,0.24,-0.44,-0.54,0.68,-0.31,-0.37,-0.61,1742257880.529744
-0.74,0.04,0.66,-1.04,0.37,-0.98,-0.44,-0.54,0.68,-1.83,-0.92,-1.22,1742257880.647338
-0.74,0.04,0.67,-1.34,0.61,-1.4,-0.45,-0.53,0.68,-2.44,-1.04,-1.65,1742257880.757708
-0.74,0.05,0.67,-3.36,0.73,-1.95,-0.45,-0.53,0.69,-2.2,-0.73,-1.53,1742257880.8717198
-0.74,0.06,0.67,-1.46,-0.18,-1.34,-0.46,-0.52,0.69,-2.56,-0.43,-1.53,1742257880.98761
-0.74,0.07,0.66,-3.91,0.79,-1.22,-0.46,-0.52,0.69,-3.11,-0.79,-1.46,1742257881.099736
-0.73,0.07,0.67,-2.62,0.67,-1.59,-0.46,-0.51,0.69,-1.16,0.31,-1.71,1742257881.213581
-0.73,0.08,0.67,-1.77,0.12,-2.01,-0.46,-0.51,0.7,-2.56,-0.24,-2.08,1742257881.330452
-0.73,0.08,0.67,-2.2,-0.49,-2.5,-0.46,-0.5,0.7,-2.44,-0.43,-2.44,1742257881.44164
-0.73,0.08,0.66,-2.81,0.18,-2.38,-0.47,-0.49,0.7,-3.36,-0.67,-1.89,1742257881.555713
-0.73,0.09,0.67,-4.09,0.67,-2.26,-0.47,-0.49,0.7,-6.16,-1.46,-1.4,1742257881.6695712
-0.73,0.1,0.67,-8.61,-0.79,-2.38,-0.47,-0.47,0.71,-6.47,-1.1,-1.77,1742257881.7836502
-0.73,0.12,0.66,-6.04,0.98,-1.65,-0.48,-0.46,0.71,-6.77,-1.65,-2.2,1742257881.897559
-0.73,0.13,0.66,-3.54,0.55,-2.81,-0.48,-0.45,0.72,-5.86,-0.85,-2.44,1742257882.0118232
-0.73,0.13,0.67,-2.14,0.12,-3.3,-0.48,-0.44,0.72,-5.37,-0.92,-2.99,1742257882.126816
-0.73,0.14,0.67,-3.23,0.31,-2.93,-0.49,-0.42,0.72,-28.2,-6.84,1.77,1742257882.2396438
-0.73,0.16,0.66,-19.84,2.62,-0.31,-0.5,-0.39,0.75,-1.28,0.49,-4.09,1742257882.3535979
-0.72,0.19,0.65,-8.12,1.34,-2.69,-0.5,-0.4,0.74,0.79,0.06,-3.72,1742257882.4675012
-0.72,0.2,0.66,-6.65,1.59,-3.05,-0.5,-0.38,0.74,-4.21,-1.16,-1.4,1742257882.5816052
-0.71,0.22,0.66,-11.41,-0.06,-3.36,-0.5,-0.37,0.74,-3.42,-0.67,-2.14,1742257882.69572
-0.72,0.23,0.65,-7.57,-0.24,-4.21,-0.51,-0.37,0.75,-1.71,-0.85,-3.17,1742257882.809702
-0.71,0.24,0.66,-6.47,0.37,-3.66,-0.51,-0.37,0.75,-5.92,-2.81,-2.32,1742257882.925945
-0.71,0.26,0.65,-14.16,0.73,-0.92,-0.52,-0.35,0.76,-3.23,-1.95,-2.01,1742257883.037611
-0.71,0.28,0.64,-2.75,0.24,-0.85,-0.52,-0.35,0.75,1.71,-0.06,-1.59,1742257883.1514912
-0.71,0.28,0.64,-0.18,0.12,-0.85,-0.52,-0.34,0.75,-1.71,-1.22,-0.12,1742257883.268203
-0.71,0.28,0.64,-2.69,0.12,-0.43,-0.52,-0.35,0.75,0.06,0.0,0.67,1742257883.3794281
-0.71,0.28,0.64,1.22,-0.61,0.92,-0.52,-0.35,0.75,2.26,0.98,0.49,1742257883.493494
-0.71,0.27,0.64,1.53,-0.37,1.22,-0.52,-0.36,0.74,2.69,0.49,0.92,1742257883.607368
-0.71,0.27,0.64,3.11,-0.43,1.53,-0.52,-0.36,0.75,3.91,1.46,1.34,1742257883.7214348
-0.71,0.27,0.64,4.7,-0.92,2.01,-0.52,-0.37,0.74,4.39,1.4,1.16,1742257883.835399
-0.72,0.26,0.64,4.39,-0.79,1.46,-0.51,-0.37,0.74,4.15,1.59,1.22,1742257883.9493911
-0.72,0.24,0.65,5.98,-0.92,1.89,-0.51,-0.39,0.74,5.31,1.65,1.65,1742257884.06421
-0.72,0.24,0.64,5.62,-0.67,2.32,-0.5,-0.39,0.74,4.58,1.04,1.83,1742257884.177365
-0.72,0.22,0.65,5.0,-0.43,2.32,-0.5,-0.4,0.73,3.91,0.49,2.01,1742257884.29124
-0.72,0.22,0.65,4.39,-0.37,2.44,-0.5,-0.41,0.73,4.88,0.79,2.32,1742257884.406354
-0.72,0.21,0.65,6.47,-0.73,2.26,-0.5,-0.42,0.73,4.58,1.59,1.71,1742257884.519346
-0.73,0.2,0.65,4.7,-1.1,1.65,-0.49,-0.43,0.72,3.3,0.85,0.73,1742257884.633269
-0.73,0.19,0.65,2.93,-0.67,0.73,-0.49,-0.43,0.72,2.99,0.98,-0.24,1742257884.747508
-0.73,0.18,0.65,4.03,-0.31,-0.06,-0.49,-0.44,0.72,1.59,0.18,-0.24,1742257884.861351
-0.73,0.18,0.65,1.1,-0.06,-0.37,-0.49,-0.43,0.72,0.18,-0.06,-0.31,1742257884.975502
-0.73,0.18,0.65,-1.34,0.49,-0.55,-0.49,-0.43,0.72,-1.65,-0.61,-0.73,1742257885.0895958
-0.73,0.19,0.65,-2.69,0.55,-1.16,-0.49,-0.43,0.73,-1.95,-0.24,-1.22,1742257885.206517
-0.73,0.19,0.65,-2.56,0.55,-1.46,-0.49,-0.42,0.73,-2.01,-0.31,-1.22,1742257885.3176
-0.73,0.19,0.65,-2.81,0.55,-1.1,-0.5,-0.42,0.73,-3.66,-0.85,-0.98,1742257885.431515
-0.73,0.2,0.65,-1.16,0.43,-1.46,-0.5,-0.41,0.73,-2.93,-0.98,-0.49,1742257885.5462961
-0.72,0.2,0.66,-1.22,-0.06,-1.46,-0.5,-0.41,0.73,-4.64,-1.89,-0.67,1742257885.659521
-0.72,0.21,0.65,-1.16,-0.43,-0.73,-0.5,-0.4,0.73,-4.82,-2.44,-0.55,1742257885.773519
-0.72,0.21,0.65,-1.65,-0.61,-0.85,-0.51,-0.39,0.74,-3.78,-1.53,-0.79,1742257885.8875399
-0.73,0.21,0.65,-2.2,0.43,0.06,-0.51,-0.39,0.73,0.73,1.1,-0.55,1742257886.001353
-0.72,0.22,0.64,-1.16,0.79,-1.71,-0.5,-0.39,0.76,4.33,6.35,-0.73,1742257886.115417
-0.72,0.21,0.66,0.92,0.18,-0.06,-0.5,-0.41,0.73,3.54,5.68,-2.75,1742257886.229362
-0.73,0.21,0.66,-5.19,1.4,-1.59,-0.49,-0.39,0.75,1.71,2.87,-1.77,1742257886.343359
-0.72,0.23,0.65,-8.36,2.69,-1.46,-0.49,-0.4,0.75,2.99,4.46,-2.75,1742257886.4573581
-0.71,0.25,0.65,-11.66,4.58,-2.32,-0.49,-0.4,0.75,-0.06,2.26,-0.73,1742257886.571418
-0.7,0.26,0.67,-16.11,7.02,-3.36,-0.49,-0.4,0.74,-1.71,0.73,0.12,1742257886.686742
-0.69,0.32,0.65,-33.94,10.13,-6.65,-0.48,-0.4,0.75,0.31,2.93,1.77,1742257886.799274
-0.67,0.35,0.64,-16.3,7.57,-4.7,-0.48,-0.41,0.75,-2.32,2.56,7.51,1742257886.913354
-0.67,0.37,0.65,-10.62,6.35,-4.15,-0.48,-0.4,0.8,2.56,-3.3,5.92,1742257887.0273228
-0.66,0.39,0.66,-9.52,6.77,-6.84,-0.49,-0.42,0.77,32.1,11.47,-0.79,1742257887.141372
-0.68,0.39,0.62,-88.99,-19.59,13.85,-0.48,-0.55,0.66,67.2,-18.13,-6.1,1742257887.255542
-0.73,0.56,0.48,-26.86,-56.15,22.89,-0.55,-0.54,0.63,-21.85,-41.75,-1.59,1742257887.369537
-0.74,0.47,0.48,12.39,-9.58,-17.82,-0.56,-0.47,0.65,-36.62,-14.34,-1.1,1742257887.4865012
-0.74,0.46,0.49,20.81,23.5,-11.66,-0.53,-0.45,0.65,2.38,7.51,7.32,1742257887.597255
-0.7,0.49,0.49,-18.55,15.01,-8.61,-0.54,-0.5,0.67,4.82,4.7,6.04,1742257887.711221
-0.68,0.53,0.51,-31.49,19.84,-17.52,-0.52,-0.5,0.67,2.2,14.28,11.78,1742257887.825249
-0.63,0.62,0.5,-48.4,21.36,-21.61,-0.49,-0.51,0.66,3.42,8.06,10.19,1742257887.939245
-0.59,0.69,0.46,-10.19,15.08,-13.12,-0.5,-0.54,0.7,-1.77,1.71,5.98,1742257888.053331
-0.56,0.65,0.46,26.25,2.56,-2.75,-0.47,-0.57,0.7,-32.35,11.41,19.53,1742257888.167336
-0.54,0.63,0.51,12.88,14.47,-11.47,-0.36,-0.55,0.69,-15.08,15.44,26.86,1742257888.2813592
-0.52,0.65,0.56,8.61,2.93,-5.74,-0.32,-0.49,0.76,-3.6,10.68,14.83,1742257888.3953412
-0.51,0.62,0.56,-4.39,15.87,-5.37,-0.35,-0.55,0.78,11.41,5.92,9.03,1742257888.509252
-0.52,0.65,0.55,4.15,11.11,-0.18,-0.32,-0.52,0.76,6.84,11.29,7.69,1742257888.627658
-0.47,0.64,0.58,4.7,10.31,-2.69,-0.25,-0.53,0.74,4.39,10.68,6.77,1742257888.737231
-0.47,0.65,0.61,6.41,8.61,-4.27,-0.24,-0.57,0.78,5.86,13.61,6.84,1742257888.851244
-0.46,0.66,0.63,9.03,10.8,-6.47,-0.2,-0.58,0.76,9.46,19.41,7.87,1742257888.968139
-0.42,0.63,0.64,8.3,14.04,-9.58,-0.17,-0.61,0.76,13.49,17.52,9.95,1742257889.0792162
-0.39,0.63,0.65,0.18,9.7,-14.04,-0.12,-0.6,0.74,4.94,15.56,7.81,1742257889.1932101
-0.36,0.63,0.68,-0.67,8.73,-11.23,-0.09,-0.61,0.74,3.91,8.06,1.53,1742257889.310085
-0.33,0.64,0.66,-4.52,8.54,-5.25,-0.07,-0.6,0.73,6.84,7.2,-0.73,1742257889.421315
-0.33,0.65,0.67,-2.32,3.97,1.83,-0.1,-0.63,0.78,4.46,6.96,-4.64,1742257889.535267
-0.33,0.67,0.68,-4.7,4.64,3.17,-0.08,-0.64,0.75,5.92,12.76,-6.16,1742257889.649271
-0.31,0.66,0.67,-0.18,3.05,2.44,-0.07,-0.65,0.73,2.5,6.1,-5.0,1742257889.7632651
-0.32,0.67,0.67,-0.31,0.55,-1.4,-0.06,-0.66,0.73,2.56,5.37,-1.04,1742257889.877292
-0.33,0.69,0.67,-6.96,-2.69,-6.59,-0.05,-0.66,0.71,1.22,-2.5,-2.26,1742257889.991381
-0.3,0.71,0.63,-9.64,-11.78,-21.67,-0.07,-0.66,0.73,5.68,-6.29,4.33,1742257890.107084
-0.27,0.68,0.65,-2.2,-1.95,-16.85,-0.08,-0.64,0.77,1.16,8.42,-0.73,1742257890.219269
-0.27,0.67,0.65,3.36,7.63,-3.05,-0.04,-0.67,0.74,5.19,28.44,3.11,1742257890.333148
-0.26,0.73,0.64,-11.6,13.31,-7.45,0.01,-0.69,0.71,7.2,30.33,3.72,1742257890.447113
-0.22,0.74,0.63,-11.35,15.32,-7.39,0.04,-0.71,0.69,10.25,15.93,7.81,1742257890.5600839
-0.2,0.76,0.61,-11.9,10.99,-8.12,0.08,-0.7,0.7,2.75,18.25,3.97,1742257890.674016
-0.19,0.77,0.64,5.07,11.47,-3.36,0.11,-0.7,0.73,-4.94,22.28,5.55,1742257890.789844
-0.15,0.76,0.67,0.55,26.92,-4.39,0.17,-0.65,0.77,-20.63,45.04,1.22,1742257890.901206
-0.1,0.73,0.67,3.42,42.05,2.62,0.24,-0.67,0.68,-5.98,58.9,-2.2,1742257891.015241
-0.06,0.76,0.62,-9.89,38.57,-0.12,0.29,-0.67,0.61,14.1,44.86,-7.32,1742257891.1291788
-0.02,0.76,0.62,-13.79,27.71,3.91,0.33,-0.68,0.57,10.01,35.58,-15.99,1742257891.24317
-0.01,0.79,0.53,-57.31,2.81,15.38,0.37,-0.73,0.55,16.11,33.57,-20.57,1742257891.357065
-0.04,0.87,0.45,-47.55,-0.37,12.02,0.37,-0.81,0.49,26.98,11.47,13.67,1742257891.471054
-0.07,0.96,0.36,-58.17,-11.17,6.47,0.42,-0.76,0.48,15.08,6.84,21.91,1742257891.587082
-0.08,0.97,0.31,-32.78,1.28,3.05,0.44,-0.73,0.5,2.32,2.01,2.08,1742257891.698077
-0.08,0.96,0.29,9.95,8.24,-0.98,0.44,-0.75,0.48,-4.58,11.72,-4.33,1742257891.81306
-0.06,0.95,0.33,4.21,4.64,-6.35,0.44,-0.76,0.48,-5.62,11.84,-6.16,1742257891.926848
-0.05,0.94,0.35,13.43,10.62,-10.38,0.44,-0.76,0.46,-5.74,13.98,-3.23,1742257892.0401962
-0.01,0.92,0.37,10.31,8.91,-9.28,0.45,-0.78,0.44,-7.63,13.49,-0.55,1742257892.154148
-0.01,0.94,0.38,10.86,7.02,-6.41,0.47,-0.75,0.44,-2.93,15.32,4.7,1742257892.268455
0.03,0.9,0.41,20.51,14.71,-13.31,0.5,-0.72,0.44,-0.12,9.22,2.87,1742257892.3820832
0.07,0.87,0.45,27.89,10.56,-12.15,0.5,-0.72,0.44,1.34,8.36,1.22,1742257892.49599
0.09,0.86,0.49,20.45,3.6,-11.17,0.51,-0.73,0.43,-1.16,8.91,2.32,1742257892.609053
0.11,0.82,0.53,11.84,2.81,-8.48,0.52,-0.74,0.42,0.24,4.76,1.16,1742257892.722959
0.12,0.82,0.55,16.48,4.52,-7.63,0.53,-0.73,0.41,0.37,4.52,0.18,1742257892.835964
0.16,0.78,0.57,16.24,3.72,-7.81,0.54,-0.72,0.39,0.12,0.61,0.24,1742257892.948946
0.16,0.77,0.59,3.05,-1.65,-4.39,0.52,-0.74,0.41,-2.32,0.18,2.01,1742257893.06208
0.16,0.79,0.59,-0.55,-1.4,-4.82,0.54,-0.71,0.41,-9.64,0.18,5.86,1742257893.1761029
0.16,0.81,0.58,-6.77,-5.19,-5.68,0.56,-0.69,0.44,-6.96,-1.22,6.84,1742257893.290192
0.18,0.86,0.57,-13.98,-4.21,-13.18,0.55,-0.69,0.43,-1.1,-2.32,3.05,1742257893.407215
0.22,0.9,0.56,-21.91,-12.33,-36.5,0.55,-0.68,0.45,-0.24,-2.99,1.22,1742257893.518212
0.29,0.89,0.58,-23.56,-11.6,-68.97,0.55,-0.69,0.46,-1.1,-2.01,0.12,1742257893.6322198
0.38,0.83,0.55,-19.17,-2.44,-98.39,0.55,-0.69,0.44,0.12,2.08,-1.34,1742257893.7484338
0.51,0.64,0.46,-20.87,9.34,-102.11,0.55,-0.69,0.44,1.28,-0.55,-2.87,1742257893.86023
0.62,0.56,0.4,-21.55,2.81,-80.81,0.56,-0.7,0.46,1.34,-1.28,-1.34,1742257893.97422
0.7,0.46,0.38,-30.82,-7.2,-58.47,0.55,-0.7,0.45,1.89,0.18,1.4,1742257894.08798
0.75,0.37,0.41,3.91,3.66,-36.13,0.56,-0.69,0.44,0.18,-2.62,3.11,1742257894.201109
0.79,0.4,0.37,-2.26,6.65,-11.96,0.55,-0.69,0.44,-0.06,-2.44,4.7,1742257894.3151848
0.82,0.38,0.37,-5.43,8.91,-2.26,0.55,-0.69,0.44,-0.43,-5.92,4.21,1742257894.429203
0.86,0.4,0.38,-6.04,8.54,-3.85,0.54,-0.68,0.46,-0.61,-7.45,3.85,1742257894.5435278
0.83,0.39,0.31,-3.91,5.8,-5.62,0.55,-0.69,0.47,-1.28,-11.96,3.72,1742257894.657203
0.81,0.44,0.36,-4.94,-4.03,-4.46,0.57,-0.71,0.48,-9.09,-14.71,7.02,1742257894.77114
0.86,0.34,0.35,18.43,14.4,-23.01,0.57,-0.64,0.54,-5.31,-3.23,19.53,1742257894.888107
0.88,0.29,0.35,-4.82,-15.69,-19.59,0.56,-0.61,0.51,-5.31,-1.77,17.52,1742257894.9990988
0.85,0.32,0.33,-15.93,1.34,-2.26,0.58,-0.57,0.52,-5.62,-8.67,15.01,1742257895.113117
0.86,0.24,0.33,-15.93,10.38,-8.61,0.6,-0.54,0.58,-18.37,-16.72,25.33,1742257895.2276218
0.91,0.26,0.21,16.48,-34.42,16.91,0.6,-0.43,0.62,-17.94,-12.63,17.15,1742257895.341126
0.83,0.28,0.46,42.72,-7.39,55.66,0.6,-0.47,0.62,-16.24,11.41,9.46,1742257895.455046
0.83,0.43,0.46,11.17,6.35,55.79,0.64,-0.52,0.67,4.39,8.18,17.15,1742257895.568883
0.75,0.58,0.41,-3.72,6.41,41.63,0.68,-0.57,0.65,27.71,8.0,40.22,1742257895.681908
0.73,0.57,0.38,15.26,19.23,19.71,0.63,-0.47,0.65,91.55,22.58,52.92,1742257895.794891
0.7,0.57,0.4,-26.86,15.14,31.01,0.67,-0.34,0.36,86.79,38.88,50.48,1742257895.908066
0.7,0.62,0.31,-28.56,-1.53,24.78,0.81,-0.27,0.31,41.38,-7.69,19.04,1742257896.021985
0.65,0.68,0.36,-11.6,-9.7,18.8,0.8,-0.38,0.33,36.32,-7.93,-14.77,1742257896.136089
0.64,0.67,0.35,-6.35,-4.88,22.95,0.8,-0.49,0.3,41.44,-3.91,-23.99,1742257896.250154
0.6,0.74,0.33,-11.72,-1.83,24.35,0.76,-0.6,0.33,14.83,-26.12,-24.35,1742257896.3681338
0.54,0.76,0.34,-2.14,-2.14,20.69,0.72,-0.62,0.35,18.98,-13.18,-18.98,1742257896.478245
0.56,0.77,0.3,-10.25,9.16,26.79,0.69,-0.66,0.32,30.15,-4.52,-30.94,1742257896.592235
0.51,0.79,0.26,-6.96,4.27,21.79,0.65,-0.64,0.3,-7.81,-11.78,-30.09,1742257896.708083
0.46,0.89,0.3,1.95,4.03,20.08,0.62,-0.74,0.34,-9.52,-8.42,-15.38,1742257896.820291
0.43,0.86,0.29,16.97,-9.89,18.92,0.63,-0.67,0.32,-2.93,-11.96,-13.67,1742257896.934336
0.4,0.9,0.34,6.84,0.18,4.64,0.55,-0.73,0.35,-16.78,-25.88,-9.7,1742257897.0483258
0.38,0.83,0.33,8.91,-2.08,-4.46,0.53,-0.72,0.39,-25.82,-20.63,5.43,1742257897.162126
0.42,0.83,0.31,4.09,-6.04,1.4,0.49,-0.69,0.52,-27.22,-43.52,9.95,1742257897.276234
0.44,0.87,0.32,11.35,-29.3,-11.96,0.5,-0.63,0.63,-44.8,-64.7,25.82,1742257897.390228
0.43,0.83,0.44,26.67,-51.57,-24.23,0.4,-0.59,0.71,-24.29,-34.42,22.34,1742257897.507814
0.4,0.73,0.5,25.63,-18.8,-11.54,0.42,-0.57,0.76,-10.86,-34.24,31.19,1742257897.618221
0.38,0.71,0.48,22.89,-19.84,10.56,0.43,-0.47,0.75,-2.62,-15.62,24.84,1742257897.73207
0.33,0.73,0.55,39.92,-49.99,4.03,0.43,-0.49,0.81,-11.96,-22.89,47.49,1742257897.848266
0.24,0.63,0.7,21.24,-53.41,7.81,0.41,-0.32,0.82,13.61,-15.32,28.32,1742257897.959931
0.13,0.69,0.74,1.1,-30.7,9.83,0.37,-0.38,0.83,-5.8,-26.73,10.19,1742257898.074247
0.11,0.67,0.75,15.08,-25.21,5.19,0.35,-0.37,0.85,-1.95,-2.93,5.86,1742257898.188031
0.11,0.65,0.76,16.85,-8.54,-1.83,0.35,-0.37,0.85,-7.02,5.43,-2.38,1742257898.3021052
0.1,0.62,0.8,20.57,-2.99,2.01,0.38,-0.38,0.83,-5.19,-0.49,-2.44,1742257898.416142
0.11,0.6,0.81,15.99,-3.3,-2.44,0.39,-0.35,0.84,-4.21,-4.94,3.54,1742257898.5300639
0.08,0.56,0.86,7.45,-10.38,-1.04,0.38,-0.33,0.84,-7.69,-8.12,4.82,1742257898.648326
0.08,0.54,0.82,16.78,-8.79,0.18,0.32,-0.32,0.88,-18.37,-28.26,5.98,1742257898.758065
0.06,0.5,0.84,22.4,-9.83,2.5,0.29,-0.27,0.9,-3.17,-15.44,1.89,1742257898.8720698
0.02,0.47,0.89,16.11,-4.39,6.16,0.3,-0.3,0.9,6.23,2.01,-1.22,1742257898.990527
0.07,0.47,0.88,-8.91,-0.49,7.57,0.29,-0.29,0.91,-0.85,5.25,-3.17,1742257899.100039
0.04,0.5,0.86,0.31,-2.56,3.05,0.29,-0.29,0.86,3.78,2.99,-10.19,1742257899.213946
0.0,0.46,0.88,4.21,-4.15,5.98,0.28,-0.31,0.89,-26.61,-4.82,-9.95,1742257899.331878
-0.05,0.45,0.94,33.51,-1.65,11.11,0.27,-0.29,0.96,0.18,1.71,-12.57,1742257899.441994
-0.02,0.43,0.89,-3.97,5.25,14.22,0.3,-0.33,0.9,-6.04,2.2,-7.63,1742257899.556044
0.02,0.49,0.86,7.2,0.67,4.82,0.29,-0.31,0.9,-7.02,-6.71,3.17,1742257899.670021
-0.01,0.46,0.93,7.02,-7.93,2.81,0.25,-0.26,0.92,-9.34,-9.7,9.28,1742257899.7841952
-0.01,0.4,0.94,0.73,1.16,2.62,0.24,-0.22,0.94,-4.52,-5.74,6.96,1742257899.89805
-0.03,0.39,0.94,27.04,5.68,2.93,0.25,-0.23,0.9,-0.31,0.43,3.54,1742257900.0119722
-0.03,0.34,0.95,25.7,3.97,3.3,0.25,-0.23,0.93,-3.11,-3.11,4.21,1742257900.128195
-0.01,0.31,0.95,32.23,9.34,-0.31,0.24,-0.22,0.94,-0.06,0.31,1.22,1742257900.2399879
0.02,0.22,0.97,10.5,-1.34,-1.53,0.25,-0.22,0.95,1.83,4.76,-1.83,1742257900.3540921
0.01,0.26,0.97,-19.1,-8.61,3.78,0.27,-0.23,0.89,3.42,9.95,-5.62,1742257900.468032
-0.02,0.3,0.92,-15.69,-4.03,4.52,0.28,-0.26,0.94,1.34,5.68,-5.92,1742257900.581999
-0.02,0.27,0.93,6.23,-8.0,3.11,0.3,-0.21,0.9,1.4,4.21,-2.69,1742257900.696067
-0.07,0.31,0.99,-17.82,-15.93,7.63,0.29,-0.25,0.9,0.06,-3.36,3.17,1742257900.81116
-0.09,0.34,0.96,-16.54,-6.65,4.46,0.28,-0.22,0.92,0.43,0.49,-2.93,1742257900.927797
-0.1,0.38,0.9,-23.62,-1.83,11.54,0.28,-0.23,0.89,3.42,-1.77,-9.58,1742257901.038045
-0.12,0.42,0.88,-30.88,-3.6,21.55,0.26,-0.24,0.91,1.95,-3.23,-12.21,1742257901.152106
-0.19,0.52,0.89,-11.35,-3.05,17.7,0.25,-0.25,0.93,-14.53,-6.9,-10.93,1742257901.2699258
-0.19,0.49,0.88,-2.81,-0.92,9.64,0.24,-0.25,0.94,0.98,-2.14,-3.3,1742257901.37998
-0.19,0.45,0.84,-16.11,1.65,20.75,0.24,-0.26,0.93,0.37,-6.77,-6.59,1742257901.494093
-0.17,0.48,0.86,-7.69,-0.67,17.03,0.21,-0.24,0.94,-4.64,-5.55,-9.64,1742257901.608279
-0.2,0.49,0.83,-7.14,-5.98,23.44,0.18,-0.22,0.92,-4.33,-5.31,-15.75,1742257901.722089
-0.24,0.54,0.85,3.11,0.43,12.45,0.16,-0.24,0.95,-17.4,-9.4,-19.96,1742257901.8361018
-0.24,0.45,0.93,10.68,15.26,19.53,0.15,-0.21,0.94,-3.85,-0.06,-19.35,1742257901.950089
-0.19,0.49,0.78,-29.36,32.35,10.19,0.12,-0.22,0.92,2.99,-5.49,-22.28,1742257902.068473
-0.19,0.52,0.78,1.65,10.31,19.23,0.1,-0.21,0.89,10.93,-14.95,-28.69,1742257902.17796
-0.16,0.46,0.78,-29.6,-16.78,8.42,0.04,-0.26,0.94,10.44,-22.16,-31.49,1742257902.291986
-0.23,0.39,0.87,12.57,-14.95,13.12,-0.02,-0.3,0.98,10.19,-19.41,-27.71,1742257902.407965
-0.31,0.46,0.83,8.85,-21.97,17.52,-0.05,-0.31,0.94,-0.73,-14.77,-19.59,1742257902.52018
-0.43,0.57,0.85,26.98,-27.1,8.67,-0.08,-0.26,0.98,-10.5,-4.88,-13.12,1742257902.634288
-0.44,0.5,0.84,14.83,-32.9,-1.4,-0.11,-0.23,0.98,-31.13,-9.89,-7.63,1742257902.7487202
-0.47,0.38,0.86,26.31,-21.12,-7.51,-0.19,-0.14,1.05,-36.5,-24.35,-10.62,1742257902.862188
-0.46,0.32,0.87,51.57,7.02,-3.48,-0.16,-0.11,0.9,32.53,-19.84,-15.5,1742257902.97608
-0.43,0.29,0.8,-31.25,-9.28,6.53,-0.21,-0.24,0.83,64.51,-19.96,-16.91,1742257903.090216
-0.47,0.39,0.74,-73.55,-31.31,8.18,-0.29,-0.22,0.81,83.44,-26.92,-25.57,1742257903.208033
-0.59,0.58,0.7,-39.43,-30.46,16.05,-0.44,-0.65,0.8,115.97,-2.08,-50.11,1742257903.3181021
-0.57,0.54,0.58,-78.06,-25.39,18.92,-0.42,-0.7,0.75,65.31,14.22,-18.98,1742257903.432205
-0.72,0.7,0.5,-64.51,-26.37,25.02,-0.36,-0.6,0.63,25.63,11.41,-10.8,1742257903.548001
-0.69,0.69,0.39,-33.63,-0.43,7.93,-0.37,-0.61,0.57,7.51,12.63,-11.72,1742257903.659982
-0.66,0.6,0.33,1.59,-2.08,5.68,-0.38,-0.59,0.56,2.5,-1.46,-25.15,1742257903.774293
-0.69,0.64,0.38,-2.32,0.12,7.93,-0.52,-0.93,0.89,63.42,-7.93,-38.76,1742257903.88857
-0.7,0.6,0.35,-12.08,-1.04,7.39,-0.47,-0.71,0.44,79.96,13.79,-33.87,1742257904.001994
-0.71,0.61,0.34,-33.2,-9.7,12.45,-0.47,-0.75,0.42,19.78,6.71,-7.45,1742257904.115969
-0.72,0.62,0.26,-21.85,-4.82,5.62,-0.47,-0.72,0.44,9.58,2.01,-2.81,1742257904.230044
-0.73,0.63,0.25,-1.59,0.18,1.16,-0.48,-0.73,0.41,25.02,4.15,-6.65,1742257904.348119
-0.73,0.62,0.26,-1.34,1.4,0.37,-0.48,-0.76,0.39,12.7,3.66,-2.44,1742257904.458028
-0.73,0.63,0.26,-2.93,0.31,0.55,-0.48,-0.77,0.37,10.01,2.87,-2.87,1742257904.5719948
-0.73,0.62,0.26,-2.14,0.31,0.12,-0.48,-0.77,0.36,3.91,0.24,-1.71,1742257904.687925
-0.73,0.62,0.25,-4.64,-0.06,1.46,-0.49,-0.77,0.36,5.49,0.73,-1.53,1742257904.80002
-0.73,0.63,0.25,-9.7,-1.83,2.5,-0.49,-0.77,0.35,4.7,0.43,-1.34,1742257904.9139462
-0.73,0.62,0.23,-16.05,-4.27,3.6,-0.49,-0.77,0.36,27.53,1.1,-6.35,1742257905.028051
-0.74,0.62,0.19,-27.4,-5.0,6.29,-0.51,-0.8,0.29,38.09,2.75,-8.85,1742257905.1419652
-0.77,0.62,0.14,-41.32,-7.02,8.3,-0.51,-0.8,0.24,28.44,2.99,-5.68,1742257905.255948
-0.78,0.64,0.07,-19.41,-1.04,3.85,-0.52,-0.78,0.2,49.38,2.69,-11.54,1742257905.3700218
-0.77,0.63,0.07,-6.65,0.12,1.1,-0.55,-0.82,0.07,62.13,7.51,-16.54,1742257905.487975
-0.77,0.63,0.07,0.55,1.65,0.37,-0.57,-0.84,0.0,21.73,4.33,-5.13,1742257905.5980449
-0.77,0.61,0.09,-7.32,-1.1,0.85,-0.57,-0.81,0.02,4.27,1.16,-0.98,1742257905.711952
-0.77,0.62,0.06,-13.18,-3.54,1.83,-0.57,-0.8,0.01,2.44,0.55,-0.61,1742257905.8259609
-0.78,0.62,0.03,-10.56,-1.59,1.1,-0.57,-0.8,0.01,-0.73,0.43,-1.22,1742257905.9401321
-0.78,0.62,0.02,0.12,0.37,0.06,-0.57,-0.8,0.02,-3.6,0.67,0.85,1742257906.053963
-0.78,0.62,0.05,4.58,0.49,-0.61,-0.56,-0.8,0.03,-16.6,0.37,4.76,1742257906.167959
-0.78,0.62,0.04,-2.69,-0.24,-0.24,-0.56,-0.8,0.03,5.31,0.67,-1.53,1742257906.281923
-0.77,0.61,0.03,-16.17,-3.66,2.14,-0.56,-0.8,0.03,-7.69,0.06,2.5,1742257906.395844
-0.78,0.62,0.0,-20.51,-4.64,2.44,-0.56,-0.81,0.05,-1.34,0.37,0.61,1742257906.509973
-0.78,0.63,-0.03,11.84,3.36,-0.55,-0.56,-0.81,0.05,-0.24,0.49,0.31,1742257906.627956
-0.78,0.61,0.02,4.52,1.71,-0.67,-0.56,-0.81,0.06,0.31,0.79,-0.18,1742257906.7378712
-0.78,0.61,0.02,4.82,0.61,-0.67,-0.56,-0.81,0.05,0.0,0.06,-0.06,1742257906.851937
-0.78,0.62,0.01,-0.85,-0.06,-0.06,-0.56,-0.81,0.06,0.98,0.24,-0.61,1742257906.9680882
-0.78,0.61,0.02,-11.35,-2.01,0.67,-0.56,-0.81,0.05,-0.06,0.12,0.12,1742257907.079978
-0.78,0.61,0.01,5.8,1.1,-0.31,-0.56,-0.81,0.05,1.04,0.49,-0.55,1742257907.1938481
-0.78,0.62,0.01,2.69,0.31,-0.18,-0.56,-0.8,0.05,0.37,0.37,-0.31,1742257907.310974
-0.78,0.61,0.01,-1.04,-0.31,-0.24,-0.55,-0.8,0.06,7.63,-1.22,-1.34,1742257907.421987
-0.78,0.62,0.01,1.83,0.55,-0.24,-0.57,-0.81,0.01,7.57,1.04,-1.71,1742257907.5359948
-0.78,0.62,0.01,-0.24,-0.49,-0.79,-0.57,-0.81,0.03,-1.83,0.37,0.67,1742257907.649867
-0.78,0.6,0.03,-22.09,-7.45,1.4,-0.56,-0.8,0.03,-1.71,-0.18,-0.06,1742257907.7640672
-0.79,0.62,-0.06,-20.51,-4.82,2.56,-0.57,-0.8,0.04,1.65,0.24,-0.43,1742257907.877889
-0.78,0.61,-0.06,-4.64,-1.95,0.06,-0.56,-0.8,0.03,8.48,0.37,-2.44,1742257907.9918861
-0.79,0.6,-0.09,-39.12,-9.46,4.7,-0.57,-0.82,0.01,-6.29,-0.24,2.14,1742257908.108513
-0.8,0.61,-0.17,-11.23,-2.56,1.04,-0.57,-0.8,0.04,-3.11,0.0,0.06,1742257908.219845
-0.79,0.59,-0.17,-6.1,-0.79,0.43,-0.57,-0.79,0.06,1.71,-0.18,-0.92,1742257908.3339689
-0.79,0.59,-0.16,-2.75,-0.85,0.79,-0.57,-0.81,0.01,4.27,0.24,-0.98,1742257908.447863
-0.79,0.58,-0.16,-4.09,-0.06,1.04,-0.58,-0.8,0.04,-1.95,-0.85,0.18,1742257908.562028
-0.79,0.58,-0.17,0.06,0.85,0.61,-0.57,-0.8,0.03,0.73,0.79,-0.18,1742257908.675848
-0.79,0.58,-0.16,8.3,1.83,0.55,-0.56,-0.79,0.02,-2.08,-0.79,0.55,1742257908.789974
-0.8,0.57,-0.14,-1.22,0.49,-0.12,-0.57,-0.8,0.03,2.62,0.85,-0.55,1742257908.905793
-0.79,0.58,-0.17,0.43,-0.12,-0.61,-0.56,-0.79,0.02,9.77,0.24,-3.05,1742257909.0178711
-0.8,0.57,-0.14,2.38,0.37,0.24,-0.58,-0.8,0.01,4.09,-0.49,-2.93,1742257909.131948
-0.79,0.58,-0.16,-4.27,-0.98,-0.79,-0.59,-0.8,0.0,7.02,1.4,-2.75,1742257909.248554
-0.79,0.58,-0.16,1.1,-1.1,0.18,-0.59,-0.8,-0.02,0.67,0.0,-0.37,1742257909.359948
-0.79,0.58,-0.16,0.18,0.37,-0.12,-0.59,-0.8,0.0,-3.42,0.0,1.95,1742257909.473824
-0.79,0.59,-0.18,2.75,0.37,-0.67,-0.58,-0.8,0.0,3.3,1.34,3.17,1742257909.5878289
-0.78,0.56,-0.15,4.33,-3.6,-5.74,-0.56,-0.77,-0.02,-2.62,-2.2,3.48,1742257909.702076
-0.77,0.59,-0.15,1.28,-1.89,-3.72,-0.58,-0.82,-0.0,-3.23,-1.04,2.38,1742257909.816109
-0.78,0.61,-0.18,13.12,-3.66,-1.71,-0.57,-0.85,0.0,-3.42,-4.46,8.79,1742257909.929987
-0.78,0.6,-0.13,16.72,-0.55,-5.37,-0.53,-0.77,0.0,-7.93,-2.93,7.26,1742257910.047263
-0.77,0.61,-0.11,20.2,-2.62,-6.59,-0.55,-0.84,0.04,2.5,-0.06,-5.43,1742257910.157999
-0.74,0.6,-0.08,35.89,-4.52,-1.71,-0.55,-0.82,0.0,3.11,-0.55,3.23,1742257910.2718651
-0.77,0.63,-0.04,16.6,-0.85,0.61,-0.54,-0.82,0.03,3.72,7.93,0.12,1742257910.387887
-0.76,0.62,-0.05,4.58,1.89,2.32,-0.54,-0.83,0.01,2.99,0.24,-4.64,1742257910.499903
-0.77,0.62,-0.03,-4.94,1.59,0.79,-0.55,-0.82,-0.0,0.85,4.15,1.16,1742257910.613812
-0.78,0.63,-0.06,-3.05,-0.92,0.18,-0.54,-0.85,-0.0,-8.91,-1.46,8.12,1742257910.7279549
-0.77,0.63,-0.06,0.0,-3.54,-3.05,-0.53,-0.85,0.03,-6.53,-7.26,13.61,1742257910.841921
-0.77,0.63,-0.05,1.04,-0.31,-2.01,-0.49,-0.84,0.04,-2.26,-5.07,12.45,1742257910.955914
-0.76,0.62,-0.06,-3.23,0.31,-1.16,-0.48,-0.84,0.04,-7.51,-1.1,11.47,1742257911.069921
-0.76,0.64,-0.06,-3.78,-0.24,-0.79,-0.47,-0.85,0.04,0.31,-2.32,8.97,1742257911.187832
-0.76,0.62,-0.08,0.85,-2.01,-1.53,-0.45,-0.85,0.04,-1.34,-1.65,5.43,1742257911.297899
-0.77,0.63,-0.06,-1.53,-1.22,-0.92,-0.45,-0.85,0.04,-0.73,0.0,0.37,1742257911.4118662
-0.76,0.64,-0.08,-1.89,0.31,-1.34,-0.45,-0.9,0.05,0.79,-2.08,2.2,1742257911.528258
-0.76,0.64,-0.07,3.85,0.79,-4.09,-0.44,-0.88,0.03,-0.12,-2.69,5.13,1742257911.63989
-0.76,0.64,-0.06,0.73,-0.06,-1.46,-0.43,-0.88,0.04,-0.12,-4.03,5.55,1742257911.753899
-0.75,0.66,-0.07,1.28,-0.55,-3.85,-0.42,-0.89,0.02,1.59,-6.77,4.39,1742257911.867795
-0.75,0.64,-0.06,3.72,-0.49,-2.87,-0.41,-0.89,0.02,3.85,-6.9,4.21,1742257911.981909
-0.74,0.66,-0.06,-0.49,-0.73,-0.92,-0.42,-0.89,0.02,1.4,-9.22,2.38,1742257912.09581
-0.74,0.66,-0.06,-0.92,-0.55,-3.42,-0.41,-0.89,0.01,0.31,-5.0,1.53,1742257912.209856
-0.75,0.65,-0.05,0.67,0.24,-1.46,-0.41,-0.9,-0.01,-0.43,-2.56,0.73,1742257912.3240929
-0.73,0.67,-0.07,-4.03,1.71,-2.56,-0.41,-0.9,0.01,-0.61,0.24,-0.73,1742257912.4378939
-0.73,0.66,-0.07,0.79,-1.28,-2.56,-0.41,-0.9,-0.0,-1.71,0.0,-1.34,1742257912.5518909
-0.73,0.67,-0.05,-0.79,0.24,0.37,-0.42,-0.9,0.0,-0.06,0.18,-1.4,1742257912.667946
-0.73,0.67,-0.07,-0.49,-1.28,-0.49,-0.41,-0.89,0.02,0.92,1.53,-0.61,1742257912.779794
-0.74,0.66,-0.06,0.0,-0.73,0.0,-0.41,-0.88,-0.0,-0.24,0.73,-2.93,1742257912.8940969
-0.73,0.67,-0.07,-0.43,-0.06,0.67,-0.42,-0.87,0.01,1.1,1.04,-4.64,1742257913.0078459
-0.73,0.67,-0.07,-0.61,-0.61,-1.04,-0.43,-0.89,0.01,1.22,1.16,-2.08,1742257913.121938
-0.73,0.66,-0.05,0.43,-0.85,0.06,-0.43,-0.89,-0.0,0.49,-1.22,-1.59,1742257913.235915
-0.73,0.68,-0.07,-3.05,-0.24,-1.59,-0.43,-0.88,0.01,0.37,0.31,-1.59,1742257913.352077
-0.72,0.66,-0.07,-1.22,-0.92,-2.26,-0.44,-0.88,-0.0,0.24,-0.31,-1.22,1742257913.467873
-0.73,0.67,-0.07,-0.98,-0.61,1.1,-0.44,-0.88,0.01,0.31,-1.4,-0.85,1742257913.577919
-0.72,0.68,-0.09,0.55,-0.98,-0.79,-0.44,-0.88,-0.0,-2.01,-3.97,-1.46,1742257913.691998
-0.73,0.66,-0.07,1.04,-2.56,-2.08,-0.44,-0.9,0.01,2.08,0.12,0.24,1742257913.8058538
-0.72,0.68,-0.07,-0.92,0.06,-1.83,-0.45,-0.86,-0.0,-1.34,0.98,-1.65,1742257913.919915
-0.72,0.68,-0.09,2.26,-1.95,-2.5,-0.44,-0.88,0.0,-1.59,-1.16,-2.69,1742257914.033918
-0.72,0.67,-0.07,1.71,-0.61,-1.46,-0.45,-0.89,0.0,1.65,-0.61,2.26,1742257914.1477451
-0.71,0.68,-0.08,-1.1,1.34,-0.24,-0.44,-0.88,0.0,1.89,0.37,1.34,1742257914.261621
-0.71,0.66,-0.07,-3.97,2.2,4.52,-0.45,-0.87,-0.01,1.59,0.24,1.83,1742257914.375749
-0.74,0.69,-0.08,-2.93,1.34,0.73,-0.45,-0.88,-0.01,0.55,-4.03,0.55,1742257914.489824
-0.72,0.67,-0.08,-4.88,1.1,-0.43,-0.45,-0.88,0.02,2.99,1.46,-0.06,1742257914.6043148
-0.73,0.68,-0.09,-4.82,3.97,-1.65,-0.43,-0.88,-0.01,-0.55,4.58,3.54,1742257914.7178419
-0.73,0.67,-0.09,-2.14,1.28,-0.98,-0.43,-0.89,0.03,-3.23,8.42,0.98,1742257914.831866
-0.72,0.69,-0.09,0.73,-1.71,-1.1,-0.43,-0.89,-0.01,2.99,11.35,-2.01,1742257914.9483619
-0.72,0.66,-0.08,3.17,-14.65,-8.36,-0.43,-0.88,-0.02,0.67,-2.26,1.28,1742257915.059941
-0.71,0.7,-0.08,7.51,0.67,-1.04,-0.43,-0.87,-0.01,3.3,-1.34,-0.92,1742257915.1739168
-0.71,0.69,-0.09,2.81,-2.75,-0.85,-0.44,-0.9,0.02,2.14,-0.31,-0.79,1742257915.289166
-0.72,0.73,-0.07,2.69,0.43,-5.74,-0.44,-0.96,-0.02,5.68,0.0,9.64,1742257915.401809
-0.7,0.71,-0.08,3.3,5.92,-9.7,-0.39,-0.98,-0.02,9.83,3.36,27.95,1742257915.515838
-0.67,0.7,-0.07,-0.67,4.39,-4.33,-0.32,-0.9,-0.03,6.9,13.31,27.71,1742257915.629737
-0.67,0.71,-0.06,-15.62,8.18,3.66,-0.31,-0.83,-0.09,29.72,-6.53,-3.11,1742257915.744558
-0.72,0.72,-0.08,-4.58,8.73,5.49,-0.32,-0.93,-0.11,0.67,-14.04,12.08,1742257915.857833
-0.71,0.74,-0.06,7.81,1.04,-13.73,-0.28,-0.97,-0.08,-8.48,-13.18,17.4,1742257915.971871
-0.7,0.76,-0.06,1.71,3.11,-19.96,-0.23,-0.98,-0.06,-41.26,-5.98,32.1,1742257916.086984
-0.65,0.84,-0.04,21.36,12.15,-30.64,-0.16,-0.94,0.02,-11.05,-2.62,28.87,1742257916.199842
-0.56,0.81,0.03,27.34,11.23,-36.01,-0.16,-0.99,0.02,12.82,2.14,9.89,1742257916.313588
-0.53,0.87,0.07,12.39,1.83,-25.88,-0.09,-1.03,-0.02,2.14,-3.6,26.55,1742257916.427829
-0.46,0.94,0.1,9.22,-1.77,-39.12,-0.04,-0.96,0.0,-19.59,-6.96,44.31,1742257916.5417569
-0.39,0.94,0.14,15.69,10.86,-58.59,0.02,-0.88,0.06,-19.71,-4.46,32.1,1742257916.655745
-0.27,0.85,0.15,10.01,12.08,-50.42,0.03,-0.96,0.09,-17.64,-5.62,14.1,1742257916.769875
-0.26,0.92,0.18,15.81,14.1,-20.39,0.1,-0.96,0.14,-15.26,-6.96,6.77,1742257916.8842082
-0.19,0.95,0.18,6.65,14.53,-14.83,0.11,-0.96,0.18,-21.12,6.96,0.98,1742257916.997671
-0.16,0.98,0.2,-0.37,6.23,-7.81,0.09,-0.92,0.21,-17.88,3.72,-6.23,1742257917.111666
-0.13,0.99,0.21,16.36,14.16,-10.68,0.12,-0.9,0.25,-20.94,7.69,4.21,1742257917.227493
-0.08,0.88,0.28,28.08,7.63,-4.76,0.1,-0.96,0.21,-10.38,17.88,-5.37,1742257917.339724
-0.12,0.91,0.32,4.21,3.17,10.86,0.1,-0.95,0.25,-14.89,8.42,-0.49,1742257917.453655
-0.1,0.94,0.3,11.17,9.46,0.73,0.09,-0.89,0.3,-27.53,10.19,-4.76,1742257917.567868
-0.11,0.92,0.32,23.19,13.98,5.43,0.13,-0.85,0.38,-62.32,11.6,21.85,1742257917.681587
-0.13,0.9,0.37,32.47,18.01,4.52,0.16,-0.82,0.44,-55.85,-6.23,25.33,1742257917.795743
-0.09,0.89,0.41,53.96,14.34,7.51,0.14,-0.8,0.51,-64.58,-21.36,25.27,1742257917.909695
-0.14,0.85,0.51,5.68,-5.31,5.8,0.13,-0.8,0.63,-18.68,-22.95,17.09,1742257918.02366
-0.11,0.81,0.52,13.37,-2.75,3.17,0.19,-0.69,0.63,0.85,5.74,25.15,1742257918.1373801
-0.1,0.74,0.59,65.8,20.45,5.07,0.23,-0.78,0.62,1.83,23.13,17.88,1742257918.250595
-0.17,0.65,0.68,47.61,-0.92,13.43,0.27,-0.73,0.59,6.65,7.45,1.53,1742257918.3669481
-0.14,0.67,0.78,16.54,3.97,-10.07,0.32,-0.65,0.61,0.31,3.3,19.84,1742257918.477489
-0.15,0.66,0.75,10.8,8.91,-7.08,0.34,-0.63,0.65,-15.69,-0.79,12.7,1742257918.59074
-0.03,0.6,0.8,35.28,0.49,-8.97,0.34,-0.6,0.66,-16.05,0.92,6.23,1742257918.7073762
-0.11,0.63,0.77,0.43,-1.22,-4.76,0.35,-0.6,0.71,-3.42,-2.5,0.85,1742257918.8186119
-0.09,0.57,0.81,12.02,2.38,0.67,0.3,-0.62,0.73,0.61,-22.71,7.81,1742257918.9325042
-0.08,0.58,0.81,5.07,0.61,-0.43,0.3,-0.6,0.73,-16.97,13.92,-16.97,1742257919.047649
-0.1,0.58,0.81,0.0,-1.83,-0.49,0.34,-0.64,0.51,19.71,-6.29,2.2,1742257919.160651
-0.1,0.58,0.8,1.95,-3.3,-2.26,0.29,-0.55,0.85,-22.89,-13.92,22.71,1742257919.274765
-0.11,0.6,0.79,-2.75,-2.2,-0.49,0.28,-0.64,0.71,0.06,33.2,-3.85,1742257919.388664
-0.11,0.58,0.81,3.42,0.24,-0.37,0.36,-0.64,0.61,-8.36,26.86,-6.41,1742257919.5027041
-0.1,0.58,0.81,-1.04,0.43,1.28,0.38,-0.6,0.63,-22.71,-3.36,3.54,1742257919.6167092
-0.11,0.59,0.8,-0.06,-0.49,0.0,0.33,-0.65,0.73,15.01,-37.6,15.14,1742257919.730691
-0.11,0.59,0.8,0.24,-0.31,-0.31,0.33,-0.6,0.76,-8.73,28.75,-7.75,1742257919.8446789
-0.11,0.59,0.8,1.28,-0.12,-0.49,0.38,-0.62,0.65,-0.67,14.4,3.23,1742257919.9586859
-0.11,0.58,0.81,0.92,0.06,-0.85,0.38,-0.64,0.68,-12.94,4.09,0.61,1742257920.072572
-0.11,0.58,0.81,1.1,0.12,-0.67,0.4,-0.57,0.69,-13.37,4.33,1.89,1742257920.187326
-0.11,0.58,0.81,0.43,0.18,-0.79,0.4,-0.57,0.71,2.62,7.39,-13.37,1742257920.300571
-0.11,0.58,0.81,0.49,0.0,-0.92,0.39,-0.61,0.69,-18.07,3.97,-2.75,1742257920.4145741
-0.11,0.57,0.82,-2.38,0.73,-2.56,0.4,-0.52,0.69,-26.55,0.37,2.62,1742257920.528491
-0.1,0.58,0.81,-1.65,0.85,-1.04,0.38,-0.39,0.81,-42.91,-14.89,21.48,1742257920.642621
-0.1,0.59,0.8,-3.05,0.06,0.85,0.42,-0.45,0.73,0.85,11.6,2.5,1742257920.756403
-0.11,0.59,0.8,5.8,-0.92,-1.83,0.44,-0.6,0.66,18.74,4.7,-11.29,1742257920.870568
-0.1,0.57,0.82,3.23,-0.61,-2.26,0.4,-0.52,0.77,-11.17,2.93,8.0,1742257920.987822
-0.1,0.57,0.81,1.83,0.24,-0.43,0.41,-0.56,0.69,5.8,-12.63,6.41,1742257921.0985348
-0.1,0.58,0.81,-0.06,0.92,-0.37,0.4,-0.5,0.76,1.71,-12.76,18.07,1742257921.212492
-0.1,0.59,0.82,0.85,8.61,-4.82,0.4,-0.4,0.78,-27.59,-9.58,9.7,1742257921.326627
-0.05,0.6,0.79,10.56,21.12,-44.56,0.36,-0.5,0.81,-26.25,-27.1,-7.75,1742257921.4406872
0.05,0.53,0.87,-14.16,39.37,-34.79,0.34,-0.43,0.78,-10.68,-10.5,-7.39,1742257921.554709
0.16,0.58,0.75,-7.08,32.84,-2.44,0.29,-0.45,0.85,-3.6,-21.61,-8.24,1742257921.6687732
0.17,0.55,0.71,21.42,-4.15,42.24,0.28,-0.44,0.85,0.92,-1.65,-0.49,1742257921.782618
-0.03,0.73,0.84,3.85,-26.79,32.78,0.28,-0.47,0.85,13.24,3.42,-5.37,1742257921.896517
-0.05,0.58,0.84,8.42,-25.45,8.85,0.28,-0.47,0.83,4.03,2.93,0.18,1742257922.010378
-0.07,0.59,0.8,-3.97,-7.69,-8.91,0.29,-0.5,0.82,0.24,8.18,3.48,1742257922.127746
-0.09,0.53,0.9,16.3,-11.29,-3.11,0.31,-0.47,0.82,3.11,9.34,1.22,1742257922.237312
-0.08,0.55,0.84,9.52,-5.74,-11.05,0.32,-0.52,0.81,11.6,12.63,-0.12,1742257922.3523772
-0.07,0.54,0.84,3.05,-0.79,-0.43,0.35,-0.5,0.78,0.85,13.73,7.63,1742257922.4681768
-0.08,0.54,0.84,9.28,-0.85,0.43,0.38,-0.51,0.74,-2.56,5.55,2.08,1742257922.577404
-0.08,0.52,0.85,0.85,-0.24,-0.73,0.38,-0.46,0.86,-18.07,-5.49,-3.85,1742257922.6917
-0.08,0.52,0.85,3.36,-1.04,0.49,0.34,-0.47,0.83,-6.29,7.63,-8.18,1742257922.805585
-0.08,0.51,0.86,-7.14,-2.01,0.79,0.39,-0.56,0.71,7.45,32.71,-11.84,1742257922.9195032
-0.08,0.53,0.85,-6.41,-0.85,0.37,0.41,-0.52,0.7,13.43,1.16,14.89,1742257923.033304
-0.07,0.53,0.84,-0.61,2.08,-2.62,0.42,-0.48,0.77,5.43,-26.67,8.3,1742257923.148491
-0.08,0.54,0.85,23.56,8.24,-6.71,0.35,-0.58,0.77,9.22,-40.53,-18.55,1742257923.2595048
-0.06,0.48,0.86,12.57,1.77,4.94,0.34,-0.51,0.78,-8.06,28.08,-9.64,1742257923.373503
-0.06,0.5,0.87,-7.75,-3.97,1.95,0.35,-0.56,0.75,7.57,0.67,13.92,1742257923.487641
-0.06,0.5,0.87,-1.4,-0.61,-0.06,0.36,-0.56,0.74,12.08,-5.13,7.87,1742257923.600368
-0.07,0.5,0.87,-3.23,-1.04,0.37,0.35,-0.59,0.73,5.13,-3.85,0.43,1742257923.714417
-0.06,0.49,0.87,-5.49,-3.05,1.22,0.35,-0.57,0.74,0.79,0.12,-2.44,1742257923.831706
-0.07,0.5,0.86,-4.88,-1.71,0.49,0.35,-0.57,0.71,0.61,4.46,-2.87,1742257923.9424372
-0.07,0.5,0.86,-0.55,0.0,0.24,0.36,-0.57,0.75,0.98,11.66,3.17,1742257924.056303
-0.08,0.51,0.86,0.18,-0.06,0.06,0.37,-0.58,0.71,-1.28,-0.92,0.12,1742257924.169544
-0.07,0.5,0.86,-0.12,-0.12,0.24,0.37,-0.57,0.72,0.67,1.4,-1.59,1742257924.283427
-0.08,0.51,0.86,-0.18,-0.37,-0.18,0.36,-0.58,0.72,-3.85,4.7,-5.68,1742257924.3975139
-0.07,0.5,0.86,0.18,-0.43,-0.24,0.37,-0.59,0.72,-8.36,1.95,-2.14,1742257924.511531
-0.01,0.65,0.74,2.5,-0.92,0.79,0.38,-0.54,0.75,-1.77,3.17,1.65,1742257928.047816
-0.02,0.62,0.79,-6.29,4.88,-0.79,0.4,-0.53,0.71,7.39,11.47,2.75,1742257928.157212
0.0,0.68,0.79,-12.39,16.78,-15.32,0.41,-0.72,0.73,7.14,-7.51,-15.75,1742257928.270588
0.01,0.64,0.75,-5.55,3.3,-7.08,0.28,-0.59,0.74,-39.86,-33.26,23.32,1742257928.388288
-0.07,0.74,0.74,0.06,-2.93,7.75,0.23,-0.47,0.75,0.61,-7.57,15.14,1742257928.4982731
-0.08,0.67,0.72,5.37,-9.22,-26.86,0.32,-0.52,0.75,49.01,26.18,-26.79,1742257928.612441
-0.07,0.69,0.77,-34.55,-18.86,-32.96,0.24,-0.59,0.62,75.74,10.56,-19.78,1742257928.728769
-0.02,0.74,0.68,-11.9,-24.11,-51.76,0.32,-0.65,0.51,45.17,-18.07,-15.01,1742257928.840469
0.18,0.63,0.6,-1.22,-27.04,-38.15,0.32,-0.88,0.48,5.49,13.24,-15.81,1742257928.954334
0.19,0.57,0.76,16.85,-7.14,-15.14,0.27,-0.87,0.43,32.9,30.94,-6.96,1742257929.0684521
0.14,0.7,0.66,-50.66,-17.76,-9.4,0.3,-0.81,0.36,-3.17,46.2,-7.26,1742257929.182454
0.06,0.72,0.61,-82.64,-33.75,0.37,0.34,-0.8,0.39,5.25,35.03,-37.41,1742257929.296343
-0.07,0.91,0.6,-18.37,-52.19,34.18,0.43,-0.89,0.3,-58.35,8.42,-19.35,1742257929.4105852
-0.08,0.84,0.66,-4.46,-26.18,25.94,0.36,-1.01,0.53,-20.2,-57.92,26.61,1742257929.528577
-0.1,0.82,0.59,2.56,15.87,34.36,0.25,-0.84,0.57,-4.64,11.54,62.99,1742257929.638252
-0.11,0.76,0.53,9.34,29.91,37.6,0.3,-0.75,0.39,18.55,-13.61,49.68,1742257929.752306
-0.1,0.73,0.46,29.79,24.29,41.87,0.31,-0.79,0.47,25.09,-66.04,33.45,1742257929.8676429
-0.26,1.01,0.55,10.99,-21.12,-3.97,0.47,-0.58,0.84,-64.03,-9.77,47.67,1742257929.980391
-0.24,0.7,0.45,-29.54,-46.26,-15.14,0.36,-0.87,0.46,0.79,4.94,4.21,1742257930.094168
-0.47,0.92,0.9,-18.74,-149.41,-13.24,0.42,-0.68,0.44,14.59,-16.78,-5.25,1742257930.207804
-0.31,0.89,0.33,17.88,22.77,0.43,0.39,-0.79,0.52,0.73,-11.96,0.67,1742257930.321321
-0.29,0.8,0.44,-17.27,10.62,4.46,0.34,-0.75,0.49,-8.12,-21.73,-13.12,1742257930.4354858
-0.25,0.89,0.45,-15.81,17.03,-4.09,0.32,-0.73,0.58,-4.52,-13.24,-13.49,1742257930.549498
-0.2,0.83,0.49,23.99,4.58,-18.25,0.31,-0.83,0.52,11.47,16.36,-8.79,1742257930.66332
-0.21,0.83,0.5,9.52,16.17,-3.6,0.29,-0.77,0.54,6.35,18.01,-8.48,1742257930.777303
-0.17,0.87,0.51,8.3,37.29,-8.61,0.32,-0.81,0.44,-4.46,21.18,-7.93,1742257930.8913631
-0.11,0.88,0.46,-0.92,32.59,-8.42,0.33,-0.8,0.47,20.39,11.54,-8.12,1742257931.008735
-0.09,0.88,0.53,9.64,8.91,-13.79,0.3,-0.77,0.4,-65.37,12.57,3.3,1742257931.119359
-0.06,1.03,0.64,-33.14,38.27,-59.94,0.32,-0.87,0.44,-7.45,13.18,0.55,1742257931.233321
0.18,0.93,0.39,-42.72,58.11,-108.28,0.33,-0.8,0.45,1.4,1.65,4.94,1742257931.3472571
0.44,0.69,0.08,-57.5,22.4,-99.73,0.34,-0.79,0.42,-3.05,5.62,-8.91,1742257931.46142
0.53,0.69,0.11,-50.72,-36.07,-73.36,0.34,-0.82,0.44,0.79,5.74,-5.19,1742257931.5753229
0.53,0.72,0.24,-30.58,-41.26,-46.33,0.34,-0.8,0.44,-0.31,11.35,-11.17,1742257931.689478
0.63,0.6,0.27,-15.26,-15.26,-30.4,0.33,-0.82,0.43,-1.28,11.9,-9.95,1742257931.803482
0.6,0.71,0.22,-41.44,-9.34,-2.56,0.32,-0.87,0.4,-3.54,3.05,-10.31,1742257931.9174201
0.62,0.74,0.19,-44.43,-18.8,2.14,0.31,-0.84,0.4,0.43,-1.04,-0.18,1742257932.03141
0.66,0.8,0.13,-29.3,-12.45,-5.74,0.3,-0.83,0.44,3.23,-3.36,-1.53,1742257932.1479812
0.61,0.88,0.09,-28.93,-11.9,-25.7,0.3,-0.84,0.43,0.61,-2.38,-3.36,1742257932.259521
0.67,0.76,0.11,-18.13,-13.85,-1.83,0.29,-0.83,0.42,3.48,-1.65,0.61,1742257932.3732312
0.69,0.74,0.05,-13.18,5.55,-4.52,0.28,-0.87,0.43,-2.5,-9.89,-1.34,1742257932.488255
0.64,0.67,0.09,-8.18,-1.65,-8.0,0.29,-0.83,0.42,1.28,-6.65,-2.5,1742257932.6014872
0.72,0.73,0.06,-10.86,-16.05,-0.49,0.27,-0.84,0.44,0.98,-4.58,2.08,1742257932.715248
0.74,0.62,0.09,19.29,-3.3,-8.48,0.27,-0.82,0.45,-1.77,-2.14,1.16,1742257932.832132
0.7,0.69,0.13,-3.11,1.16,-4.58,0.26,-0.85,0.45,-3.97,-1.77,-3.05,1742257932.947958
0.7,0.69,0.1,-31.01,-8.36,2.26,0.29,-0.84,0.5,-7.2,0.55,-2.93,1742257933.0574238
0.73,0.68,0.0,8.3,-23.44,-6.1,0.32,-0.82,0.49,-21.48,8.0,4.76,1742257933.1712372
0.71,0.6,0.11,24.11,12.21,-1.22,0.35,-0.76,0.56,-36.99,4.46,26.98,1742257933.290443
0.68,0.59,0.16,24.66,7.08,42.18,0.35,-0.73,0.58,-31.25,-0.24,32.59,1742257933.399456
0.61,0.7,0.19,28.02,29.48,59.94,0.41,-0.62,0.65,-31.37,0.0,41.63,1742257933.5132759
0.55,0.71,0.15,25.27,61.46,106.38,0.46,-0.72,0.67,-23.07,-9.83,51.57,1742257933.627854
0.25,0.86,0.11,113.65,62.87,112.0,0.44,-0.53,0.63,-10.56,-15.14,62.07,1742257933.7413251
0.13,0.87,0.31,119.87,-6.29,128.11,0.45,-0.44,0.76,-47.91,-43.15,80.14,1742257933.855335
-0.28,1.28,0.17,-211.3,-15.26,121.22,0.46,-0.28,0.81,-9.09,2.26,44.37,1742257933.969237
-0.2,1.04,0.32,149.41,-2.99,13.18,0.48,-0.16,0.76,-10.44,-0.37,26.25,1742257934.087979
-0.16,0.44,0.76,153.08,15.01,41.38,0.46,-0.18,0.74,-4.64,-18.49,-8.91,1742257934.197448
-0.34,0.82,0.89,13.61,3.6,0.06,0.47,-0.29,0.69,7.57,-45.53,-31.68,1742257934.311841
-0.26,0.74,1.0,-18.25,73.24,-84.96,0.52,-0.36,1.37,8.12,117.07,30.64,1742257934.4285939
0.31,0.29,0.35,-59.57,99.98,-88.2,0.38,-0.31,0.79,-12.15,2.75,0.06,1742257934.539273
0.13,0.57,0.64,4.03,-35.58,44.86,0.41,-0.26,0.89,-2.44,-1.1,8.06,1742257934.653456
-0.09,0.9,0.67,-115.23,-54.57,74.22,0.43,-0.25,0.95,-9.83,20.02,6.9,1742257934.77005
-0.15,0.89,0.41,-232.12,-56.03,75.56,0.47,-0.16,0.79,0.0,15.26,-0.12,1742257934.881272
-0.2,0.98,0.14,216.74,66.71,-10.01,0.44,-0.16,0.72,0.98,-9.83,-12.21,1742257934.995399
-0.34,1.09,0.63,128.54,-5.55,-23.62,0.41,-0.32,0.49,30.27,-70.74,-21.48,1742257935.1093812
-0.24,0.71,1.08,26.79,74.83,-84.17,0.52,0.07,0.81,-24.66,-15.01,-5.74,1742257935.225676
0.22,0.01,0.24,42.3,-23.01,-7.87,0.36,-0.35,0.88,-26.37,-5.62,-1.77,1742257935.337556
-0.08,0.75,0.57,-162.84,-84.11,55.36,0.43,-0.27,0.85,4.46,8.06,6.16,1742257935.45106
-0.29,1.14,0.19,-322.14,-78.74,78.74,0.44,-0.26,0.88,-16.42,29.36,-2.44,1742257935.569104
-0.33,1.01,-0.21,-140.62,-26.12,48.4,0.47,-0.13,0.86,2.75,23.07,-1.46,1742257935.678186
-0.34,0.68,-0.59,-186.04,-72.14,45.29,0.41,-0.27,0.79,-9.77,-19.96,-6.59,1742257935.792344
-0.54,1.02,-0.75,134.03,96.68,-52.55,0.39,-0.24,0.78,8.54,-41.2,4.7,1742257935.9091551
-0.42,0.98,-0.36,254.52,117.49,-119.93,0.31,-0.23,0.84,23.93,-62.07,10.99,1742257936.02017
-0.15,0.95,-0.02,92.71,6.35,-79.59,0.23,-0.36,0.96,12.7,-96.68,2.08,1742257936.134112
0.02,0.79,0.22,68.73,-25.09,-59.33,-0.0,-0.26,1.3,11.11,9.95,10.93,1742257936.2498
0.05,0.78,0.43,19.78,-12.45,-15.01,0.12,-0.15,1.24,-21.97,215.03,-31.56,1742257936.362279
0.01,0.96,0.35,34.97,13.79,6.35,0.42,-0.43,0.47,13.73,32.53,-23.8,1742257936.4762821
0.18,0.73,0.63,-86.98,20.69,9.52,0.16,-0.45,0.85,-1.28,-94.24,13.37,1742257936.590288
0.09,0.79,0.55,20.94,-12.27,-15.01,0.22,-0.28,0.87,9.03,-92.04,-9.34,1742257936.709213
0.12,0.86,0.53,7.2,17.64,-3.11,0.13,-0.28,1.03,-2.38,-112.3,9.89,1742257936.818256
0.16,0.82,0.45,2.26,8.67,-7.39,-0.35,-0.26,1.5,18.31,-35.4,19.78,1742257936.932279
0.14,0.77,0.45,5.49,-18.86,0.55,-0.11,-0.26,0.9,30.15,316.77,-9.58,1742257937.0501251
0.09,0.83,0.42,-5.98,-42.91,11.9,0.21,-0.36,0.55,-0.43,-95.89,2.14,1742257937.160275
0.12,0.83,0.68,-4.82,22.95,-4.46,0.13,-0.3,1.06,-19.35,-20.02,-16.24,1742257937.274338
0.03,0.83,0.51,-0.37,8.36,12.63,0.08,-0.36,1.0,16.85,18.92,-46.94,1742257937.390362
0.07,0.84,0.51,-1.77,5.0,8.3,0.12,-0.36,0.86,25.45,20.26,-46.39,1742257937.502221
0.02,0.86,0.53,-1.71,11.35,11.72,0.13,-0.49,0.79,5.55,-7.51,-31.19,1742257937.61628
0.03,0.89,0.53,0.67,9.83,6.71,0.09,-0.53,0.91,-28.38,-47.49,18.49,1742257937.730273
0.03,0.88,0.47,9.83,8.18,-7.32,-0.03,-0.41,1.35,4.7,22.46,82.52,1742257937.844171
0.09,0.76,0.28,-13.43,-14.83,4.52,0.11,-0.53,0.4,41.2,62.38,-13.12,1742257937.958189
-0.53,0.6,2.34,53.41,-63.84,-14.77,0.25,-0.38,0.61,26.18,-94.36,-17.27,1742257938.072383
0.02,0.87,0.47,10.25,4.7,-7.51,0.03,-0.38,0.97,24.48,-72.2,-3.48,1742257938.1899421
0.08,0.79,0.58,-5.49,34.97,-8.42,0.01,-0.46,1.03,23.93,-54.02,10.5,1742257938.300193
0.12,0.77,0.5,-7.87,15.5,-9.95,-0.03,-0.43,1.11,-7.45,20.75,20.14,1742257938.414214
0.17,0.76,0.47,-6.65,-14.22,-2.93,0.2,-0.38,1.09,-17.52,272.16,5.13,1742257938.5301461
0.06,0.83,0.42,-1.16,-38.45,17.09,0.33,-0.46,0.47,-2.5,-98.08,10.25,1742257938.642195
0.08,0.63,1.24,-9.03,64.64,-14.83,0.14,-0.32,0.98,-16.48,-66.65,23.5,1742257938.756392
-0.0,0.84,0.61,22.28,29.11,-3.66,0.05,-0.4,0.93,18.68,-125.12,-8.79,1742257938.8701692
0.1,0.78,0.59,4.33,17.15,2.14,0.0,-0.43,1.15,2.69,-3.66,11.05,1742257938.990177
0.1,0.79,0.54,-6.65,6.41,-0.61,0.1,-0.3,1.24,-24.48,284.91,-10.74,1742257939.098177
0.08,0.78,0.43,-9.4,-21.36,2.5,0.31,-0.34,0.55,20.14,-131.53,19.84,1742257939.212057
0.03,0.21,1.69,-26.0,20.51,3.11,0.21,-0.35,1.18,-20.26,33.87,-7.32,1742257939.326369
-0.01,0.69,0.66,15.69,23.25,18.37,0.48,-0.38,0.76,-4.76,80.44,-17.33,1742257939.440203
0.03,0.76,0.47,-6.59,27.16,46.57,0.51,-0.36,0.66,-0.12,11.66,-2.14,1742257939.554177
-0.13,0.93,0.46,72.63,-21.67,33.14,0.45,-0.3,0.75,-7.69,-12.15,10.5,1742257939.670652
-0.2,0.77,0.8,108.52,-56.21,-4.88,0.44,-0.3,0.74,2.99,-4.46,3.78,1742257939.782088
-0.37,0.92,1.38,38.15,-17.64,-21.79,0.22,-0.33,1.15,15.75,-101.38,-23.74,1742257939.896238
0.1,0.46,0.73,-116.82,123.23,-84.47,0.28,-0.25,0.85,-8.91,-14.28,-11.29,1742257940.0111191
-0.02,0.4,0.61,11.84,-2.44,-22.03,0.26,-0.14,0.94,-10.68,11.29,-58.53,1742257940.130708
0.06,0.45,0.94,0.67,28.81,72.33,0.27,-0.36,0.81,-15.38,44.25,-101.26,1742257940.238267
0.03,0.52,0.81,25.45,63.54,102.36,0.31,-0.43,0.82,-20.57,31.37,-99.43,1742257940.35594
0.04,0.63,0.76,41.87,48.03,98.02,0.33,-0.43,0.81,-15.08,43.88,-84.29,1742257940.471628
0.02,0.6,0.83,18.68,19.96,65.73,0.32,-0.45,0.76,-7.75,41.56,-78.61,1742257940.5802171
0.0,0.53,0.79,-11.35,10.93,47.85,0.27,-0.49,0.66,19.23,-0.49,-77.51,1742257940.694321
0.04,0.39,0.59,-66.41,-19.71,66.89,0.11,-0.65,0.78,-4.82,-29.66,-67.87,1742257940.813787
-0.32,0.54,0.59,-51.51,-43.64,110.17,0.07,-0.45,0.77,-12.82,-42.54,-45.9,1742257940.922289
-0.53,0.58,0.58,-65.55,-51.64,111.02,-0.06,-0.43,0.8,8.3,-40.1,-62.93,1742257941.03629
-0.62,0.59,0.5,-70.01,-42.24,102.42,-0.27,-0.57,0.76,-14.16,-69.76,-66.22,1742257941.150699
-0.81,0.36,0.51,4.58,-44.31,105.77,-0.48,-0.49,0.78,-19.65,-98.69,-51.15,1742257941.264888
-0.97,0.31,0.34,36.93,-63.11,119.14,-0.65,-0.37,0.63,11.47,-127.01,-68.73,1742257941.378316
-1.04,0.07,0.34,74.28,-62.13,77.21,-0.96,-0.39,0.54,15.44,-105.59,-70.01,1742257941.4923258
-1.07,0.07,0.23,14.89,-26.18,15.93,-0.96,-0.32,0.54,6.53,-55.54,-6.96,1742257941.611137
-0.99,-0.03,0.13,100.83,0.79,-22.22,-0.93,-0.27,0.42,32.35,13.31,11.84,1742257941.720137
-0.9,-0.43,0.36,54.63,-6.1,-17.03,-0.86,-0.22,0.26,14.16,33.39,5.31,1742257941.834785
-0.98,-0.09,0.09,7.14,15.99,25.02,-0.88,-0.24,0.3,10.99,-9.77,-9.46,1742257941.951296
-0.98,-0.11,0.15,-9.46,-13.92,5.74,-0.9,-0.29,0.34,16.66,-6.53,-4.39,1742257942.0623271
-0.97,-0.17,0.19,-3.66,1.77,3.6,-0.89,-0.29,0.31,12.82,0.49,0.98,1742257942.176139
-0.96,-0.13,0.14,-1.89,1.71,2.44,-0.89,-0.26,0.32,7.45,3.97,1.22,1742257942.293313
-0.96,-0.16,0.16,-2.5,-0.43,2.38,-0.89,-0.27,0.32,10.38,5.74,-3.66,1742257942.410625
-0.96,-0.16,0.16,-3.36,-2.14,2.56,-0.9,-0.3,0.29,5.92,8.3,-4.58,1742257942.5182168
-0.95,-0.16,0.17,-1.71,-0.31,3.66,-0.88,-0.25,0.32,-7.63,3.11,-8.3,1742257942.632221
-0.95,-0.18,0.16,-26.31,19.04,1.53,-0.88,-0.23,0.36,-5.13,8.3,-9.89,1742257942.75137
-0.94,-0.16,0.23,-42.36,20.75,1.22,-0.87,-0.22,0.36,-1.77,8.67,-13.79,1742257942.871093
-0.91,-0.15,0.3,-46.57,24.41,5.31,-0.88,-0.2,0.37,4.21,8.73,-14.34,1742257942.974145
-0.94,-0.13,0.34,-43.46,11.23,11.47,-0.88,-0.21,0.34,2.38,2.93,-9.58,1742257943.0910919
-0.92,-0.12,0.32,-25.94,-3.91,8.06,-0.89,-0.22,0.39,-14.71,-4.64,-0.79,1742257943.2022982
-0.93,-0.12,0.33,-17.09,-16.36,6.84,-0.9,-0.25,0.42,-15.87,-1.83,13.73,1742257943.316227
-0.94,-0.1,0.3,-27.47,-26.49,5.31,-0.88,-0.3,0.41,9.58,6.1,36.5,1742257943.431496
-0.97,-0.08,0.27,-15.08,-19.35,-2.08,-0.85,-0.32,0.38,-29.48,8.61,43.88,1742257943.550409
-0.98,-0.05,0.21,-25.7,-13.0,-8.85,-0.88,-0.39,0.43,-40.47,14.1,86.49,1742257943.6582432
-1.01,-0.01,0.18,-59.33,-38.64,-5.92,-0.73,-0.32,0.42,18.37,-2.93,65.73,1742257943.772251
-0.98,-0.01,0.12,-48.77,-24.29,-15.56,-0.69,-0.37,0.39,-8.73,-9.89,38.09,1742257943.891306
-1.0,0.01,0.08,-20.87,-15.5,-7.39,-0.67,-0.4,0.35,53.41,-20.87,8.67,1742257944.000247
-0.96,-0.05,0.07,14.65,8.79,-12.76,-0.69,-0.39,0.29,104.74,-20.02,-41.81,1742257944.114344
-0.94,-0.05,0.12,40.1,17.27,5.07,-0.82,-0.84,0.01,185.24,-28.5,9.34,1742257944.2311869
-0.97,-0.07,0.11,0.0,5.68,20.2,-0.7,-0.71,-0.27,165.71,-18.68,41.44,1742257944.342336
-0.99,-0.06,0.16,-28.56,-18.68,27.89,-0.67,-0.66,-0.49,69.52,-47.0,31.01,1742257944.4562502
-1.03,-0.05,0.1,-63.96,-40.41,42.18,-0.62,-0.64,-0.55,47.85,-63.84,24.9,1742257944.5712872
-1.08,0.02,-0.1,-148.44,-56.46,10.86,-0.52,-0.66,-0.55,0.85,-49.99,22.22,1742257944.6909928
-0.97,-0.07,-0.09,-30.64,-20.14,-28.93,-0.46,-0.67,-0.54,-43.52,-30.33,25.51,1742257944.798271
-1.03,-0.02,-0.2,3.97,-8.24,-36.56,-0.37,-0.76,-0.52,-28.08,-13.79,17.46,1742257944.912228
-1.03,0.05,-0.19,28.69,-35.89,-60.42,-0.3,-0.78,-0.5,5.62,-23.38,15.69,1742257945.0315058
-1.02,0.15,-0.24,2.75,-57.31,-56.76,-0.26,-0.78,-0.57,44.49,-14.95,12.82,1742257945.140161
-0.91,0.2,-0.33,-31.56,-84.78,-50.17,-0.25,-0.82,-0.65,1.34,-10.25,15.14,1742257945.2541912
-0.83,0.3,-0.44,-19.71,-65.55,-31.01,-0.17,-0.86,-0.59,-200.81,-24.17,69.34,1742257945.370272
-0.73,0.29,-0.53,36.68,-21.36,-39.73,-0.04,-0.89,-0.2,-28.63,-41.5,31.92,1742257945.482281
-0.67,0.45,-0.53,5.25,-35.52,-33.45,0.01,-0.89,-0.2,1.46,-13.43,15.01,1742257945.596172
-0.57,0.43,-0.66,-111.21,-91.13,-3.78,0.01,-0.93,-0.22,-33.2,9.09,10.62,1742257945.710573
-0.48,0.33,-0.76,-57.92,-40.41,-1.04,0.05,-0.99,-0.19,-13.79,8.0,0.49,1742257945.824073
-0.46,0.33,-0.77,56.82,23.99,-25.21,0.08,-1.03,-0.19,-35.34,13.55,12.08,1742257945.9380858
-0.56,0.6,-0.84,143.92,65.49,-56.82,0.08,-1.06,-0.1,-49.93,16.3,25.94,1742257946.0520792
-0.4,0.7,-0.42,258.54,82.76,-67.87,0.14,-0.91,0.03,-86.12,20.81,6.9,1742257946.170485
-0.41,0.87,0.15,282.04,93.38,-103.15,0.14,-0.9,0.13,-55.85,16.54,-19.65,1742257946.280189
-0.11,0.57,0.67,120.0,8.24,-78.49,0.08,-0.94,0.22,-37.48,2.38,-1.89,1742257946.394101
-0.13,0.66,0.75,-28.44,-1.77,-33.81,0.13,-0.92,0.32,-8.85,0.0,3.48,1742257946.510454
-0.0,0.67,0.64,1.04,16.11,-20.26,0.16,-0.94,0.36,-45.41,21.67,18.13,1742257946.622019
0.08,0.65,0.66,16.11,14.53,-30.46,0.17,-0.93,0.48,-86.55,31.74,33.75,1742257946.736036
0.0,0.69,0.72,68.79,-7.45,2.01,0.31,-0.71,0.48,-73.73,4.58,32.04,1742257946.855158
-0.06,0.61,0.8,31.74,-20.32,-33.33,0.36,-0.57,0.6,-86.98,-34.18,48.89,1742257946.9661372
-0.02,0.56,0.85,39.79,-22.28,-36.38,0.36,-0.38,0.92,-47.24,22.83,23.99,1742257947.078014
0.06,0.4,0.89,40.04,0.31,-35.22,0.5,-0.14,0.66,-187.81,94.3,22.03,1742257947.191993
0.04,0.33,0.86,0.92,-28.69,-13.18,0.42,-0.19,0.95,-19.17,-32.84,-12.57,1742257947.313227
-0.05,0.31,1.11,-52.55,1.59,-21.0,0.36,-0.31,0.96,-8.61,-8.24,-36.44,1742257947.420186
0.03,0.5,0.91,2.87,17.33,6.29,0.37,-0.23,0.79,6.65,2.01,-14.04,1742257947.5339992
0.05,0.46,0.86,-16.54,8.61,10.07,0.37,-0.21,0.83,-4.03,-15.5,-4.52,1742257947.649958
0.1,0.44,0.89,-5.19,3.78,12.7,0.34,-0.14,1.01,35.16,31.37,-28.14,1742257947.761984
0.06,0.36,0.86,-8.0,-10.25,63.84,0.29,-0.82,0.79,-7.75,13.85,-24.54,1742257947.876069
-0.29,0.55,0.88,-42.72,-16.91,83.31,0.41,-0.19,0.94,-5.31,-9.89,17.82,1742257947.990082
-0.39,0.57,0.89,12.7,25.09,16.54,0.41,-0.31,0.85,-5.43,-0.06,2.87,1742257948.1093178
-0.14,0.45,0.9,4.39,8.3,-10.19,0.39,-0.22,0.92,-6.77,-1.53,1.89,1742257948.2180128
-0.04,0.46,0.86,-3.6,2.69,0.55,0.4,-0.26,0.86,-4.15,1.83,-2.32,1742257948.334045
-0.15,0.49,0.87,-7.2,3.6,29.72,0.43,-0.24,0.82,-49.93,-17.64,8.42,1742257948.449964
-0.15,0.5,0.83,8.97,23.19,51.64,0.36,-0.13,0.97,-19.04,-32.65,21.18,1742257948.612437
-0.18,0.52,0.84,11.47,3.23,10.38,0.31,-0.14,0.97,-0.61,1.22,-21.0,1742257948.674079
-0.21,0.5,0.86,-13.43,-0.98,-29.17,0.35,-0.15,0.93,3.3,4.64,5.74,1742257948.792423
-0.12,0.5,0.9,-9.28,13.92,-29.85,0.35,-0.14,0.94,14.71,36.5,-13.55,1742257948.9009778
-0.04,0.48,0.84,-5.55,11.6,-6.16,0.44,-0.27,0.8,22.77,23.93,-31.31,1742257949.015002
-0.04,0.52,0.85,0.12,-0.61,-13.06,0.45,-0.17,0.87,-10.62,-11.05,11.66,1742257949.129929
-0.06,0.52,0.88,1.77,-15.38,-3.3,0.42,-0.2,0.87,-7.2,-13.79,13.73,1742257949.2431328
-0.07,0.53,0.83,24.35,-26.55,-4.7,0.39,-0.18,0.9,-4.09,-6.9,3.91,1742257949.35702
-0.07,0.44,0.88,50.72,-42.66,-34.24,0.4,-0.2,0.88,3.42,-3.97,0.18,1742257949.470931
-0.11,0.21,0.92,21.55,-18.49,-2.56,0.38,-0.21,0.89,4.76,3.36,-3.85,1742257949.590589
-0.25,0.32,0.92,-18.74,19.35,48.1,0.37,-0.29,0.84,-14.1,-35.1,34.61,1742257949.699135
-0.18,0.41,0.92,10.74,-13.85,-2.44,0.36,-0.12,0.96,19.04,18.49,-17.03,1742257949.812872
-0.19,0.3,0.94,-1.83,-3.23,1.59,0.42,-0.3,0.81,27.16,31.86,-33.02,1742257949.93069
-0.2,0.36,0.92,0.61,4.27,1.28,0.42,-0.25,0.89,-23.01,-42.11,50.05,1742257950.040929
-0.18,0.35,0.92,-2.87,0.98,-2.26,0.31,-0.1,1.02,-11.29,-23.5,-2.01,1742257950.1550379
-0.19,0.34,0.92,1.1,3.85,0.98,0.35,-0.12,0.94,11.23,40.34,-22.28,1742257950.269747
-0.18,0.34,0.93,-0.49,6.04,1.04,0.39,-0.19,0.88,-0.73,5.68,-2.62,1742257950.382968
-0.17,0.34,0.95,-13.24,18.68,0.12,0.41,-0.18,0.86,11.66,28.08,-26.98,1742257950.496883
-0.13,0.35,0.94,5.31,-2.87,0.06,0.42,-0.25,0.86,-0.31,-1.22,3.3,1742257950.610914
-0.16,0.35,0.93,-3.97,-1.89,-2.32,0.41,-0.17,0.89,-11.84,-18.31,27.28,1742257950.730655
-0.15,0.34,0.92,-1.89,1.34,2.44,0.38,-0.18,0.81,0.73,-13.92,4.15,1742257950.839017
-0.15,0.34,0.93,-0.31,0.43,2.5,0.36,-0.2,0.91,2.01,0.31,-4.09,1742257950.952987
-0.15,0.36,0.93,-2.87,-0.49,-0.61,0.37,-0.2,0.88,1.16,1.22,-0.31,1742257951.07053
-0.15,0.36,0.92,-3.3,0.18,-0.61,0.37,-0.18,0.9,2.01,2.56,-2.32,1742257951.180793
-0.15,0.37,0.92,-1.83,2.69,4.21,0.37,-0.2,0.89,2.32,-9.77,8.79,1742257951.294949
