L-AccX,L-AccY,L-AccZ,L-GyrX,L-GyrY,L-GyrZ,R-AccX,R-AccY,R-AccZ,R-GyrX,R-GyrY,R-GyrZ,timestamp
-0.03575,-0.0155,0.119,0.0046845004,6.1000002e-05,0.0021057501,-0.0025,-0.119375,0.031,0.00070200005,-4.575e-05,-0.000534,1741898225.604793
-0.036875,-0.021625,0.116125,0.00419625,-0.000122000005,0.0018005001,-0.003375,-0.12,0.02925,0.000534,-6.1000002e-05,-0.00054925,1741898225.619075
-0.036875,-0.02225,0.116,0.00137325,-0.00074775,0.00083925005,-0.004,-0.12075,0.028125,0.0002135,1.5250001e-05,-0.00039675,1741898225.6366541
-0.039625,-0.01825,0.118875,0.0001525,-0.00074775,0.0005645,-0.004375,-0.12075,0.03025,0.00016775,0.00016775,-0.00024425,1741898225.647917
-0.04025,-0.017375,0.11925,-0.00048825,-0.00057975,0.0004425,-0.00425,-0.11725,0.034875,0.00048825,0.0013580001,-0.0003815,1741898225.664829
-0.0385,-0.01675,0.11825,-0.00064075,-0.00039675,0.00042725,-0.002,-0.109375,0.04225,0.00119025,0.0022125002,-0.00054925,1741898225.677332
-0.03775,-0.016875,0.117625,-0.0005035,-0.00036625,0.00039675,-0.000375,-0.107875,0.04325,0.0036315,0.00352475,-0.0005645,1741898225.6918871
-0.0375,-0.0165,0.117,-9.15e-05,-0.000183,0.00029,0.00075,-0.11225,0.041625,0.0050812503,0.0041504996,-0.00045775,1741898225.7066
-0.03825,-0.015375,0.11575,0.000183,-9.15e-05,0.00024425,0.00225,-0.118125,0.0395,0.0075072497,0.00543225,-0.00013725001,1741898225.7215848
-0.03825,-0.01525,0.116,0.000763,-0.00016775,0.00010675,0.008125,-0.127875,0.034125,0.0080872495,0.00614925,4.575e-05,1741898225.735606
-0.037375,-0.01725,0.116375,0.00096125,-0.00027475,4.575e-05,0.007875,-0.12975,0.03325,0.008377,0.00688175,0.00027475,1741898225.750109
-0.0375,-0.0175,0.1165,0.00080875,-0.00051875,0.0001525,0.0015,-0.136,0.034,0.008499251,0.008499251,0.00131225,1741898225.765694
-0.038125,-0.016,0.117,0.00061025,-0.0005645,0.0002135,-0.00125,-0.137125,0.032625,0.00839225,0.009216251,0.0021515,1741898225.779427
-0.037875,-0.015375,0.117625,0.00013725001,-0.00048825,3.0500001e-05,-0.001625,-0.1345,0.029625,0.008850001,0.009597749,0.0032195,1741898225.793919
-0.03675,-0.0165,0.117625,-0.000122000005,-0.0003205,-0.0001525,0.0005,-0.12375,0.024125,0.009674,0.009017999,0.0031889998,1741898225.808534
-0.036125,-0.017125,0.115875,-0.0003815,-0.0001525,-0.00027475,0.0005,-0.119625,0.020375,0.012557999,0.0060882503,0.00267025,1741898225.826387
-0.03725,-0.0165,0.118125,-0.00057975,-0.0001525,-0.00036625,-0.002875,-0.116375,0.003625,0.01440425,0.0038299998,0.002121,1741898225.837696
-0.03825,-0.016375,0.119875,-0.00061025,-1.5250001e-05,-0.000412,-0.0045,-0.116,-0.006,0.01593025,-0.001068,9.15e-05,1741898225.8524318
-0.038375,-0.016625,0.1205,-0.00074775,0.0003815,-0.000473,-0.00525,-0.112875,-0.020375,0.014419501,-0.00328075,-0.001114,1741898225.8682299
-0.037,-0.0185,0.119,-0.00090025004,0.00051875,-0.0005035,-0.005375,-0.111,-0.02575,0.0077210004,-0.0079345,-0.00317375,1741898225.882012
-0.035875,-0.019375,0.1175,-0.0017242499,0.000763,-0.0002595,-0.006375,-0.110375,-0.02725,0.0034484998,-0.01048275,-0.0039215,1741898225.897016
-0.035625,-0.018625,0.12,-0.00216675,0.0008545,-6.1000002e-05,-0.00575,-0.107875,-0.0225,-0.00372325,-0.01564025,-0.00535575,1741898225.9118311
-0.03675,-0.018,0.121625,-0.00231925,0.0011445,0.00016775,-0.0035,-0.101875,-0.010375,-0.0050355,-0.01820375,-0.0062865,1741898225.926744
-0.039,-0.016,0.1235,-0.0021057501,0.001175,0.00016775,-0.00325,-0.102375,-0.005625,-0.003418,-0.02288825,-0.00833125,1741898225.944104
-0.039875,-0.01525,0.122625,-0.0019685,0.0009155,1.5250001e-05,-0.005375,-0.1095,0.01125,-0.00184625,-0.024841249,-0.009017999,1741898225.95651
-0.04125,-0.011625,0.124375,-0.00204475,0.00048825,-9.15e-05,-0.008875,-0.11475,0.030875,0.001114,-0.02680975,-0.009506251,1741898225.971371
-0.041875,-0.009375,0.128375,-0.00187675,-0.0001525,-0.00024425,-0.01825,-0.125875,0.084125,0.0032195,-0.02534475,-0.0088805,1741898225.986088
-0.040625,-0.01325,0.132375,-0.0012665,-0.00148,-0.00029,-0.022875,-0.13275,0.104625,0.0122375,-0.01763925,-0.006012,1741898226.000909
-0.040125,-0.01,0.12775,-0.0012817499,-0.00154125,6.1000002e-05,-0.02825,-0.153,0.10475,0.01882925,-0.0116425,-0.0030365,1741898226.015628
-0.03825,-0.007125,0.122875,-0.000412,0.00057975,-0.000534,-0.031125,-0.16275,0.090875,0.0264435,0.0012207499,0.0036162501,1741898226.030383
-0.045375,-0.020375,0.131875,-0.0001525,0.0028687501,-0.0016632499,-0.041,-0.18925,0.078125,0.023956249,0.0076905,0.0065307496,1741898226.045303
-0.053875,-0.0195,0.135875,-0.00531,0.0076142503,-0.00292975,-0.0455,-0.201125,0.07725,0.01725775,0.0150605,0.00985725,1741898226.059632
-0.065125,0.00175,0.1345,-0.010849,0.009506251,-0.00355525,-0.044125,-0.19975,0.067125,-0.0026245,0.032287497,0.01791375,1741898226.074538
-0.072,0.012625,0.144125,-0.022491502,0.014679,-0.0076905,-0.038375,-0.184375,0.061875,-0.012267999,0.040420502,0.021209748,1741898226.0890949
-0.09175,0.028625,0.156,-0.028259251,0.01808175,-0.0114744995,-0.03325,-0.16775,0.058,-0.024810748,0.053238,0.02490225,1741898226.10578
-0.10025,0.036375,0.155625,-0.03863525,0.02241525,-0.019592252,-0.028875,-0.148375,0.046375,-0.02804575,0.057433996,0.0256195,1741898226.1186361
-0.09825,0.060375,0.1605,-0.04190075,0.0230865,-0.023620501,-0.0275,-0.144625,0.037375,-0.030365,0.061828498,0.02626025,1741898226.133562
-0.091,0.069125,0.1685,-0.042175252,0.0249175,-0.0332185,-0.023375,-0.135125,0.0205,-0.030136,0.062622,0.026519751,1741898226.148101
-0.085625,0.067375,0.16,-0.04040525,0.026947001,-0.037841752,-0.018625,-0.12625,0.013625,-0.028411752,0.061767504,0.0249175,1741898226.165937
-0.083125,0.06425,0.14425,-0.03837575,0.02955625,-0.04176325,-0.008875,-0.11125,-0.0025,-0.02661125,0.060028,0.02297975,1741898226.1774
-0.075875,0.0605,0.12725,-0.033935502,0.035141,-0.049286,-0.002125,-0.10525,-0.012125,-0.02336125,0.056045502,0.01937875,1741898226.19209
-0.03875,0.031625,0.10225,-0.030761749,0.036514252,-0.05220025,0.01175,-0.095375,-0.029625,-0.0222015,0.053955004,0.018127501,1741898226.2067342
-0.014375,0.0145,0.097,-0.021927001,0.03559875,-0.052765,0.016375,-0.09325,-0.035875,-0.02085875,0.04910275,0.015854,1741898226.2243688
0.02425,-0.000625,0.093125,-0.0177765,0.034073003,-0.050766,0.020625,-0.088125,-0.046625,-0.020324752,0.04635625,0.01446525,1741898226.235915
0.034,-0.003375,0.090625,-0.011795,0.03025825,-0.045730498,0.022125,-0.08425,-0.053,-0.015915,0.039199747,0.0114744995,1741898226.250634
0.0345,-0.00975,0.091375,-0.010513251,0.02807625,-0.0431365,0.027625,-0.076,-0.068,-0.0114440005,0.034134,0.0099639995,1741898226.26531
0.033875,-0.012125,0.094,-0.0078735,0.02436825,-0.037155252,0.031,-0.075125,-0.07525,-0.00143425,0.0203095,0.00668325,1741898226.280003
0.040875,-0.011375,0.099375,-0.00585925,0.023071252,-0.03395075,0.034875,-0.079,-0.0855,0.001892,0.012039251,0.0050355,1741898226.2946901
0.04375,-0.01275,0.098125,-0.0041504996,0.02197275,-0.030838,0.03475,-0.078375,-0.08675,0.00355525,0.003296,0.0033875,1741898226.309242
0.044875,-0.014125,0.095125,-0.0042572496,0.0185395,-0.0250245,0.032375,-0.073,-0.081,0.00399775,-0.014862,0.000122000005,1741898226.3272839
0.045125,-0.01425,0.09375,-0.00590525,0.01605225,-0.02285775,0.030875,-0.07225,-0.07475,0.0042115003,-0.023773251,-0.00163275,1741898226.3386612
0.045375,-0.014,0.093,-0.010101249,0.01042175,-0.02009575,0.029625,-0.073125,-0.067,0.0055847503,-0.03971875,-0.0057525,1741898226.353406
0.04525,-0.00325,0.090125,-0.011535751,0.00747675,-0.019012501,0.027375,-0.076,-0.051,0.0065002497,-0.046630748,-0.0080415,1741898226.369157
0.044625,0.003375,0.08925,-0.01020825,0.002884,-0.0172425,0.0245,-0.079125,-0.044625,0.0088195,-0.05805975,-0.012557999,1741898226.385092
0.041,0.006875,0.0915,-0.00791925,0.00148,-0.016128499,0.013,-0.092,-0.03525,0.0097045,-0.06263725,-0.01460275,1741898226.397556
0.036625,0.006375,0.095625,-0.00399775,-0.00033575002,-0.012695249,0.005,-0.1005,-0.031,0.00991825,-0.070282,-0.01800525,1741898226.412322
0.0265,0.007125,0.10225,-0.0029907501,-0.00093075,-0.01062,-0.014375,-0.113375,-0.0155,0.00941475,-0.073593244,-0.01940925,1741898226.427294
0.024125,0.00675,0.102,-0.002472,-0.0012970001,-0.008499251,-0.024,-0.115625,-0.002375,0.00852975,-0.07940675,-0.02177425,1741898226.4421172
0.023625,0.004625,0.100625,-0.0026092501,-0.0016785001,-0.0042115003,-0.04125,-0.12,0.049125,0.008727999,-0.081665,-0.02256775,1741898226.456716
0.024375,-0.0035,0.09375,-0.003296,-0.0019225,-0.00198375,-0.045375,-0.124625,0.076625,0.011184749,-0.08184825,-0.0220795,1741898226.471515
0.023375,-0.004,0.08825,-0.0063477503,-0.00399775,0.0025787498,-0.0425,-0.147,0.103625,0.011734,-0.077865504,-0.019516,1741898226.486429
0.017625,0.003,0.081125,-0.00845325,-0.0058899997,0.0043639997,-0.0395,-0.142875,0.1075,0.011383001,-0.0614165,-0.013641249,1741898226.50496
0.015375,0.0055,0.08375,-0.0127105,-0.0102235,0.00691225,-0.045875,-0.14325,0.111375,0.01245125,-0.053833,-0.013092,1741898226.516041
0.013625,0.013,0.105,-0.01358025,-0.0113525,0.007904,-0.052375,-0.157375,0.120125,0.0143737495,-0.0431365,-0.011139,1741898226.530967
0.0175,0.017375,0.114,-0.0115205,-0.01026925,0.01004025,-0.06175,-0.183375,0.139625,0.01396175,-0.03692625,-0.0085755,1741898226.545634
0.030875,0.02225,0.115375,-0.0095672505,-0.009094249,0.011688249,-0.063375,-0.188625,0.147625,0.0109709995,-0.02038575,-0.0022125002,1741898226.5614522
0.034375,0.026125,0.11425,-0.0080415,-0.008270251,0.013702501,-0.062375,-0.18725,0.150125,0.0086975,-0.01083375,0.001114,1741898226.575312
0.033375,0.030625,0.114625,-0.0064850003,-0.0074004997,0.017334,-0.061625,-0.184,0.149125,0.00343325,0.0073395,0.00723275,1741898226.589856
0.0315,0.0485,0.120125,-0.0061035,-0.007019,0.01855475,-0.05725,-0.184125,0.140625,0.00125125,0.0157165,0.010086001,1741898226.6051478
0.038375,0.06375,0.1235,-0.004593,-0.0055085,0.0196075,-0.05325,-0.177375,0.1285,-0.0049590003,0.0314635,0.01475525,1741898226.619442
0.061125,0.096125,0.12925,-0.00308225,-0.0042267498,0.019195499,-0.04325,-0.14925,0.100625,-0.007843,0.03800975,0.01620475,1741898226.634254
0.066625,0.1065,0.13025,0.00064075,-0.001007,0.016265752,-0.038875,-0.14,0.0885,-0.0090637505,0.045410253,0.017746,1741898226.648971
0.064,0.1115,0.132625,0.0023039998,0.0002595,0.01390075,-0.04075,-0.138875,0.07625,-0.00830075,0.04733275,0.018402,1741898226.665633
0.053875,0.113375,0.138125,0.0032195,0.0012055,0.011123749,-0.04225,-0.141125,0.064875,-0.00801075,0.05036925,0.01908875,1741898226.678456
0.0495,0.115625,0.14075,0.00444025,0.0038757501,0.00466925,-0.03875,-0.138375,0.032875,-0.00968925,0.05656425,0.020477248,1741898226.693048
0.075125,0.104875,0.13225,0.0045165,0.0047912505,0.00160225,-0.0345,-0.134375,0.01975,-0.01148975,0.0582275,0.02098075,1741898226.7076302
0.079875,0.099,0.1315,0.0007935,0.0044555003,-0.0042725,-0.02975,-0.12975,0.0115,-0.017685,0.060912997,0.02082825,1741898226.725564
0.064125,0.094375,0.13975,-0.00143425,0.0049285004,-0.0076905,-0.020875,-0.119625,-0.000875,-0.02142325,0.06280525,0.02026375,1741898226.737212
0.06175,0.094875,0.14225,-0.0024414998,0.00744625,-0.01390075,-0.017,-0.115375,-0.00925,-0.02664175,0.0661315,0.01921075,1741898226.751926
0.061625,0.0975,0.143625,-0.0015565,0.00883475,-0.01675425,-0.006625,-0.10175,-0.031375,-0.027282748,0.06675725,0.018707251,1741898226.766616
0.060625,0.088875,0.14225,-9.15e-05,0.0104065,-0.019516,-0.00075,-0.094875,-0.0435,-0.02545175,0.06573475,0.016998248,1741898226.781476
0.05925,0.07575,0.139625,0.0023345,0.014038,-0.0230255,0.01275,-0.086875,-0.06325,-0.02418525,0.064468496,0.01596075,1741898226.796053
0.054125,0.05875,0.134375,0.0029145,0.01564025,-0.02354425,0.01925,-0.08625,-0.071375,-0.02098075,0.057861254,0.014282251,1741898226.81065
0.0515,0.055375,0.12975,0.00390625,0.0180665,-0.024231002,0.03025,-0.085125,-0.074875,-0.0179595,0.0517425,0.013488751,1741898226.828413
0.048625,0.04675,0.115375,0.00463875,0.01879875,-0.0246735,0.033625,-0.083,-0.073625,-0.010727,0.03668225,0.012405501,1741898226.8399282
0.0475,0.043125,0.111,0.0067597497,0.01924125,-0.024780251,0.04125,-0.0775,-0.077625,-0.0075225,0.027160749,0.0113525,1741898226.854653
0.045625,0.03775,0.104625,0.00782775,0.01921075,-0.024643,0.04575,-0.07275,-0.078875,-0.00204475,0.0036010002,0.00715625,1741898226.870071
0.046,0.0315,0.101,0.008926501,0.01905825,-0.02445975,0.050875,-0.06275,-0.07475,0.00029,-0.008346501,0.0045012496,1741898226.885184
0.043,0.019625,0.093125,0.0110932505,0.017746,-0.0230865,0.052,-0.059375,-0.07,0.0042267498,-0.028564502,-0.000534,1741898226.8987598
0.039875,0.010125,0.090375,0.0116425,0.016739,-0.022033751,0.05125,-0.06,-0.056125,0.0060425,-0.0366515,-0.00308225,1741898226.91346
0.037375,0.001,0.089,0.0102845,0.01445,-0.0184785,0.048625,-0.0625,-0.04875,0.0075377496,-0.043624748,-0.00567625,1741898226.928121
0.0335,-0.004,0.085,0.0085602505,0.0129700005,-0.01620475,0.038,-0.071125,-0.034,0.009201,-0.054977503,-0.010528499,1741898226.94601
0.033375,-0.005875,0.080125,0.0061035,0.0093995,-0.012039251,0.0305,-0.076375,-0.0265,0.00947575,-0.059723,-0.01272575,1741898226.957634
0.031875,-0.00875,0.07525,0.0052337497,0.00747675,-0.009887749,0.020875,-0.082875,-0.018125,0.00962825,-0.06805425,-0.0170135,1741898226.972575
0.029125,-0.009,0.075625,0.00343325,0.0034790002,-0.00611875,-0.0035,-0.09925,0.012,0.0101775,-0.07165525,-0.019042999,1741898226.987531
0.023125,-0.01825,0.07825,0.0030975002,0.001648,-0.0041044997,-0.0125,-0.105375,0.029375,0.0135955,-0.0765075,-0.02247625,1741898227.005397
0.0225,-0.02425,0.079125,0.0028074998,7.625e-05,-0.00154125,-0.017625,-0.11,0.04225,0.016296498,-0.0774535,-0.02374275,1741898227.016931
0.023,-0.028375,0.079,7.625e-05,-0.0032347501,0.0045777503,-0.020875,-0.112375,0.03675,0.021698,-0.07707225,-0.02445975,1741898227.031869
0.02,-0.025625,0.077,-0.00251775,-0.005249,0.00747675,-0.039625,-0.135625,0.051875,0.0225525,-0.07601925,-0.02389525,1741898227.0466628
0.018625,-0.019375,0.075875,-0.006775,-0.0091095,0.012085,-0.05,-0.14775,0.08425,0.0153655,-0.0673675,-0.019027751,1741898227.065387
0.019,-0.00275,0.08125,-0.0079955,-0.010742251,0.01390075,-0.054,-0.14675,0.145875,0.01133725,-0.059433,-0.01675425,1741898227.076638
0.019,0.004625,0.088625,-0.008865249,-0.01266475,0.01678475,-0.049125,-0.148875,0.15275,0.010727,-0.041396998,-0.015029999,1741898227.09158
0.019875,0.007625,0.09925,-0.00924675,-0.01301575,0.01820375,-0.044625,-0.16825,0.12725,0.01177975,-0.034378,-0.01358025,1741898227.106527
0.018875,0.01025,0.10775,-0.00985725,-0.013137749,0.020111,-0.050625,-0.179,0.123375,0.01316825,-0.0244445,-0.0069580004,1741898227.12186
0.0215,0.024625,0.12525,-0.010391249,-0.011734,0.024688749,-0.0605,-0.19025,0.14475,0.0143737495,-0.018875,-0.00302125,1741898227.13636
0.027375,0.03925,0.134375,-0.009781,-0.010238751,0.0269165,-0.061375,-0.191875,0.155125,0.014923001,-0.0024414998,0.00428775,1741898227.1510332
0.035875,0.05375,0.13725,-0.0072785,-0.0060882503,0.02920525,-0.051875,-0.187875,0.15075,0.0122985,0.007553,0.00770575,1741898227.166228
0.06075,0.053625,0.12825,-0.0065155,-0.00399775,0.02949525,-0.0445,-0.180625,0.13675,0.0034637498,0.025512751,0.013214,1741898227.1803148
0.06975,0.044375,0.1205,-0.0068055,-0.0015565,0.03094475,-0.0365,-0.16075,0.10675,-0.00054925,0.032394502,0.015274,1741898227.1949189
0.071875,0.051875,0.11675,-0.0073547503,-0.0013427499,0.0319825,-0.0355,-0.1515,0.097625,-0.0048979996,0.0425415,0.01835625,1741898227.209653
0.071625,0.070375,0.1185,-0.0059510004,-0.00057975,0.031845,-0.035875,-0.139,0.0805,-0.00514225,0.046371497,0.01950075,1741898227.226218
0.081625,0.11475,0.114125,-0.0036010002,0.00010675,0.02967825,-0.036,-0.134125,0.069375,-0.00302125,0.050903253,0.0212555,1741898227.239132
0.0875,0.12575,0.108875,-0.00062550005,0.00080875,0.0261535,-0.03675,-0.12475,0.051,-0.0020752498,0.05281075,0.02174375,1741898227.253851
0.09,0.13125,0.102875,0.0052795,0.001114,0.01756275,-0.035125,-0.12275,0.041,-0.00292975,0.057494998,0.022338752,1741898227.2686772
0.076,0.11875,0.103125,0.00643925,0.00045775,0.013290499,-0.025125,-0.11825,0.0215,-0.00469975,0.05929575,0.022491502,1741898227.287659
0.063125,0.11325,0.107375,0.00511175,-0.00042725,0.00708,-0.01825,-0.1145,0.011875,-0.009445249,0.061355498,0.0219575,1741898227.298032
0.050875,0.113875,0.117625,0.00328075,1.5250001e-05,0.0038299998,-0.00775,-0.104625,-0.0045,-0.011306751,0.06185925,0.0212555,1741898227.31275
0.053125,0.11725,0.123,6.1000002e-05,0.0028229998,-0.004013,-0.00425,-0.0995,-0.01325,-0.012085,0.061996497,0.02038575,1741898227.329611
0.068875,0.118375,0.128125,-0.0003205,0.0047912505,-0.008224499,0.003,-0.091,-0.032625,-0.010894749,0.060379002,0.01808175,1741898227.342106
0.075,0.111625,0.126,0.0002135,0.00665275,-0.012130749,0.006625,-0.0855,-0.0395,-0.009552,0.058548,0.016723748,1741898227.3567529
0.076125,0.103,0.123125,0.0013275,0.0088805,-0.01779175,0.010375,-0.0805,-0.043875,-0.0063325,0.0531615,0.0138702495,1741898227.371318
0.068125,0.08175,0.1185,0.00102225,0.0094604995,-0.01968375,0.019,-0.079125,-0.048875,-0.0050355,0.04957575,0.012619001,1741898227.386185
0.0635,0.070625,0.11475,-0.00042725,0.01065075,-0.022171,0.023875,-0.082,-0.0525,-0.0044555003,0.0414735,0.010681249,1741898227.401494
0.06,0.056625,0.10875,-0.00109875,0.011245751,-0.022949249,0.035125,-0.083125,-0.066125,-0.00485225,0.036743253,0.00953675,1741898227.415256
0.0595,0.05725,0.107,-0.00059500005,0.01222225,-0.0242005,0.041125,-0.08,-0.073625,-0.00444025,0.02560425,0.0061339997,1741898227.4298618
0.055875,0.062125,0.10725,0.00062550005,0.01257325,-0.02519225,0.05225,-0.07175,-0.082,-0.00292975,0.01927175,0.00408925,1741898227.446599
0.0525,0.061,0.1065,0.001831,0.01266475,-0.02630625,0.05525,-0.070375,-0.083125,0.00108325,0.0045625,-0.00024425,1741898227.459332
0.04825,0.060125,0.10825,0.004486,0.01239025,-0.0282745,0.05725,-0.071625,-0.078625,0.0023345,-0.0037537501,-0.0024872501,1741898227.474253
0.041125,0.048375,0.11,0.005783,0.012741,-0.02919,0.057875,-0.072875,-0.074375,0.00328075,-0.020446751,-0.0068665,1741898227.488936
0.04,0.040875,0.108875,0.00596625,0.01326,-0.02946475,0.056375,-0.077375,-0.065875,0.00381475,-0.028,-0.009155249,1741898227.506631
0.03825,0.03025,0.106875,0.00466925,0.013290499,-0.029022248,0.05325,-0.07975,-0.062,0.0055237496,-0.04069525,-0.01380925,1741898227.518446
0.037,0.024625,0.102625,0.00267025,0.0128785,-0.028244,0.041125,-0.085625,-0.0525,0.0062712496,-0.046157748,-0.01599125,1741898227.533386
0.035,0.009125,0.094,0.00213625,0.0123442495,-0.027542,0.031875,-0.0905,-0.046125,0.00614925,-0.055953998,-0.019577,1741898227.548138
0.033875,0.001,0.09,0.00169375,0.011535751,-0.02645875,0.011125,-0.101375,-0.035,0.00546275,-0.0603485,-0.020874001,1741898227.566895
0.03275,-0.006875,0.085125,0.00175475,0.0091705,-0.0228425,0.001875,-0.104625,-0.027625,0.0042267498,-0.06843575,-0.02278125,1741898227.577657
0.035125,-0.020125,0.073125,0.0019685,0.0075225,-0.02034,-0.01525,-0.112125,0.0035,0.0044250004,-0.07203675,-0.02357475,1741898227.5923378
0.038875,-0.0245,0.067125,0.00175475,0.00320425,-0.014618,-0.020625,-0.116875,0.019125,0.00665275,-0.075348,-0.02424625,1741898227.607119
0.04725,-0.03525,0.059125,0.00112925,0.00062550005,-0.0115967505,-0.02725,-0.1245,0.029875,0.008026,-0.07518,-0.024261499,1741898227.626302
0.04825,-0.04175,0.056625,-0.00193775,-0.005066,-0.00428775,-0.03175,-0.131875,0.03525,0.00845325,-0.074172996,-0.023819,1741898227.63681
0.044625,-0.04225,0.057,-0.00393675,-0.00794975,3.0500001e-05,-0.042375,-0.135,0.063375,0.0039215,-0.068161,-0.020752002,1741898227.651582
0.043125,-0.0355,0.06125,-0.00543225,-0.010559,0.00437925,-0.046125,-0.13475,0.086125,0.0017852499,-0.06372075,-0.01953125,1741898227.6667168
0.042625,-0.029375,0.0675,-0.00643925,-0.014297499,0.0123442495,-0.044875,-0.140125,0.11725,0.00131225,-0.05264275,-0.01832575,1741898227.6861608
0.045125,-0.02775,0.079875,-0.0065307496,-0.01548775,0.016265752,-0.04575,-0.146625,0.12075,0.0018615,-0.046554502,-0.017685,1741898227.696296
0.0465,-0.026625,0.087,-0.0068665,-0.01690675,0.024643,-0.055375,-0.164,0.125,0.0026092501,-0.03512575,-0.014846751,1741898227.711016
0.042,0.00075,0.111625,-0.0070495,-0.0168305,0.028244,-0.05975,-0.17125,0.12975,0.002472,-0.029419001,-0.012191749,1741898227.725827
0.039875,0.016,0.121125,-0.00614925,-0.014648501,0.03173825,-0.063,-0.175375,0.13525,0.0018615,-0.01640325,-0.0052642496,1741898227.740555
0.047375,0.031375,0.13525,-0.0054780003,-0.012909001,0.0329285,-0.063875,-0.17175,0.142,0.0022277501,-0.00880425,-0.001831,1741898227.755216
0.05275,0.039375,0.14175,-0.00531,-0.0106355,0.03424075,-0.059,-0.1675,0.142125,0.0036162501,0.0072175004,0.0036162501,1741898227.769758
0.059625,0.055625,0.1485,-0.00494375,-0.0049590003,0.03541575,-0.047,-0.16125,0.12975,0.00325,0.01513675,0.00564575,1741898227.78815
0.066625,0.056375,0.14175,-0.0033570002,-0.001953,0.03524775,-0.043625,-0.157,0.118,-0.00061025,0.02964775,0.009094249,1741898227.799198
0.07525,0.062625,0.1315,0.00331125,0.00245675,0.0349885,-0.03975,-0.149,0.09225,-0.0025025,0.0355225,0.01077275,1741898227.8138409
0.08425,0.0965,0.116375,0.00823975,0.0036315,0.03395075,-0.036875,-0.14675,0.08,-0.00396725,0.0433655,0.013992251,1741898227.8298619
0.083375,0.115125,0.111,0.017929,0.0049285004,0.027435249,-0.032125,-0.138,0.06625,-0.0035095,0.0448455,0.01548775,1741898227.8432472
0.0715,0.123,0.102375,0.0206145,0.0047912505,0.02250675,-0.031125,-0.133625,0.0605,-0.001892,0.04898075,0.017212,1741898227.8578508
0.06225,0.11575,0.099625,0.0211335,0.00408925,0.017578252,-0.026125,-0.127,0.04125,-0.00143425,0.05207825,0.017578252,1741898227.8727272
0.053875,0.106125,0.099875,0.0177155,0.0020905002,0.010238751,-0.02375,-0.125375,0.03125,-0.00062550005,0.055542,0.0183715,1741898227.887359
0.0525,0.096375,0.112375,0.0161895,0.0022125002,0.0076142503,-0.01975,-0.125625,0.011875,-0.00067150005,0.05587775,0.0189515,1741898227.905823
0.060875,0.09825,0.12025,0.0138855,0.0057220003,0.00115975,-0.0165,-0.1235,0.001625,-0.0038299998,0.05714425,0.019470248,1741898227.916682
0.08375,0.093625,0.12525,0.01115425,0.007782,-0.0026092501,-0.007,-0.10925,-0.0155,-0.0065307496,0.0582275,0.01905825,1741898227.9313622
0.09025,0.089375,0.122625,0.00352475,0.009903,-0.009231499,-0.0015,-0.10175,-0.020875,-0.00897225,0.05906675,0.01817325,1741898227.946367
0.08725,0.075375,0.1135,0.001068,0.00985725,-0.012176501,0.008625,-0.090375,-0.029875,-0.0102235,0.059433,0.01631175,1741898227.965568
0.082375,0.067125,0.108375,-0.0003205,0.009582501,-0.014724749,0.013,-0.087625,-0.034,-0.008636501,0.0585785,0.0153807495,1741898227.975501
0.07825,0.058375,0.10225,-0.00184625,0.00918575,-0.0183715,0.0165,-0.086375,-0.0405,-0.00239575,0.0538635,0.013198749,1741898227.990228
0.070375,0.038,0.092,-0.0026245,0.0085602505,-0.01924125,0.0245,-0.08625,-0.055875,-0.00030525,0.048950247,0.011550999,1741898228.006474
0.066375,0.03425,0.09,-0.00411975,0.00694275,-0.018875,0.02825,-0.086625,-0.060625,-0.00086975005,0.037902746,0.008636501,1741898228.019661
0.066875,0.03575,0.0815,-0.0049590003,0.00621025,-0.018859752,0.035375,-0.083625,-0.065625,-0.001114,0.03144825,0.0072937496,1741898228.034318
0.0705,0.037375,0.078375,-0.007019,0.00352475,-0.019439751,0.03925,-0.080375,-0.066125,-0.0007325,0.015518251,0.003769,1741898228.049066
0.072,0.04275,0.08025,-0.00798025,0.0016632499,-0.019927999,0.044,-0.07775,-0.065125,-0.00083925005,0.0074920002,0.001648,1741898228.066429
0.068125,0.046875,0.086125,-0.00862125,-9.15e-05,-0.0208435,0.04425,-0.079,-0.062375,-0.00059500005,-0.008133001,-0.0027312501,1741898228.0784729
0.055375,0.04,0.099875,-0.0072480002,-0.00263975,-0.0236665,0.043125,-0.082375,-0.053375,-0.00048825,-0.0154725,-0.004837,1741898228.0932422
0.048125,0.03525,0.108,-0.0062255003,-0.003296,-0.024261499,0.0425,-0.083625,-0.048125,-0.00035100002,-0.028686501,-0.008773751,1741898228.108008
0.041875,0.037375,0.115875,-0.005783,-0.00276175,-0.0237275,0.0385,-0.089875,-0.039875,0.0001525,-0.03439325,-0.010666001,1741898228.126325
0.038375,0.040625,0.11925,-0.0050965,-0.00175475,-0.02412425,0.0345,-0.09575,-0.037375,0.00157175,-0.043808,-0.013488751,1741898228.137354
0.039625,0.0325,0.11625,-0.00077825,7.625e-05,-0.025085501,0.024,-0.10375,-0.03225,0.0020599999,-0.04777525,-0.014389,1741898228.1522062
0.040375,0.00375,0.10625,0.0012970001,0.00059500005,-0.02436825,0.019,-0.10325,-0.029625,0.0024414998,-0.054443248,-0.01637275,1741898228.166881
0.04025,-0.010875,0.100875,0.0029907501,0.00051875,-0.02009575,0.008,-0.102125,-0.023,0.002777,-0.057494998,-0.017654499,1741898228.1860428
0.0405,-0.0315,0.092875,0.00276175,0.0,-0.0169525,0.000875,-0.103125,-0.012875,0.0043639997,-0.06375125,-0.019927999,1741898228.196471
0.040875,-0.0345,0.091,0.00190725,-0.00083925005,-0.013488751,-0.012625,-0.108625,0.013875,0.00579825,-0.066268995,-0.0206605,1741898228.2111418
0.0425,-0.034125,0.09,-0.00057975,-0.00331125,-0.00662225,-0.01775,-0.113625,0.025625,0.009002751,-0.06773375,-0.02015675,1741898228.226043
0.045125,-0.031875,0.091625,-0.00177,-0.0046845004,-0.0034484998,-0.023375,-0.124875,0.04375,0.010391249,-0.065887496,-0.019134501,1741898228.2407959
0.043875,-0.0305,0.093125,-0.0035704998,-0.00691225,0.002777,-0.027,-0.128875,0.05825,0.010894749,-0.0625915,-0.017746,1741898228.2556689
0.041125,-0.023625,0.09625,-0.0042572496,-0.0077210004,0.00590525,-0.034,-0.12825,0.093125,0.00982675,-0.0526275,-0.01664725,1741898228.2703722
0.041,-0.016125,0.098375,-0.0056609996,-0.008651749,0.01145925,-0.033625,-0.133625,0.09775,0.010788,-0.0467835,-0.016998248,1741898228.2882829
0.044125,0.00025,0.107625,-0.0064239996,-0.00874325,0.013549751,-0.03175,-0.15,0.0785,0.0139465,-0.0366975,-0.01655575,1741898228.3001301
0.045375,0.006625,0.11425,-0.0068055,-0.0073395,0.01678475,-0.03675,-0.156625,0.069125,0.01454175,-0.03312675,-0.0154115,1741898228.314859
0.048,0.013375,0.12425,-0.0061950004,-0.0061035,0.018158002,-0.044125,-0.165,0.0695,0.01145925,-0.026596,-0.0112305,1741898228.3306072
0.04975,0.01775,0.12825,-0.0056915004,-0.0047302498,0.01956175,-0.053375,-0.17725,0.1,0.0076295,-0.02177425,-0.0081025,1741898228.3458931
0.05275,0.024625,0.13075,-0.00460825,-0.00143425,0.022094749,-0.05525,-0.1755,0.112625,0.00071725,-0.008072,-0.0018005001,1741898228.359336
0.062125,0.036125,0.128375,-0.0032347501,0.0005035,0.022949249,-0.0525,-0.17525,0.102625,-0.000412,-0.00105275,0.000885,1741898228.374052
0.068,0.037625,0.122375,-0.0002595,0.003769,0.0242005,-0.048875,-0.177875,0.08875,-0.00039675,0.009872501,0.0065917503,1741898228.388934
0.079875,0.045375,0.105875,0.0019989999,0.00453175,0.0244445,-0.03725,-0.1625,0.07525,-0.0013275,0.014495751,0.009323,1741898228.406232
0.084375,0.053625,0.096,0.009292499,0.00384525,0.02297975,-0.03075,-0.144875,0.072125,-0.0043335,0.023346001,0.012267999,1741898228.418284
0.084375,0.0605,0.0845,0.01171875,0.002533,0.021362249,-0.021125,-0.121875,0.06125,-0.00491325,0.02699275,0.01245125,1741898228.432893
0.078875,0.06075,0.083875,0.01197825,0.00096125,0.01965325,-0.019625,-0.122375,0.058625,-0.0045165,0.032180753,0.0125885,1741898228.447635
0.07075,0.065625,0.085,0.008941749,-0.00251775,0.0153807495,-0.0175,-0.125625,0.04975,-0.00384525,0.033966,0.01307675,1741898228.4666638
0.054375,0.065875,0.094625,0.0072937496,-0.0041504996,0.012680001,-0.016625,-0.124375,0.04225,-0.001587,0.0341035,0.014145001,1741898228.4772348
0.049125,0.062375,0.1065,0.0052185003,-0.00453175,0.0085755,-0.016,-0.1205,0.02675,-0.00099175,0.0351105,0.014206001,1741898228.491887
0.052,0.067625,0.12875,0.00369275,-0.0029145,0.0070495,-0.013125,-0.119625,0.015625,-0.00193775,0.03825375,0.0138245,1741898228.506594
0.06075,0.07325,0.13275,-0.00096125,0.00112925,0.0034790002,-0.009125,-0.120625,0.00325,-0.00334175,0.038955748,0.01367175,1741898228.525711
0.07525,0.079375,0.1295,-0.0029907501,0.00263975,0.00146475,-0.0075,-0.120375,-0.000375,-0.00770575,0.039199747,0.013488751,1741898228.5364091
0.077125,0.080125,0.125875,-0.00411975,0.00399775,-0.00051875,-0.002,-0.1115,0.000125,-0.0102845,0.039917,0.013153,1741898228.550967
0.077375,0.079125,0.122375,-0.00355525,0.006302,-0.004776,0.002125,-0.105375,0.001125,-0.013137749,0.042861998,0.011688249,1741898228.566611
0.07625,0.069,0.115,-0.0024872501,0.0070647504,-0.0071409997,0.010375,-0.09875,-0.0025,-0.012832751,0.043975748,0.0110015,1741898228.580253
0.075,0.05975,0.110375,-0.00059500005,0.00747675,-0.010742251,0.012625,-0.099625,-0.00525,-0.011627249,0.04417425,0.01048275,1741898228.594899
0.0695,0.0325,0.097875,-0.00036625,0.0071409997,-0.01136775,0.015625,-0.10375,-0.01275,-0.007843,0.041214,0.009734999,1741898228.609571
0.064,0.027,0.092875,-0.001587,0.0055237496,-0.00941475,0.0185,-0.10425,-0.018625,-0.00564575,0.03781125,0.00891125,1741898228.6264
0.058125,0.035625,0.09025,-0.001953,0.004776,-0.008727999,0.02275,-0.104,-0.02525,-0.001831,0.02967825,0.0064239996,1741898228.639092
0.06075,0.0405,0.092,-0.0019685,0.00444025,-0.009155249,0.030625,-0.099625,-0.03675,-0.00071725,0.02604675,0.00546275,1741898228.653682
0.065875,0.043875,0.09375,-0.00010675,0.0038605002,-0.011383001,0.0335,-0.096,-0.039375,0.00029,0.017807,0.00354,1741898228.6681652
0.07425,0.04425,0.09175,0.00024425,0.00317375,-0.0123595,0.036,-0.0925,-0.041625,0.000763,0.01278675,0.00231925,1741898228.6859689
0.072625,0.04125,0.093,-0.00027475,0.001419,-0.0134735005,0.036125,-0.09325,-0.041375,0.0014495,0.00096125,-0.0007325,1741898228.6974962
0.06,0.040875,0.099,-7.625e-05,0.0008545,-0.013839751,0.037625,-0.095125,-0.0385,0.001007,-0.0055237496,-0.002365,1741898228.712139
0.053875,0.04,0.10575,0.00065625,0.00070200005,-0.0148925,0.038125,-0.09475,-0.035875,-0.00029,-0.017746,-0.0054475004,1741898228.726947
0.049,0.03625,0.11825,0.0002595,0.001236,-0.0153807495,0.03525,-0.094875,-0.03,-9.15e-05,-0.023285,-0.0070342496,1741898228.741792
0.050625,0.03325,0.117875,-0.0005645,0.00187675,-0.015808,0.03175,-0.097625,-0.027375,0.0023039998,-0.032776,-0.0099639995,1741898228.7564611
0.05325,0.02775,0.114125,-0.0013885,0.0025634998,-0.01579275,0.023125,-0.104,-0.023,0.003769,-0.03654475,-0.011078,1741898228.771165
0.054375,0.016125,0.10425,-0.0018005001,0.00242625,-0.0150605,0.018625,-0.107125,-0.01925,0.00485225,-0.042785753,-0.013122501,1741898228.7895072
0.05225,0.013,0.100375,-0.001953,0.00143425,-0.013153,0.0115,-0.10725,-0.007625,0.0043182503,-0.0454255,-0.014221249,1741898228.800569
0.051375,0.005625,0.09275,-0.00119025,0.00077825,-0.0122985,0.0075,-0.10575,0.00075,0.0043182503,-0.049606252,-0.01617425,1741898228.8152802
0.052125,0.00225,0.090625,0.00057975,-0.00074775,-0.0100707505,-0.004125,-0.109,0.025625,0.00570675,-0.05116275,-0.016693002,1741898228.83024
0.0545,-0.0075,0.0895,0.0012207499,-0.0016632499,-0.0086975,-0.009625,-0.11575,0.039125,0.0095672505,-0.05184925,-0.0149995005,1741898228.8478
0.054875,-0.013,0.090375,0.00068675,-0.00384525,-0.0050965,-0.00975,-0.12625,0.054,0.010513251,-0.048095748,-0.013290499,1741898228.859803
0.050875,-0.015375,0.090875,-0.000229,-0.0048979996,-0.0027465,-0.009125,-0.123625,0.049875,0.010894749,-0.042175252,-0.0125275,1741898228.874719
0.049125,-0.01325,0.090375,-0.001175,-0.00585925,-0.00033575002,-0.019,-0.1315,0.0415,0.01165775,-0.034134,-0.013183501,1741898228.889429
0.04875,-0.009375,0.090125,-0.0027160002,-0.00744625,0.00434875,-0.025,-0.14025,0.047,0.01086425,-0.032074,-0.012924249,1741898228.905822
0.05075,0.0045,0.095125,-0.00328075,-0.007965,0.0063477503,-0.03175,-0.153875,0.07225,0.006546,-0.026672252,-0.010604749,1741898228.919339
0.050875,0.0125,0.101125,-0.0037079998,-0.008407501,0.00903325,-0.031875,-0.157625,0.0785,0.004547,-0.022369498,-0.00889575,1741898228.934162
0.047875,0.02475,0.113125,-0.003296,-0.0080415,0.009734999,-0.03225,-0.16175,0.0725,0.0033875,-0.013214,-0.0050355,1741898228.948802
0.046,0.029875,0.1155,-0.0020752498,-0.0067597497,0.010314999,-0.032875,-0.164875,0.0655,0.003891,-0.0093995,-0.0029145,1741898228.9660401
0.044,0.036875,0.116625,-0.001526,-0.00611875,0.01033025,-0.03275,-0.1655,0.063875,0.00352475,-0.0033264998,0.0016175,1741898228.978081
0.042875,0.037375,0.12175,-0.000946,-0.0045165,0.0099945,-0.031375,-0.15425,0.073625,0.0025634998,-1.5250001e-05,0.0035704998,1741898228.992775
0.045,0.033,0.13575,-0.000885,-0.003128,0.00991825,-0.031125,-0.151,0.074125,0.000763,0.00782775,0.0065307496,1741898229.007236
0.050875,0.03225,0.141875,-0.0005035,-0.0013427499,0.010314999,-0.027125,-0.15,0.06575,-0.00068675,0.012039251,0.00798025,1741898229.026342
0.059875,0.037625,0.14475,0.0012970001,0.0033875,0.012039251,-0.02225,-0.1465,0.062375,-0.0045777503,0.019897498,0.0104674995,1741898229.0365791
0.083625,0.041,0.127,0.002365,0.0057220003,0.012420749,-0.012,-0.133625,0.061625,-0.0059815003,0.02330025,0.0110015,1741898229.051264
0.0935,0.0395,0.10925,0.0055695,0.0072632497,0.012329,-0.0105,-0.129625,0.06125,-0.0059205,0.02864075,0.011078,1741898229.066113
0.092,0.03525,0.087125,0.0077972496,0.0061339997,0.012054499,-0.01375,-0.134875,0.048125,-0.0050965,0.03025825,0.011383001,1741898229.080723
0.082375,0.034,0.087375,0.009002751,0.00463875,0.011795,-0.01725,-0.13975,0.041125,-0.0054015,0.03256225,0.01339725,1741898229.095274
0.07425,0.03975,0.08875,0.00671375,0.00201425,0.01077275,-0.014125,-0.134625,0.024875,-0.00737,0.03492725,0.014297499,1741898229.109895
0.068375,0.058125,0.084625,0.0051269997,0.00062550005,0.00889575,-0.00975,-0.127,0.02,-0.012252751,0.039169252,0.01452625,1741898229.125814
0.067375,0.055375,0.08175,0.0033722501,-0.00263975,0.0043639997,-0.004375,-0.116,0.014875,-0.0138855,0.041564997,0.0142365,1741898229.139437
0.06125,0.045,0.09,0.0031889998,-0.0037385002,0.0030975002,-0.003875,-0.11575,0.01225,-0.01504525,0.047668498,0.014510999,1741898229.154233
0.05925,0.046,0.099875,0.0024872501,-0.00317375,0.0014037499,-0.001375,-0.111875,0.0095,-0.0151215,0.05072025,0.01469425,1741898229.168789
0.070625,0.052125,0.115125,0.0012207499,-0.00193775,7.625e-05,0.00125,-0.110625,0.007625,-0.01463325,0.052673247,0.014297499,1741898229.1860569
0.08,0.05375,0.119,-0.00065625,-0.00067150005,-0.00137325,0.003875,-0.110375,0.003,-0.013046251,0.05337525,0.014145001,1741898229.197792
0.084375,0.05825,0.121625,-0.0036162501,0.0013275,-0.0038605002,0.01225,-0.107375,-0.008375,-0.011535751,0.05099475,0.0143737495,1741898229.212425
0.0785,0.0555,0.121625,-0.00334175,0.0023345,-0.0053252503,0.019625,-0.10425,-0.014875,-0.00617975,0.041869998,0.0137635,1741898229.227062
0.072375,0.043625,0.118,-0.0016785001,0.00384525,-0.00697325,0.031,-0.099625,-0.027875,-0.0038757501,0.037231497,0.0128785,1741898229.241843
0.061,0.02425,0.105125,-0.00190725,0.004013,-0.00668325,0.0345,-0.098125,-0.033625,-0.00143425,0.0273285,0.010681249,1741898229.256268
0.05825,0.022875,0.09975,-0.00393675,0.0033570002,-0.00555425,0.04125,-0.095375,-0.042,-0.001114,0.02162175,0.0094604995,1741898229.270859
0.06025,0.030625,0.091,-0.0046845004,0.0028074998,-0.00561525,0.044375,-0.09375,-0.04325,-0.001831,0.008941749,0.0061950004,1741898229.289601
0.063625,0.0355,0.0875,-0.00517275,0.0007935,-0.007187,0.04625,-0.092375,-0.04125,-0.00245675,0.00228875,0.0041810004,1741898229.3002748
0.068375,0.0375,0.085625,-0.0054015,-0.0007325,-0.0081025,0.046,-0.0915,-0.039125,-0.00402825,-0.0110015,0.00033575002,1741898229.314954
0.066625,0.037375,0.087875,-0.005539,-0.00204475,-0.008712751,0.046375,-0.088375,-0.032875,-0.00494375,-0.01705925,-0.00154125,1741898229.3297842
0.062,0.04,0.09075,-0.0050355,-0.0039215,-0.00953675,0.04525,-0.089125,-0.02925,-0.0054932497,-0.02719125,-0.0052185003,1741898229.3464901
0.05275,0.041125,0.1025,-0.00505075,-0.0046539996,-0.010101249,0.039,-0.0945,-0.021875,-0.0047455,-0.0312805,-0.0067445002,1741898229.359484
0.051375,0.03825,0.10525,-0.00611875,-0.0052795,-0.01098625,0.0345,-0.09825,-0.01725,-0.00245675,-0.037963748,-0.00912475,1741898229.374283
0.0505,0.034375,0.106125,-0.0068512503,-0.0054932497,-0.01095575,0.025875,-0.10325,-0.001,-0.0013427499,-0.0410155,-0.0101775,1741898229.389148
0.049125,0.03275,0.107625,-0.0068207504,-0.005783,-0.010727,0.02225,-0.1045,0.00825,0.00115975,-0.046737753,-0.01216125,1741898229.4057112
0.04825,0.023,0.10925,-0.00611875,-0.005783,-0.010666001,0.01475,-0.105125,0.0235,0.003662,-0.049286,-0.013153,1741898229.418538
0.049375,0.015125,0.10625,-0.0051880004,-0.0058287503,-0.0102235,0.011,-0.105625,0.0295,0.00720225,-0.0516205,-0.01419075,1741898229.433096
0.05175,0.002,0.097,-0.0037995,-0.0065307496,-0.00770575,0.002625,-0.111625,0.037625,0.0141145,-0.054397497,-0.015579251,1741898229.447702
0.049625,0.00075,0.097375,-0.0038757501,-0.007187,-0.0056915004,-0.00175,-0.11725,0.036375,0.0163575,-0.05461125,-0.01510625,1741898229.4665768
0.046,0.000875,0.100875,-0.0047455,-0.008209251,-0.00184625,-0.003375,-0.11975,0.034875,0.019134501,-0.054901,-0.012085,1741898229.477185
0.041125,-0.000125,0.110375,-0.005005,-0.00839225,-7.625e-05,-0.007875,-0.132875,0.0415,0.01855475,-0.05239875,-0.0111085,1741898229.49198
0.040125,0.00175,0.112375,-0.0050965,-0.0086975,0.00419625,-0.0125,-0.13175,0.045375,0.012313751,-0.04040525,-0.011078,1741898229.506801
0.0385,0.011125,0.113375,-0.00520325,-0.0089875,0.0065002497,-0.02325,-0.130375,0.06325,0.00968925,-0.035827752,-0.0117035,1741898229.526369
0.03675,0.018375,0.11275,-0.0048217503,-0.00953675,0.010314999,-0.02625,-0.134625,0.074,0.0061339997,-0.02908325,-0.0112,1741898229.5364292
0.030875,0.0315,0.112,-0.0041810004,-0.009552,0.01115425,-0.0305,-0.14475,0.089,0.0042115003,-0.02513125,-0.010238751,1741898229.5512252
0.026625,0.035375,0.11325,-0.0033570002,-0.009292499,0.011383001,-0.032125,-0.148875,0.09025,0.00193775,-0.015915,-0.00723275,1741898229.5662022
0.024125,0.034375,0.116625,-0.00137325,-0.00798025,0.0114440005,-0.031875,-0.1595,0.07325,0.00204475,-0.011810251,-0.0053709997,1741898229.5808058
0.028125,0.0235,0.126125,-0.00051875,-0.0068969997,0.0119934995,-0.032625,-0.160625,0.071,0.0016785001,-0.004837,-0.00137325,1741898229.5956569
0.031125,0.024125,0.13025,-0.00019825,-0.0049590003,0.01440425,-0.030875,-0.153125,0.076125,0.00096125,-0.0012055,0.00074775,1741898229.610272
0.0355,0.031125,0.1315,-0.000412,-0.0037995,0.015533499,-0.02625,-0.145125,0.0775,-0.00048825,0.005783,0.0041810004,1741898229.626367
0.03825,0.032375,0.125375,-0.00093075,-0.0017242499,0.01725775,-0.02125,-0.1355,0.07425,-0.00070200005,0.0090637505,0.005249,1741898229.639724
0.044875,0.02825,0.1085,-0.0011445,-0.00148,0.01817325,-0.02125,-0.13675,0.068875,-0.0017242499,0.01554875,0.0068665,1741898229.654374
0.0465,0.027125,0.105625,-0.000183,-0.00190725,0.02015675,-0.021,-0.13725,0.060375,-0.0029145,0.01852425,0.00770575,1741898229.66923
0.048375,0.0445,0.111625,0.00042725,-0.00201425,0.02082825,-0.01875,-0.13425,0.058375,-0.00555425,0.02371225,0.009002751,1741898229.685986
0.05325,0.060875,0.115375,0.00157175,-0.0017852499,0.0209655,-0.011875,-0.126625,0.056375,-0.0061339997,0.025360001,0.009430001,1741898229.698905
0.059875,0.074875,0.1175,0.0069885002,-0.00010675,0.01911925,-0.00975,-0.125875,0.0535,-0.0061035,0.0282745,0.00997925,1741898229.713703
0.069,0.079375,0.116375,0.009384249,0.00074775,0.01756275,-0.006,-0.12875,0.0395,-0.006775,0.03028875,0.0100555,1741898229.7283032
0.069625,0.075375,0.115625,0.008727999,0.0012970001,0.014419501,-0.005125,-0.129375,0.033625,-0.0100555,0.033081003,0.01036075,1741898229.742965
0.066,0.07125,0.111125,0.00720225,0.001114,0.0127105,-0.004,-0.129375,0.029125,-0.012085,0.03363025,0.0106355,1741898229.757678
0.063625,0.06675,0.10675,0.00367725,0.000183,0.009796251,-0.0015,-0.12775,0.027125,-0.01445,0.034256,0.010757499,1741898229.7722921
0.055,0.065875,0.097,0.00131225,-0.00039675,0.009292499,0.002625,-0.1235,0.02475,-0.01994325,0.036422748,0.01036075,1741898229.7893078
0.049375,0.07775,0.096125,-0.0008545,-0.00083925005,0.00845325,0.011125,-0.111375,0.02025,-0.02183525,0.03787225,0.010024999,1741898229.8050728
0.046375,0.08875,0.100125,-0.0023039998,-0.0005645,0.0023497501,0.01475,-0.106375,0.017125,-0.02182,0.0405885,0.0091705,1741898229.81644
0.051125,0.090875,0.116625,-0.00154125,0.00036625,-0.0017395001,0.016375,-0.109,0.009875,-0.0202485,0.04116825,0.009079001,1741898229.831009
0.0555,0.084625,0.123125,0.0003815,0.00270075,-0.0078735,0.017,-0.109875,0.007125,-0.015564,0.040069498,0.009079001,1741898229.846666
0.061,0.071375,0.13125,0.00074775,0.0037385002,-0.009445249,0.023,-0.106875,0.005,-0.013564999,0.03958125,0.008727999,1741898229.8601851
0.06175,0.06575,0.132,0.0002595,0.0062407497,-0.010559,0.025625,-0.104,0.003125,-0.01127625,0.03677375,0.00918575,1741898229.874733
0.062875,0.05875,0.126625,-0.000534,0.0074615004,-0.010803251,0.032375,-0.099375,-0.00225,-0.010681249,0.0330505,0.0094604995,1741898229.889353
0.06275,0.056625,0.121625,-0.0015105,0.008346501,-0.0112915,0.037125,-0.097,-0.0055,-0.010162249,0.0231475,0.0080567505,1741898229.906292
0.06125,0.05725,0.11725,-0.003128,0.0091095,-0.013092,0.043,-0.09125,-0.0125,-0.00935375,0.01737975,0.0064850003,1741898229.918699
0.0555,0.06725,0.112375,-0.0034942501,0.0091705,-0.014510999,0.04375,-0.090625,-0.01525,-0.00611875,0.0053709997,0.00296025,1741898229.9333088
0.052625,0.068875,0.113125,-0.0042267498,0.009094249,-0.01823425,0.044,-0.0905,-0.015625,-0.0043335,-0.00016775,0.0013885,1741898229.948043
0.048125,0.06575,0.12225,-0.0040435,0.009262,-0.01991275,0.043125,-0.0905,-0.01375,-0.00204475,-0.00997925,-0.00137325,1741898229.9661021
0.046,0.065375,0.128375,-0.00204475,0.010879501,-0.02259825,0.04,-0.088375,-0.005375,-0.0013427499,-0.01445,-0.0027160002,1741898229.977893
0.043,0.055625,0.128125,-0.00059500005,0.012039251,-0.02412425,0.0375,-0.089,-0.000125,0.00068675,-0.02250675,-0.0056609996,1741898229.992725
0.043125,0.041,0.120625,0.00090025004,0.012832751,-0.025406,0.03025,-0.096125,0.01325,0.0018005001,-0.0258025,-0.0068055,1741898230.0072699
0.043125,0.026875,0.112375,0.00270075,0.012771499,-0.025085501,0.027125,-0.099,0.022375,0.0030365,-0.028656,-0.0076142503,1741898230.025846
0.04075,0.01325,0.100375,0.0027312501,0.012176501,-0.02386475,0.02425,-0.10125,0.038625,0.00665275,-0.03353875,-0.008926501,1741898230.036594
0.04,0.00875,0.096375,0.00292975,0.010376001,-0.021408001,0.023,-0.101125,0.04375,0.009017999,-0.03492725,-0.009445249,1741898230.0514188
0.0395,-0.001375,0.091,0.00305175,0.00924675,-0.019927999,0.02175,-0.101625,0.0455,0.015594499,-0.036941502,-0.008667,1741898230.066069
0.0385,-0.00425,0.08925,0.00305175,0.00688175,-0.01599125,0.020875,-0.102375,0.044375,0.019134501,-0.038390998,-0.00767525,1741898230.0867682
0.037625,-0.008125,0.084875,0.00320425,0.0057525,-0.01374825,0.014625,-0.11325,0.041,0.02360525,-0.03752125,-0.008224499,1741898230.0975418
0.0385,-0.011375,0.082125,0.0035095,0.004547,-0.01127625,0.010875,-0.12125,0.0405,0.023773251,-0.035431,-0.009872501,1741898230.11236
0.0405,-0.016625,0.07825,0.00354,0.00175475,-0.00564575,0.01,-0.132375,0.031875,0.0222625,-0.0345,-0.010238751,1741898230.127249
0.040375,-0.01775,0.0785,0.0029907501,0.000122000005,-0.00263975,0.009375,-0.1325,0.0285,0.0197295,-0.033264253,-0.01065075,1741898230.1461911
0.039625,-0.01725,0.079875,0.00051875,-0.00331125,0.0030975002,-0.00575,-0.132375,0.0415,0.014389,-0.030151252,-0.010894749,1741898230.1568031
0.036,-0.0085,0.084,-0.00112925,-0.0050355,0.0058135,-0.01475,-0.140875,0.056,0.012557999,-0.02778625,-0.009903,1741898230.1717288
0.031875,0.000125,0.08925,-0.0034637498,-0.0078125,0.0106355,-0.02025,-0.151875,0.082125,0.007019,-0.020019501,-0.006012,1741898230.1864178
0.030375,0.007625,0.0955,-0.00372325,-0.008545,0.0127105,-0.019625,-0.152,0.083375,0.003891,-0.015029999,-0.0039825,1741898230.20138
0.032875,0.011,0.095125,-0.0041044997,-0.0093995,0.01681525,-0.017625,-0.15425,0.075875,6.1000002e-05,-0.0060425,-0.000473,1741898230.21608
0.034375,0.021625,0.09125,-0.0047607496,-0.010009751,0.018127501,-0.012,-0.155,0.061,-0.001236,-0.0028229998,0.00148,1741898230.230817
0.03325,0.02275,0.09175,-0.0058135,-0.010879501,0.0188445,-0.008875,-0.14925,0.06125,-0.0022125002,0.00204475,0.00514225,1741898230.248924
0.032625,0.021625,0.094375,-0.00830075,-0.012695249,0.019867001,-0.004125,-0.13875,0.07025,-0.00245675,0.0044250004,0.0062712496,1741898230.260182
0.037625,0.0245,0.100625,-0.0089875,-0.013382,0.020523,-0.003125,-0.135375,0.070375,-0.0039825,0.0097045,0.0077972496,1741898230.274845
0.042375,0.03175,0.101,-0.00845325,-0.014510999,0.02149975,-0.002625,-0.131125,0.0595,-0.00491325,0.012085,0.0085755,1741898230.290522
0.0505,0.042375,0.09625,-0.00770575,-0.015396,0.0215455,-0.002125,-0.13,0.057,-0.00646975,0.01586925,0.009887749,1741898230.305631
0.051,0.039875,0.097125,-0.0059205,-0.017685,0.022064252,0.000625,-0.124625,0.057375,-0.0069885002,0.01756275,0.010101249,1741898230.3190138
0.042125,0.04175,0.108125,-0.0051880004,-0.01838675,0.022491502,0.00175,-0.123625,0.055625,-0.00720225,0.0203705,0.009887749,1741898230.3336341
0.039,0.0495,0.113125,-0.0038757501,-0.01820375,0.02247625,0.00175,-0.129,0.044875,-0.00741575,0.02114875,0.0099639995,1741898230.348331
0.04375,0.075125,0.129,-0.0024414998,-0.01737975,0.02171325,0.00175,-0.131875,0.041125,-0.0094604995,0.022033751,0.011123749,1741898230.3660002
0.051125,0.08725,0.137375,-0.0005645,-0.01596075,0.02034,0.007,-0.12725,0.0365,-0.0112,0.0226745,0.011764499,1741898230.377676
0.060625,0.09725,0.142375,0.00369275,-0.012176501,0.01608275,0.01125,-0.12075,0.036,-0.01510625,0.0249175,0.011825499,1741898230.392212
0.07075,0.09325,0.14375,0.00520325,-0.01026925,0.013702501,0.020375,-0.10825,0.032375,-0.01670825,0.026092501,0.011245751,1741898230.4067142
0.067125,0.08725,0.143625,0.0036315,-0.006775,0.010391249,0.0225,-0.105375,0.030625,-0.017624,0.026840251,0.010498,1741898230.426225
0.057625,0.086625,0.138375,0.00115975,-0.00520325,0.008788999,0.023375,-0.104,0.026,-0.01728825,0.027557248,0.00968925,1741898230.4357219
0.054,0.08875,0.131375,-0.0021515,-0.0023345,0.00511175,0.024125,-0.103125,0.025125,-0.01675425,0.02778625,0.009582501,1741898230.45018
0.043375,0.093625,0.118125,-0.002121,-0.00102225,0.00283825,0.026625,-0.09975,0.02475,-0.015808,0.02819825,0.009079001,1741898230.467464
0.03975,0.091125,0.115125,-0.0012817499,0.000229,3.0500001e-05,0.032625,-0.09275,0.021875,-0.0148772495,0.028366,0.00846875,1741898230.4793239
0.039375,0.084875,0.1165,0.00109875,0.0025025,-0.0058135,0.031625,-0.096625,0.022875,-0.011016751,0.026672252,0.0070495,1741898230.493812
0.047375,0.065125,0.124375,0.0017395001,0.0036315,-0.007904,0.035625,-0.10225,0.017875,-0.009521499,0.02471925,0.006607,1741898230.5085042
0.05125,0.059875,0.12675,0.0002595,0.00579825,-0.009216251,0.039875,-0.099625,0.014375,-0.008148249,0.02038575,0.0058899997,1741898230.527369
0.054,0.065125,0.127625,-0.00061025,0.0068665,-0.009262,0.0475,-0.082375,0.012125,-0.0070037497,0.018097,0.0051269997,1741898230.537715
0.054375,0.0645,0.126625,-0.00093075,0.00897225,-0.01033025,0.049125,-0.076875,0.01075,-0.0023039998,0.011764499,0.002365,1741898230.552296
0.054875,0.055125,0.121,-0.0012817499,0.009781,-0.01086425,0.048875,-0.08075,0.003875,0.000534,0.00767525,0.00093075,1741898230.566723
0.052375,0.05675,0.116875,-0.0015565,0.010391249,-0.011123749,0.048625,-0.08425,0.0005,0.0039825,-0.0010375,-0.00157175,1741898230.581836
0.0475,0.06125,0.116125,-6.1000002e-05,0.011306751,-0.012207,0.047875,-0.08725,-0.001125,0.00434875,-0.00541675,-0.0027465,1741898230.596092
0.04,0.065375,0.117875,0.00105275,0.011535751,-0.013321,0.046625,-0.089,0.000125,0.00428775,-0.00962825,-0.00393675,1741898230.610686
0.039375,0.068,0.12175,0.0037537501,0.01248175,-0.015808,0.04475,-0.09125,0.001625,0.00463875,-0.017028749,-0.0061950004,1741898230.626673
0.039625,0.064,0.125125,0.00541675,0.01367175,-0.016876249,0.041,-0.094625,0.008,0.0053709997,-0.0204315,-0.00720225,1741898230.6401742
0.03925,0.057625,0.1215,0.0070952503,0.015625,-0.01823425,0.03825,-0.096125,0.012125,0.008361749,-0.027359,-0.009552,1741898230.654818
0.037375,0.040375,0.112,0.006363,0.01586925,-0.018463248,0.0315,-0.099625,0.014,0.01086425,-0.0308075,-0.010818499,1741898230.6695192
0.034375,0.037375,0.108875,0.0049285004,0.0158385,-0.01841725,0.028875,-0.1,0.012,0.017028749,-0.0375825,-0.012909001,1741898230.6868658
0.03125,0.03625,0.1065,0.002472,0.0153502505,-0.018615749,0.02375,-0.10375,0.012375,0.019439751,-0.04072575,-0.013564999,1741898230.698808
0.030125,0.028125,0.1025,0.0020905002,0.015075751,-0.0189515,0.018875,-0.110875,0.01775,0.0217285,-0.044754002,-0.0125275,1741898230.713632
0.032375,0.01975,0.098125,0.00270075,0.014282251,-0.018219,0.010375,-0.122375,0.039,0.021988,-0.04544075,-0.01095575,1741898230.7286038
0.039,0.007,0.08725,0.0034484998,0.013000499,-0.01646425,0.011,-0.1245,0.048,0.020599252,-0.0420685,-0.009155249,1741898230.74281
0.04125,0.00325,0.082625,0.0037995,0.008606,-0.01197825,0.014375,-0.12275,0.04775,0.0190735,-0.0384675,-0.00935375,1741898230.7576032
0.04125,-0.003,0.074625,0.0032347501,0.0059967497,-0.009781,0.010125,-0.121,0.045625,0.017807,-0.03297425,-0.01077275,1741898230.772299
0.04,-0.004625,0.074125,0.0026092501,0.00340275,-0.007553,-0.006125,-0.133375,0.0625,0.01811225,-0.03111275,-0.010727,1741898230.787064
0.039375,-0.00475,0.077,0.002243,-0.00115975,-0.00308225,-0.011625,-0.144125,0.072125,0.0170745,-0.02534475,-0.008407501,1741898230.8058429
0.039875,-0.00475,0.086,0.00239575,-0.00308225,-0.001007,-0.017,-0.160625,0.08275,0.015304499,-0.0213165,-0.0065002497,1741898230.816698
0.0405,-0.00325,0.087875,0.0015565,-0.00643925,0.00334175,-0.017,-0.164875,0.082625,0.01036075,-0.01194775,-0.0020752498,1741898230.8314471
0.041875,0.002375,0.087375,0.00036625,-0.008026,0.0056915004,-0.014125,-0.16975,0.0745,0.00770575,-0.00737,0.00029,1741898230.846829
0.04125,0.0055,0.087625,-0.00204475,-0.010391249,0.0101775,-0.01275,-0.169,0.07225,0.0021972498,0.000534,0.00488275,1741898230.861134
0.042625,0.00975,0.099,-0.00302125,-0.01092525,0.01200875,-0.0085,-0.159125,0.074375,-0.00048825,0.0040435,0.00672925,1741898230.87534
0.043625,0.013875,0.108375,-0.00393675,-0.01091,0.013488751,-0.006,-0.153875,0.073375,-0.0032195,0.007431,0.00801075,1741898230.8900712
0.045875,0.021125,0.125625,-0.0051269997,-0.00935375,0.0153807495,-0.004125,-0.149875,0.07,-0.01020825,0.01408375,0.009323,1741898230.9058838
0.04675,0.024375,0.134,-0.0052947504,-0.0079345,0.016296498,0.00125,-0.137375,0.0605,-0.013717749,0.017135499,0.009734999,1741898230.919327
0.047375,0.03025,0.140375,-0.0050812503,-0.004013,0.018127501,0.003625,-0.13025,0.058125,-0.01716625,0.02189625,0.010147001,1741898230.933934
0.050875,0.04125,0.142375,-0.0046539996,-0.001709,0.018585252,0.007,-0.12475,0.05425,-0.01675425,0.02371225,0.0103455,1741898230.9484851
0.05625,0.040375,0.137125,-0.0021972498,0.0028229998,0.019439751,0.010625,-0.12175,0.05075,-0.014587499,0.026855499,0.01048275,1741898230.9655309
0.068625,0.040625,0.118625,-0.0001525,0.0044555003,0.020049999,0.016625,-0.119,0.04,-0.0134735005,0.02807625,0.010376001,1741898230.977684
0.071125,0.046,0.107625,0.0045777503,0.00535575,0.020401,0.01725,-0.120875,0.03375,-0.011795,0.02940375,0.011169501,1741898230.992188
0.0655,0.0635,0.096375,0.0072175004,0.0048674997,0.01965325,0.016375,-0.1125,0.03375,-0.01165775,0.030181998,0.01177975,1741898231.0067148
0.058875,0.068875,0.097125,0.00862125,0.00411975,0.018127501,0.016,-0.105625,0.035875,-0.0099639995,0.033462502,0.012207,1741898231.0250611
0.05375,0.0715,0.097375,0.00723275,0.0021972498,0.0139770005,0.01525,-0.1095,0.032375,-0.0080415,0.035705503,0.0125275,1741898231.035926
0.0465,0.078875,0.097125,0.005844,0.001007,0.011550999,0.015,-0.11375,0.026875,-0.0053709997,0.040893503,0.014434749,1741898231.050493
0.044375,0.076625,0.098375,0.0037079998,-0.0008545,0.0065612504,0.0175,-0.112125,0.00925,-0.00535575,0.041793752,0.015152001,1741898231.066043
0.043,0.065125,0.109375,0.00354,-0.000946,0.00485225,0.029375,-0.088,-0.00225,-0.0071409997,0.04116825,0.014724749,1741898231.0797598
0.044875,0.06325,0.118,0.00331125,-0.00030525,0.0037537501,0.030125,-0.073625,0.00175,-0.0085602505,0.043335,0.012557999,1741898231.0942101
0.049875,0.065125,0.1265,0.0016175,0.00279225,0.00201425,0.03,-0.092625,0.018125,-0.00662225,0.04245,0.013931249,1741898231.1087182
0.062375,0.07175,0.1355,0.00059500005,0.00466925,0.00077825,0.039875,-0.09775,0.0075,-0.008865249,0.032043498,0.01367175,1741898231.12597
0.06675,0.06975,0.134875,-1.5250001e-05,0.0079955,-0.00225825,0.046125,-0.098375,-0.00975,-0.010681249,0.02636725,0.0119934995,1741898231.137856
0.06725,0.058375,0.12575,0.0001525,0.0091705,-0.00331125,0.0505,-0.092125,-0.009,-0.012207,0.017883249,0.008377,1741898231.152459
0.06475,0.052375,0.117125,-0.00013725001,0.010299751,-0.00402825,0.059375,-0.073,-0.00275,-0.009811499,0.013183501,0.0056304997,1741898231.167103
0.058375,0.050125,0.102375,-0.00080875,0.010238751,-0.004242,0.0615,-0.069875,-0.005625,0.00096125,0.00163275,9.15e-05,1741898231.181717
0.057375,0.054625,0.098375,-0.00131225,0.0099945,-0.00488275,0.061625,-0.072875,-0.012125,0.00396725,-0.0048065,-0.0022277501,1741898231.1964731
0.062875,0.061,0.0945,-0.0022277501,0.009277251,-0.00794975,0.0615,-0.072,-0.012625,0.00358575,-0.015747,-0.0070495,1741898231.211309
0.066875,0.06175,0.0935,-0.00228875,0.008850001,-0.009719751,0.059625,-0.07075,-0.008,0.00289925,-0.0198365,-0.00976575,1741898231.229027
0.067875,0.064,0.093625,-0.0013580001,0.00794975,-0.012375,0.05575,-0.075,-0.004625,0.004837,-0.0262145,-0.014846751,1741898231.240791
0.061375,0.0605,0.09825,-0.001175,0.00738525,-0.01351925,0.044875,-0.08625,0.00225,0.0070647504,-0.029022248,-0.01705925,1741898231.2554471
0.0575,0.055125,0.105,-0.0014037499,0.00741575,-0.015518251,0.039875,-0.088125,0.00525,0.012039251,-0.03445425,-0.02076725,1741898231.270617
0.0515,0.05125,0.111875,-0.00154125,0.00798025,-0.01652525,0.0295,-0.087375,0.00475,0.015915,-0.037658747,-0.0223235,1741898231.285985
0.0495,0.05075,0.107375,-0.0018615,0.00830075,-0.01841725,0.025875,-0.088625,0.00175,0.020599252,-0.041320752,-0.02371225,1741898231.299456
0.0515,0.037,0.090625,-0.00175475,0.007843,-0.01899725,0.01675,-0.100375,-0.00225,0.02854925,-0.048462003,-0.025528,1741898231.3142312
0.051875,0.03025,0.08575,-0.0015565,0.00712575,-0.01908875,0.009125,-0.1115,-0.0015,0.031479,-0.051498502,-0.025772,1741898231.3289359
0.052,0.024875,0.083,-0.0013275,0.00514225,-0.0184785,0.00225,-0.12525,0.002375,0.032394502,-0.05403125,-0.02537525,1741898231.346109
0.0525,0.01525,0.08125,-0.0012207499,0.00390625,-0.017852752,-0.0035,-0.13875,0.0105,0.028411752,-0.0520325,-0.0245515,1741898231.3582988
0.05225,0.011375,0.080875,-0.00119025,0.0012970001,-0.015594499,-0.005875,-0.13925,0.011875,0.02215575,-0.04628,-0.02275075,1741898231.3730948
0.052375,0.00225,0.08175,-0.00109875,-9.15e-05,-0.014068499,-0.013125,-0.1415,0.019125,0.02159125,-0.044067502,-0.02098075,1741898231.3878348
0.053625,-0.00325,0.083125,-0.00096125,-0.0030365,-0.010498,-0.0175,-0.14,0.0285,0.02070625,-0.040451,-0.0168305,1741898231.405503
0.05575,-0.0135,0.085625,-0.00146475,-0.0046234997,-0.008255,-0.0275,-0.1495,0.053875,0.02026375,-0.037979253,-0.015029999,1741898231.4173188
0.056,-0.013875,0.08775,-0.0021972498,-0.00614925,-0.0056,-0.02825,-0.1575,0.063375,0.0188445,-0.02961725,-0.012115501,1741898231.4320178
0.056375,-0.004875,0.09425,-0.00296025,-0.0084379995,0.00027475,-0.024375,-0.17075,0.060875,0.017929,-0.024947999,-0.01086425,1741898231.4468439
0.0575,-0.0,0.09625,-0.00283825,-0.00903325,0.00292975,-0.0235,-0.175625,0.0585,0.01469425,-0.016693002,-0.00738525,1741898231.467103
0.059375,0.005125,0.0975,-0.00228875,-0.00941475,0.0071105,-0.026625,-0.179,0.060625,0.0124665005,-0.0124665005,-0.005005,1741898231.476293
0.06425,0.014,0.103,-0.0017852499,-0.009323,0.00874325,-0.02875,-0.179375,0.064,0.007431,-0.00355525,0.00090025004,1741898231.4909031
0.066125,0.017125,0.106625,-0.001587,-0.008133001,0.011825499,-0.03125,-0.1755,0.069125,0.004593,0.0011445,0.0041044997,1741898231.506797
0.069,0.02825,0.114375,-0.00228875,-0.00717175,0.013183501,-0.029875,-0.172,0.06475,-0.00112925,0.010666001,0.009582501,1741898231.520134
0.07,0.03425,0.11825,-0.0042115003,-0.0046539996,0.014495751,-0.02475,-0.165875,0.05125,-0.00460825,0.015090999,0.011673001,1741898231.53475
0.072875,0.034875,0.121625,-0.00453175,-0.0030975002,0.014724749,-0.021125,-0.16025,0.0485,-0.0138702495,0.0232085,0.014434749,1741898231.5494149
0.072625,0.036125,0.1195,-0.0038757501,-0.0014495,0.01513675,-0.0155,-0.148125,0.05025,-0.018463248,0.026977502,0.015090999,1741898231.5660212
0.0715,0.04075,0.114,0.0001525,0.00083925005,0.01617425,-0.0135,-0.141375,0.05125,-0.0222625,0.030655,0.0154115,1741898231.5788312
0.070875,0.04075,0.104375,0.0030365,0.0012970001,0.016296498,-0.01075,-0.133,0.05025,-0.02636725,0.037460253,0.0152435,1741898231.5935009
0.069875,0.039875,0.1,0.0085602505,0.0016785001,0.01637275,-0.00375,-0.120875,0.040125,-0.026672252,0.04008475,0.0148772495,1741898231.608124
0.06025,0.05625,0.09675,0.01013175,0.00096125,0.015686,0.000875,-0.117375,0.03075,-0.02497875,0.04306025,0.014038,1741898231.625834
0.05125,0.0525,0.111875,0.0069274995,4.575e-05,0.013488751,0.00175,-0.115,0.019875,-0.02342225,0.04382325,0.013641249,1741898231.6371992
0.049625,0.058375,0.119,0.00466925,0.000885,0.012985251,0.003125,-0.11575,0.013,-0.02050775,0.04777525,0.013061499,1741898231.651775
0.05625,0.065375,0.10775,0.00390625,0.00131225,0.011306751,0.015,-0.0975,-0.006,-0.019226,0.0502625,0.012924249,1741898231.6665852
0.059125,0.060125,0.097875,0.0029449998,-0.00057975,0.007019,0.00725,-0.1005,-0.006,-0.01664725,0.04969775,0.01033025,1741898231.680927
0.048375,0.062375,0.093875,0.001236,-0.0019225,0.00637825,0.01325,-0.109375,-0.0175,-0.014038,0.0483245,0.01065075,1741898231.695529
0.04575,0.067,0.101,-0.0017852499,-0.0029755002,0.0034790002,0.015875,-0.10875,-0.0205,-0.009323,0.04524225,0.0106965,1741898231.710232
0.05525,0.063875,0.121375,-0.0029755002,-0.00216675,0.00143425,0.01875,-0.107875,-0.023625,-0.008361749,0.04318225,0.01115425,1741898231.72969
0.062125,0.063125,0.12625,-0.0059815003,0.0009765,-0.00137325,0.021625,-0.107,-0.028625,-0.00785825,0.0338745,0.0109709995,1741898231.739598
0.067125,0.0675,0.12475,-0.0067597497,0.00238025,-0.00238025,0.032375,-0.097625,-0.031875,-0.0076905,0.028366,0.0101775,1741898231.7542431
0.06725,0.065125,0.11975,-0.0070342496,0.0035095,-0.0036010002,0.038875,-0.089125,-0.030625,-0.00688175,0.023285,0.00880425,1741898231.768826
0.0675,0.062875,0.1125,-0.007019,0.0048065,-0.00596625,0.04875,-0.082,-0.03225,-0.0025634998,0.011673001,0.0043639997,1741898231.786272
0.068375,0.06475,0.097,-0.0068207504,0.00469975,-0.0071105,0.050125,-0.085,-0.03325,9.15e-05,0.0045625,0.0018615,1741898231.798018
0.068125,0.065,0.094625,-0.00717175,0.00372325,-0.01020825,0.04975,-0.086625,-0.032375,0.00343325,-0.00935375,-0.0024414998,1741898231.812758
0.067625,0.06125,0.105,-0.0070037497,0.00367725,-0.011734,0.047875,-0.082375,-0.028875,0.003952,-0.0154115,-0.0045625,1741898231.827432
0.068,0.061,0.1125,-0.0037995,0.0061950004,-0.01402275,0.0465,-0.082,-0.026625,0.00460825,-0.0266265,-0.0090485,1741898231.846227
0.06775,0.059875,0.119375,-0.00193775,0.00801075,-0.01496875,0.040375,-0.0885,-0.02325,0.00631725,-0.03208925,-0.011139,1741898231.8569732
0.06775,0.057,0.113375,-0.00033575002,0.009430001,-0.01579275,0.0355,-0.09375,-0.020875,0.0114440005,-0.041626,-0.014358499,1741898231.871732
0.068375,0.053375,0.103875,0.00238025,0.009796251,-0.017425502,0.02325,-0.100375,-0.013375,0.01339725,-0.04556275,-0.0156555,1741898231.887087
0.06725,0.039625,0.083875,0.0033264998,0.008926501,-0.018158002,0.016,-0.10425,-0.013375,0.018035999,-0.052383497,-0.017868,1741898231.901163
0.064625,0.033625,0.080875,0.0030365,0.0062255003,-0.018707251,0.00575,-0.109625,-0.017875,0.0208435,-0.054779,-0.01852425,1741898231.915853
0.056375,0.03025,0.0865,0.0020752498,0.00491325,-0.0187225,0.002625,-0.112875,-0.017375,0.022827249,-0.0577545,-0.020019501,1741898231.93062
0.053875,0.028875,0.088875,0.000534,0.0029755002,-0.018615749,-0.004375,-0.119875,-0.00075,0.02079775,-0.05821225,-0.02041625,1741898231.945747
0.05475,0.017375,0.091125,0.0005035,0.002365,-0.0179595,-0.008875,-0.121125,0.010375,0.015686,-0.05635075,-0.019226,1741898231.960222
0.056375,0.01125,0.091,0.0007935,0.00190725,-0.016632,-0.016125,-0.12625,0.028875,0.014495751,-0.05416875,-0.01747125,1741898231.974954
0.058125,0.006375,0.088375,0.00131225,0.00086975005,-0.012741,-0.018875,-0.126875,0.032,0.0152435,-0.04853825,-0.014679,1741898231.989718
0.061375,-0.000375,0.078,0.001526,-1.5250001e-05,-0.010528499,-0.026875,-0.136625,0.036125,0.01573175,-0.04585275,-0.0149535,1741898232.0057878
0.061875,-0.003,0.07425,0.00131225,-0.0028687501,-0.0061645,-0.032,-0.141625,0.04575,0.013137749,-0.0401765,-0.016021749,1741898232.01937
0.062,-0.0095,0.0765,0.00036625,-0.0046845004,-0.0040587503,-0.038375,-0.148375,0.072125,0.010757499,-0.036255002,-0.0154725,1741898232.034126
0.0595,-0.010625,0.084125,-0.00263975,-0.00782775,0.00027475,-0.03875,-0.1495,0.08125,0.0061339997,-0.0260315,-0.01266475,1741898232.04884
0.049625,0.001875,0.102,-0.00390625,-0.0087585,0.002472,-0.044125,-0.153,0.09,0.0056,-0.02073675,-0.01098625,1741898232.065553
0.046125,0.01075,0.109875,-0.0043944996,-0.009079001,0.0044707498,-0.04875,-0.162875,0.09225,0.0067902496,-0.015686,-0.00897225,1741898232.0783691
0.047625,0.016,0.1145,-0.0025787498,-0.007599,0.0075682504,-0.053375,-0.1765,0.087375,0.00889575,-0.0044555003,-0.0033570002,1741898232.093164
0.050125,0.017125,0.11775,-0.0016632499,-0.0065307496,0.0089875,-0.05075,-0.174875,0.080125,0.007431,0.0018005001,-0.00029,1741898232.107719
0.0525,0.0195,0.120875,-0.0022735,-0.0043335,0.01171875,-0.046125,-0.17025,0.072,0.0030669998,0.012909001,0.00561525,1741898232.126053
0.060375,0.0295,0.12875,-0.0036162501,-0.0032195,0.013000499,-0.03925,-0.15925,0.063,0.0012970001,0.017624,0.00811775,1741898232.1368508
0.067375,0.034875,0.132625,-0.00460825,0.00016775,0.0155030005,-0.036125,-0.15475,0.062875,-0.0025940002,0.026657,0.011535751,1741898232.1514492
0.085375,0.040625,0.125875,-0.00364675,0.002472,0.01658625,-0.0295,-0.148375,0.0645,-0.00437925,0.03105175,0.012695249,1741898232.1677492
0.093,0.039125,0.113,0.0022735,0.00671375,0.0184785,-0.027,-0.147125,0.061375,-0.00585925,0.03816225,0.014328,1741898232.180758
0.09575,0.049375,0.08725,0.0072937496,0.0077210004,0.0188445,-0.022875,-0.143,0.040875,-0.00593575,0.04055775,0.0147705,1741898232.19552
0.092875,0.050375,0.0785,0.011383001,0.0075835,0.01817325,-0.020875,-0.139125,0.028875,-0.0061645,0.041320752,0.0153807495,1741898232.210243
0.08775,0.0465,0.072875,0.012420749,0.00428775,0.014846751,-0.021875,-0.13325,0.021125,-0.0068055,0.04104625,0.01576225,1741898232.225294
0.066125,0.026875,0.07875,0.0100555,0.00216675,0.014785751,-0.0175,-0.1305,0.015,-0.010940501,0.0440215,0.016159,1741898232.23952
0.05875,0.061,0.081875,0.01071175,-0.00029,0.013336251,-0.006625,-0.117625,-0.00375,-0.01408375,0.04628,0.015274,1741898232.2542899
0.05525,0.054625,0.095125,0.01419075,-0.00061025,0.009719751,-0.007,-0.121625,-0.00825,-0.020034749,0.048995998,0.0135955,1741898232.269084
0.053875,0.046125,0.108625,0.01501475,-0.0002135,0.008606,-0.00225,-0.119125,-0.015625,-0.0227355,0.05036925,0.013626001,1741898232.2861571
0.055375,0.05575,0.122625,0.0085755,0.0016175,0.008026,0.002375,-0.109375,-0.01775,-0.02360525,0.0523225,0.012634249,1741898232.298486
0.0695,0.071625,0.1325,0.0054932497,0.0030669998,0.0061339997,0.008875,-0.09925,-0.0255,-0.02076725,0.05284125,0.01156625,1741898232.313163
0.07675,0.076625,0.127125,0.00109875,0.0057372497,0.0014495,0.011,-0.09925,-0.03225,-0.01586925,0.05273425,0.010757499,1741898232.327741
0.0795,0.07925,0.10925,0.00010675,0.0062255003,-0.00137325,0.01,-0.101875,-0.044625,-0.00419625,0.0500945,0.01036075,1741898232.346518
0.0755,0.074,0.100875,-0.0002595,0.00570675,-0.007019,0.0105,-0.102625,-0.049,0.00013725001,0.04685975,0.009796251,1741898232.357045
0.069625,0.05275,0.087625,-0.00057975,0.0048674997,-0.009262,0.0125,-0.103125,-0.05225,0.00352475,0.035705503,0.00935375,1741898232.3716202
0.06725,0.041,0.08275,-0.0016175,0.0036010002,-0.010818499,0.023625,-0.098625,-0.058,0.0016632499,0.02931225,0.009658749,1741898232.386098
0.06425,0.034875,0.080125,-0.0055695,0.000534,-0.01193225,0.029125,-0.094875,-0.05975,-0.00564575,0.01705925,0.008148249,1741898232.4012978
0.061625,0.04025,0.084625,-0.00717175,-0.00064075,-0.012436,0.036,-0.09125,-0.05775,-0.007965,0.01083375,0.0063325,1741898232.415566
0.0625,0.0445,0.090125,-0.0079955,-0.00163275,-0.0142365,0.038875,-0.089,-0.053625,-0.00801075,-0.0021515,0.0021057501,1741898232.4303539
0.067125,0.04675,0.09825,-0.0075835,-0.00157175,-0.0149535,0.04225,-0.087375,-0.04325,-0.006546,-0.009201,-4.575e-05,1741898232.4474711
0.069375,0.047,0.099375,-0.00697325,-0.0015565,-0.015808,0.042,-0.088375,-0.039125,-0.002472,-0.023056,-0.0042725,1741898232.459878
0.070625,0.041125,0.098625,-0.00688175,-0.0017395001,-0.01617425,0.04,-0.088,-0.033125,-0.00039675,-0.0290375,-0.0064239996,1741898232.474731
0.069125,0.034375,0.09825,-0.0072937496,-0.0020752498,-0.01640325,0.037625,-0.08925,-0.03125,0.0037079998,-0.03910825,-0.010589501,1741898232.489472
0.064875,0.031875,0.0985,-0.00708,-0.0022277501,-0.016159,0.02925,-0.097875,-0.025875,0.0058899997,-0.0433655,-0.01245125,1741898232.505868
0.063875,0.03475,0.097625,-0.0065307496,-0.00238025,-0.01617425,0.024875,-0.1015,-0.02025,0.008361749,-0.050003,-0.01554875,1741898232.5190232
0.06425,0.033625,0.096,-0.0054015,-0.00314325,-0.01708975,0.013375,-0.1065,-0.00325,0.00883475,-0.052597,-0.016922,1741898232.533737
0.06425,0.0235,0.090875,-0.0049590003,-0.00408925,-0.016983,0.006625,-0.10875,0.005875,0.010391249,-0.05697625,-0.0197295,1741898232.548429
0.061875,0.0225,0.088875,-0.0051574996,-0.006363,-0.0157165,-0.006875,-0.114875,0.021,0.011550999,-0.0585785,-0.02064525,1741898232.565581
0.0565,0.022875,0.09475,-0.00585925,-0.007431,-0.015213001,-0.0135,-0.123625,0.027375,0.012176501,-0.059600748,-0.020584,1741898232.5778491
0.05525,0.021625,0.10025,-0.0069580004,-0.00842275,-0.014282251,-0.0215,-0.1355,0.042375,0.0102235,-0.057953,-0.0193635,1741898232.592553
0.0565,0.0085,0.1055,-0.0068665,-0.00839225,-0.013443,-0.025,-0.137875,0.055375,0.00823975,-0.054382253,-0.01753225,1741898232.607452
0.05725,0.00125,0.1055,-0.0058135,-0.008224499,-0.0099639995,-0.022,-0.130375,0.070125,0.007843,-0.0427705,-0.013351499,1741898232.627369
0.052875,-0.01325,0.10125,-0.0056,-0.008209251,-0.0076295,-0.02125,-0.12725,0.069625,0.008788999,-0.037445,-0.0128175,1741898232.636993
0.05275,-0.015125,0.10225,-0.0061950004,-0.00845325,-0.005005,-0.031375,-0.138125,0.062,0.011627249,-0.0296325,-0.0135345,1741898232.651776
0.054125,-0.007625,0.109375,-0.0070952503,-0.00845325,0.00074775,-0.037375,-0.149125,0.059625,0.012420749,-0.0263825,-0.012756251,1741898232.667319
0.050875,0.008,0.119,-0.00555425,-0.0073395,0.003128,-0.041625,-0.16,0.062,0.0093385,-0.01908875,-0.0089569995,1741898232.681414
0.048375,0.002625,0.115125,-0.00146475,-0.00460825,0.0068665,-0.045375,-0.169625,0.076,0.0056915004,-0.014328,-0.0066374997,1741898232.696224
0.049375,-0.00275,0.10725,-0.00119025,-0.003952,0.009140001,-0.04625,-0.168375,0.081375,-0.00068675,-0.00331125,-0.0020599999,1741898232.710948
0.050375,0.008625,0.108625,-0.00320425,-0.0037385002,0.013153,-0.044,-0.166,0.076375,-0.00163275,0.001953,0.0002595,1741898232.730217
0.048125,0.02625,0.108875,-0.0040587503,-0.00369275,0.0138855,-0.040875,-0.164875,0.07375,-0.0016785001,0.011321999,0.00535575,1741898232.740213
0.046375,0.024625,0.106125,-0.0056915004,-0.00402825,0.014846751,-0.03375,-0.156,0.071875,-0.00190725,0.015564,0.00770575,1741898232.754857
0.045625,0.018875,0.10275,-0.00646975,-0.0043335,0.0160065,-0.030875,-0.15,0.06775,-0.0028535,0.022812,0.010879501,1741898232.7695308
0.047375,0.019875,0.103375,-0.006775,-0.0045165,0.0175935,-0.027125,-0.146625,0.054875,-0.00372325,0.025711,0.011886501,1741898232.7862139
0.051,0.02575,0.104375,-0.0060577504,-0.00419625,0.021103,-0.02475,-0.148125,0.048125,-0.0072175004,0.02977,0.014007499,1741898232.798861
0.0615,0.046125,0.1,-0.0052642496,-0.00384525,0.02230825,-0.022,-0.144875,0.041,-0.0093385,0.03070075,0.01504525,1741898232.813513
0.06375,0.051375,0.100125,-0.0036315,-0.00328075,0.023117,-0.02175,-0.143,0.041375,-0.013488751,0.035476748,0.0160675,1741898232.828217
0.05775,0.045625,0.099875,-0.0032655,-0.003128,0.023498502,-0.016625,-0.1365,0.029625,-0.015594499,0.038940497,0.0161895,1741898232.8458629
0.05275,0.039875,0.098875,-0.0042115003,-0.00328075,0.0249635,-0.015,-0.13325,0.02175,-0.0187835,0.04299925,0.01651,1741898232.857468
0.04,0.041375,0.104875,-0.0056915004,-0.00343325,0.025466999,-0.012125,-0.125125,0.014875,-0.01985175,0.0446015,0.016845752,1741898232.872152
0.03825,0.056875,0.109125,-0.0072632497,-0.0032347501,0.0254365,-0.0085,-0.121625,0.012125,-0.02076725,0.04666125,0.01728825,1741898232.886774
0.055,0.094,0.113875,-0.0077972496,-0.001526,0.0222015,0.0015,-0.1175,0.002125,-0.02297975,0.051239,0.018097,1741898232.901966
0.064875,0.10125,0.116125,-0.0063477503,-0.00033575002,0.019455,0.006125,-0.11475,-0.00475,-0.02424625,0.05314625,0.018402,1741898232.915947
0.070375,0.09925,0.1175,-0.00187675,0.0017852499,0.01452625,0.0095,-0.11125,-0.011875,-0.024414,0.05302425,0.017654499,1741898232.9307342
0.070875,0.081375,0.11225,0.0002135,0.00245675,0.0127105,0.016875,-0.103375,-0.026625,-0.023346001,0.051864497,0.017105,1741898232.946604
0.0695,0.073875,0.10625,0.0014037499,0.002777,0.010162249,0.019625,-0.101375,-0.0335,-0.020034749,0.047912497,0.0173645,1741898232.9602401
0.065125,0.080125,0.095625,0.00039675,0.002655,0.009262,0.025375,-0.10225,-0.041875,-0.017425502,0.0436555,0.018035999,1741898232.974994
0.063125,0.090625,0.0905,-0.00086975005,0.002472,0.00801075,0.032625,-0.099125,-0.043625,-0.01605225,0.03253175,0.018035999,1741898232.989724
0.060875,0.10025,0.0855,-0.0022277501,0.001236,0.0032195,0.0455,-0.08975,-0.0425,-0.017608749,0.0262145,0.0167695,1741898233.005738
0.05325,0.104625,0.08225,-0.0021515,4.575e-05,-0.00045775,0.048125,-0.084875,-0.040375,-0.0206145,0.01145925,0.01322925,1741898233.019126
0.050375,0.101875,0.086625,-0.001068,-0.00160225,-0.007965,0.05,-0.078625,-0.0305,-0.0208435,0.00340275,0.011245751,1741898233.033761
0.052875,0.09875,0.1025,-0.00016775,-0.00149525,-0.01092525,0.049875,-0.076875,-0.023375,-0.016845752,-0.01145925,0.0068665,1741898233.048539
0.05625,0.096,0.11175,0.00149525,9.15e-05,-0.0151825,0.04875,-0.072625,-0.006875,-0.01339725,-0.017455999,0.0043335,1741898233.0657558
0.062875,0.077875,0.116125,0.0017395001,0.00108325,-0.01655575,0.047875,-0.070875,0.00225,-0.00697325,-0.02645875,-0.00065625,1741898233.078221
0.063875,0.064875,0.11075,-0.000183,0.0017242499,-0.017120251,0.045,-0.07325,0.014875,-0.0043182503,-0.029892,-0.0029907501,1741898233.0929248
0.0545,0.05525,0.108625,-0.00149525,0.00157175,-0.01651,0.041875,-0.08,0.018125,0.00051875,-0.03569025,-0.0069580004,1741898233.1076732
0.04975,0.059625,0.112,-0.0019225,0.00169375,-0.01620475,0.034,-0.089,0.035125,0.0029449998,-0.037735,-0.0085755,1741898233.127349
0.049125,0.063375,0.112625,-0.00019825,0.0029449998,-0.0178375,0.0315,-0.089,0.048375,0.00737,-0.040741,-0.012085,1741898233.137003
0.054,0.058875,0.108875,0.0016632499,0.0036162501,-0.018737748,0.027125,-0.090125,0.069875,0.00968925,-0.042099,-0.013854999,1741898233.1516821
0.054125,0.055875,0.10625,0.0050965,0.004303,-0.019226,0.0235,-0.0905,0.073,0.01838675,-0.0446015,-0.016983,1741898233.168621
0.048875,0.04375,0.100875,0.00672925,0.0042572496,-0.019287001,0.01675,-0.091375,0.0625,0.0254975,-0.046173,-0.0187225,1741898233.180935
0.044625,0.037,0.101875,0.00817875,0.00396725,-0.018310498,0.013875,-0.09475,0.052,0.03300475,-0.04733275,-0.020324752,1741898233.195643
0.03675,0.037875,0.105375,0.0072785,0.00378425,-0.01763925,0.0095,-0.10125,0.043125,0.045898497,-0.049179003,-0.02186575,1741898233.210359
0.036375,0.032625,0.106875,0.006256,0.00369275,-0.017212,-0.003375,-0.122,0.034125,0.05052175,-0.0501405,-0.0208435,1741898233.225899
0.038,0.026125,0.10675,0.0050965,0.0037537501,-0.015396,-0.009125,-0.132375,0.031625,0.050674498,-0.0484315,-0.01617425,1741898233.239881
0.042875,0.016,0.102125,0.0043182503,0.0036315,-0.013793999,-0.016,-0.144125,0.027875,0.044693,-0.044860747,-0.0139770005,1741898233.2545679
0.04425,0.012375,0.098125,0.0027160002,0.0028535,-0.009842,-0.0195,-0.14225,0.023,0.03193675,-0.036438,-0.0115205,1741898233.2692611
0.044625,0.00625,0.088625,0.0019989999,0.0020905002,-0.007782,-0.03,-0.1535,0.0205,0.02848825,-0.0333405,-0.0106965,1741898233.286431
0.044875,0.00375,0.084875,0.000473,-0.0001525,-0.0036162501,-0.030375,-0.161625,0.02425,0.020355249,-0.0269165,-0.008941749,1741898233.29887
0.045375,-0.002,0.08475,-0.0007935,-0.00149525,-0.0015105,-0.030375,-0.167625,0.043625,0.01496875,-0.0233155,-0.008224499,1741898233.313575
0.042875,-0.00075,0.08875,-0.002533,-0.00283825,0.0007325,-0.030875,-0.16625,0.055125,0.0064239996,-0.014938249,-0.0050965,1741898233.3283699
0.0405,0.00475,0.0935,-0.0046539996,-0.00453175,0.0054015,-0.031,-0.156375,0.075625,0.00390625,-0.01020825,-0.0029145,1741898233.346465
0.042625,0.013375,0.097875,-0.00453175,-0.0047607496,0.0075377496,-0.030625,-0.149375,0.081875,0.0032655,-0.00064075,0.0016175,1741898233.357743
0.04625,0.017625,0.096875,-0.0047150003,-0.0050355,0.011383001,-0.030875,-0.14275,0.074375,0.0056,0.0034484998,0.0037385002,1741898233.3723772
0.04975,0.0285,0.0955,-0.00488275,-0.0052947504,0.012847999,-0.032375,-0.14575,0.06575,0.01071175,0.009292499,0.0075682504,1741898233.386949
0.048,0.029625,0.10075,-0.00541675,-0.0055085,0.015090999,-0.032875,-0.152125,0.056125,0.01083375,0.012024,0.0093995,1741898233.405623
0.04475,0.0275,0.109,-0.0056304997,-0.0051574996,0.01622,-0.0315,-0.152,0.053375,0.00555425,0.019012501,0.01193225,1741898233.4159849
0.045,0.029625,0.109875,-0.00570675,-0.00463875,0.0175935,-0.029,-0.14675,0.05375,0.001526,0.022918751,0.012771499,1741898233.430629
0.046875,0.036625,0.108125,-0.0056609996,-0.0033722501,0.0203095,-0.02625,-0.141375,0.05475,-0.0022125002,0.02677925,0.013564999,1741898233.4467158
0.057875,0.045,0.106625,-0.0055237496,-0.0028074998,0.02127075,-0.023,-0.13575,0.053375,-0.00538625,0.033264253,0.014800999,1741898233.4600399
0.0635,0.042125,0.107375,-0.0040435,-0.001114,0.022949249,-0.01575,-0.12775,0.03525,-0.00437925,0.03518675,0.01501475,1741898233.474764
0.063,0.047375,0.106625,-0.003296,-0.0002595,0.0238495,-0.01425,-0.127125,0.025125,-0.0002595,0.035263002,0.01510625,1741898233.489488
0.05925,0.058,0.105375,0.0003205,0.00108325,0.02412425,-0.01675,-0.133375,0.0185,0.0005645,0.0355225,0.0154725,1741898233.506235
0.05475,0.08725,0.101875,0.0037079998,0.00137325,0.02288825,-0.0165,-0.136125,0.01525,-0.0033875,0.039688,0.01693725,1741898233.518802
0.05675,0.099375,0.101,0.0068055,0.0012665,0.02073675,-0.009375,-0.134875,-0.007125,-0.00782775,0.042419497,0.017578252,1741898233.5336478
0.059375,0.103125,0.1025,0.0090485,0.00054925,0.01542675,-0.00425,-0.132375,-0.02275,-0.018432502,0.04647825,0.01794425,1741898233.548366
0.060625,0.09325,0.10675,0.00811775,0.00039675,0.013214,0.003875,-0.119375,-0.034875,-0.023193251,0.048294,0.018127501,1741898233.565418
0.05825,0.084375,0.107,0.004013,0.00045775,0.010009751,0.008,-0.112,-0.0295,-0.03034975,0.05207825,0.01855475,1741898233.577752
0.05225,0.081,0.106125,0.0019989999,0.00061025,0.008727999,0.018375,-0.1005,-0.018,-0.03215025,0.053329498,0.01882925,1741898233.5924711
0.051375,0.08525,0.105125,-0.0002135,0.00109875,0.0052947504,0.021875,-0.098875,-0.0205,-0.02757275,0.0509795,0.01838675,1741898233.60734
0.0525,0.086625,0.09875,-0.000763,0.0012207499,0.0034942501,0.020875,-0.10525,-0.03075,-0.02227775,0.04841625,0.018097,1741898233.622504
0.0505,0.08475,0.09325,-0.00112925,0.00096125,0.0019989999,0.0195,-0.108875,-0.03725,-0.01744075,0.044128504,0.019317752,1741898233.636519
0.04625,0.0875,0.09025,-0.001648,-0.00024425,-0.0012207499,0.024,-0.11225,-0.0485,-0.01937875,0.04072575,0.01988225,1741898233.651244
0.04325,0.095625,0.09675,-0.00187675,-0.00086975005,-0.0041044997,0.031625,-0.10925,-0.05025,-0.02873225,0.032852247,0.019439751,1741898233.669156
0.04625,0.093125,0.102875,-0.0018615,-0.000885,-0.010009751,0.044,-0.09425,-0.045375,-0.03344725,0.02911375,0.018402,1741898233.680746
0.054875,0.081375,0.1135,-0.00131225,-0.0002135,-0.011810251,0.04925,-0.0845,-0.040375,-0.036376998,0.019744748,0.014038,1741898233.6954591
0.058125,0.069625,0.11775,-0.00045775,0.0018615,-0.013443,0.057375,-0.08475,-0.033125,-0.035141,0.0134735005,0.01092525,1741898233.7102458
0.0585,0.046,0.11625,-0.00027475,0.0029449998,-0.01307675,0.055125,-0.09025,-0.02825,-0.033370998,0.0065155,0.0079345,1741898233.726018
0.0555,0.04575,0.1125,-0.00029,0.00378425,-0.012130749,0.051,-0.08925,-0.017125,-0.024353001,-0.0065765,0.00434875,1741898233.73965
0.051125,0.055125,0.111625,-0.00216675,0.0041504996,-0.0110625,0.053625,-0.085,-0.0125,-0.01832575,-0.01266475,0.00254825,1741898233.754381
0.04675,0.077125,0.118125,-0.0026854998,0.00434875,-0.012054499,0.055125,-0.081,-0.00675,-0.00833125,-0.025115998,-0.00193775,1741898233.769172
0.046625,0.0805,0.123125,0.00090025004,0.0065002497,-0.016418502,0.049375,-0.081875,0.004625,-0.003952,-0.030853251,-0.004074,1741898233.786484
0.050375,0.068125,0.116375,0.00369275,0.0077515002,-0.01841725,0.04625,-0.08425,0.00925,0.00437925,-0.0412445,-0.0078735,1741898233.798452
0.052625,0.06125,0.10525,0.0055085,0.0077667497,-0.020111,0.038375,-0.089125,0.013,0.009216251,-0.0459595,-0.0097045,1741898233.813164
0.051375,0.051625,0.091125,0.0048217503,0.0067445002,-0.020172002,0.031375,-0.094375,0.015125,0.018920999,-0.05470275,-0.013000499,1741898233.827749
0.048,0.046,0.091,0.00393675,0.0055847503,-0.0201875,0.015875,-0.105,0.021125,0.022705,-0.058548,-0.014297499,1741898233.846453
0.046,0.038375,0.09275,0.0027312501,0.00390625,-0.020462,0.0115,-0.1045,0.0225,0.02949525,-0.064972,-0.01637275,1741898233.8571699
0.048875,0.024125,0.09075,0.0027312501,0.0033875,-0.0202485,0.0045,-0.09925,0.030875,0.0330505,-0.068161,-0.018097,1741898233.8717709
0.051,0.018625,0.086875,0.0030975002,0.00201425,-0.01782225,-0.00225,-0.10475,0.03875,0.039245497,-0.073211744,-0.02082825,1741898233.886558
0.05125,0.016,0.080875,0.0030669998,0.00109875,-0.0158385,-0.012,-0.119875,0.056875,0.04226675,-0.074417,-0.019806,1741898233.9061
0.049875,0.01625,0.079625,0.0029449998,-0.00077825,-0.01206975,-0.013875,-0.128375,0.067,0.04464725,-0.06867975,-0.014145001,1741898233.9160588
0.047625,0.00825,0.081375,0.00302125,-0.00169375,-0.0102235,-0.013375,-0.133,0.0675,0.0415345,-0.05970775,-0.01115425,1741898233.930777
0.046875,0.002625,0.08675,0.0028535,-0.0025940002,-0.008148249,-0.017875,-0.123375,0.06525,0.040207002,-0.045272753,-0.01197825,1741898233.9461179
0.04425,-0.00025,0.098375,0.00115975,-0.0040435,-0.00328075,-0.03575,-0.139,0.06625,0.04312125,-0.04154975,-0.01368725,1741898233.960394
0.043,0.003125,0.10175,0.00010675,-0.00453175,-0.00062550005,-0.04175,-0.159375,0.062,0.04367075,-0.034073003,-0.012375,1741898233.975067
0.042875,0.00675,0.102625,-0.00064075,-0.0049590003,0.0047150003,-0.049125,-0.199125,0.049375,0.0385895,-0.02886975,-0.009948749,1741898233.989782
0.046,0.009625,0.09725,-0.00054925,-0.0051269997,0.0072632497,-0.053125,-0.21225,0.052,0.030609248,-0.022827249,-0.0066985004,1741898234.0078778
0.0475,0.012375,0.09575,-0.00090025004,-0.0061035,0.011688249,-0.054375,-0.21225,0.073125,0.0114440005,-0.008499251,0.00201425,1741898234.019326
0.045875,0.020375,0.10475,-0.00149525,-0.006607,0.01310725,-0.049625,-0.20025,0.08,0.0030669998,-0.00068675,0.006607,1741898234.033966
0.0425,0.02375,0.11325,-0.003128,-0.006363,0.01463325,-0.0435,-0.190125,0.081,-0.0075835,0.01310725,0.013992251,1741898234.048736
0.03675,0.02675,0.129,-0.00340275,-0.0052947504,0.015289251,-0.033,-0.168375,0.071,-0.012267999,0.0193635,0.0166015,1741898234.065804
0.038625,0.0285,0.1285,-0.00308225,-0.0037079998,0.01622,-0.029,-0.15575,0.065125,-0.02088925,0.0298615,0.019317752,1741898234.0782468
0.043625,0.032375,0.126,-0.0016632499,-0.00070200005,0.018707251,-0.02325,-0.14,0.055,-0.0239105,0.03385925,0.0196075,1741898234.092878
0.05325,0.043125,0.1245,-0.00108325,0.00068675,0.01976025,-0.0215,-0.13775,0.052375,-0.02778625,0.04005425,0.019287001,1741898234.107557
0.057375,0.04375,0.1215,0.00146475,0.003662,0.02091975,-0.01525,-0.135625,0.04075,-0.0291595,0.042511,0.019104,1741898234.122211
0.062875,0.040125,0.107375,0.003952,0.0045777503,0.021362249,-0.010375,-0.134125,0.029,-0.03274525,0.046157748,0.018463248,1741898234.136787
0.06225,0.0445,0.102,0.00918575,0.00485225,0.02244575,-0.001375,-0.129875,0.01175,-0.03610225,0.0477905,0.0177155,1741898234.151585
0.062875,0.065875,0.095375,0.010757499,0.0046539996,0.0224305,0.001625,-0.126125,0.009375,-0.04441825,0.0519105,0.0153655,1741898234.169604
0.065875,0.0765,0.091125,0.01115425,0.0042572496,0.021759002,0.006,-0.114125,0.01425,-0.047881998,0.054794252,0.014160249,1741898234.1806479
0.068,0.0855,0.08625,0.01091,0.002411,0.018158002,0.009625,-0.106375,0.015,-0.052993752,0.06343075,0.012024,1741898234.195092
0.062125,0.096,0.08175,0.01098625,0.00077825,0.015304499,0.018875,-0.093625,0.007375,-0.0544585,0.0679475,0.01121525,1741898234.209696
0.0545,0.0945,0.086875,0.0106355,-0.00228875,0.008926501,0.020875,-0.088375,0.00275,-0.052124,0.07106025,0.009842,1741898234.2266
0.044875,0.086,0.105125,0.01013175,-0.00279225,0.0060882503,0.02275,-0.089625,-0.00075,-0.04818725,0.06852725,0.0075377496,1741898234.238774
0.04675,0.079625,0.114,0.00798025,-0.00125125,0.00184625,0.025625,-0.098875,-0.002125,-0.04441825,0.065445,0.0049590003,1741898234.2534919
0.058875,0.07175,0.125,0.0054015,0.00029,0.00070200005,0.025375,-0.11025,-0.00225,-0.0385895,0.06054675,0.0050812503,1741898234.268223
0.064,0.074,0.126,0.0025025,0.0018615,-0.00016775,0.024125,-0.112125,-0.0055,-0.0356445,0.0572815,0.00747675,1741898234.286276
0.066875,0.076875,0.12425,-0.0014037499,0.0041810004,-0.003006,0.03125,-0.104875,-0.011125,-0.0328065,0.04776,0.009613,1741898234.29749
0.068125,0.073125,0.1155,-0.0020905002,0.004776,-0.0050202496,0.046625,-0.08625,-0.015375,-0.030487,0.0410155,0.00903325,1741898234.3121989
0.06675,0.065875,0.1095,-0.0020295,0.00466925,-0.0079955,0.050375,-0.084,-0.01625,-0.02142325,0.025390498,0.0049590003,1741898234.326784
0.05925,0.0525,0.09775,-0.00187675,0.0041044997,-0.0084379995,0.050375,-0.087125,-0.017,-0.0139465,0.01649475,0.00411975,1741898234.346448
0.055375,0.0525,0.095125,-0.0030669998,0.002533,-0.009323,0.052125,-0.08275,-0.014625,0.0005035,-0.0025787498,0.00317375,1741898234.3562539
0.0545,0.059875,0.098,-0.00354,0.00201425,-0.010437001,0.05575,-0.078125,-0.00775,0.0054475004,-0.011550999,0.00163275,1741898234.370791
0.05775,0.0615,0.098875,-0.0030669998,0.001831,-0.0117035,0.056625,-0.074875,-0.003125,0.011688249,-0.02693175,-0.00238025,1741898234.38566
0.060625,0.0605,0.098375,-0.001175,0.00157175,-0.0139465,0.0575,-0.071625,0.007125,0.014297499,-0.03341675,-0.004486,1741898234.4002292
0.063375,0.05275,0.0995,-0.00045775,0.0013580001,-0.0148315,0.0565,-0.072375,0.0115,0.02183525,-0.044815,-0.008773751,1741898234.4147909
0.061375,0.052625,0.1035,0.00090025004,0.0013580001,-0.01582325,0.045625,-0.08425,0.022125,0.0271455,-0.050063998,-0.010940501,1741898234.429504
0.054625,0.06075,0.120375,0.00062550005,0.00175475,-0.01637275,0.037625,-0.09025,0.0285,0.038085997,-0.06001275,-0.0148315,1741898234.4464169
0.053125,0.060625,0.1285,9.15e-05,0.0038605002,-0.0186005,0.027375,-0.093125,0.03075,0.042785753,-0.064743,-0.017273001,1741898234.458776
0.052125,0.05225,0.127125,0.00057975,0.0050965,-0.01940925,0.0265,-0.092125,0.024375,0.04606625,-0.06839,-0.01956175,1741898234.473496
0.051875,0.047,0.120125,0.000534,0.00590525,-0.019867001,0.021625,-0.099125,0.012625,0.050827,-0.0737915,-0.021881001,1741898234.4881809
0.052125,0.040125,0.1125,-0.001892,0.006073,-0.0202485,0.017,-0.104,0.008875,0.054015998,-0.075027496,-0.01985175,1741898234.506349
0.052,0.031,0.103375,-0.00251775,0.00564575,-0.020172002,0.011125,-0.104125,0.0085,0.05838,-0.0738525,-0.015213001,1741898234.517438
0.0505,0.029875,0.100625,-0.0012817499,0.00460825,-0.0200805,-0.003625,-0.12175,0.01425,0.056701753,-0.07153325,-0.015152001,1741898234.532274
0.048125,0.019,0.093,4.575e-05,0.004074,-0.020034749,-0.009375,-0.132375,0.016125,0.047699,-0.063095,-0.015335,1741898234.547047
0.04775,0.008,0.090875,0.0019225,0.00292975,-0.018188499,-0.0215,-0.13275,0.021,0.0428925,-0.05812075,-0.015457249,1741898234.565784
0.046625,-0.009375,0.091,0.00187675,0.0022125002,-0.0160675,-0.027375,-0.13,0.03025,0.039184503,-0.04982,-0.018158002,1741898234.576564
0.045375,-0.0115,0.091125,0.0013427499,0.001419,-0.013412501,-0.02925,-0.143375,0.05425,0.03933725,-0.04600525,-0.01956175,1741898234.5912478
0.044125,-0.01075,0.091625,0.00035100002,-0.000229,-0.00788875,-0.03075,-0.151875,0.057375,0.04122925,-0.038452253,-0.01882925,1741898234.60741
0.0445,-0.010375,0.09175,0.000229,-0.00096125,-0.0053709997,-0.040125,-0.176875,0.05125,0.04141225,-0.03468325,-0.017547501,1741898234.620757
0.045875,-0.012375,0.09075,-0.00096125,-0.00296025,-0.00036625,-0.046625,-0.1905,0.04925,0.03445425,-0.025115998,-0.01307675,1741898234.635514
0.0455,-0.011625,0.088375,-0.002411,-0.004242,0.00245675,-0.056875,-0.20775,0.056125,0.02648925,-0.0186615,-0.009597749,1741898234.6502762
0.044875,-0.005875,0.09,-0.0051880004,-0.0065002497,0.00770575,-0.0585,-0.204125,0.059375,0.00874325,-0.00396725,-0.00090025004,1741898234.670309
0.04575,0.00775,0.094875,-0.0057525,-0.00712575,0.00968925,-0.053875,-0.188125,0.063,0.0030669998,0.00242625,0.00334175,1741898234.679723
0.046125,0.01375,0.099,-0.005844,-0.0076295,0.01289375,-0.0505,-0.1835,0.065625,-0.00308225,0.014145001,0.01071175,1741898234.6945899
0.04475,0.024,0.109875,-0.00593575,-0.00744625,0.013992251,-0.044625,-0.169125,0.061875,-0.00570675,0.020049999,0.013854999,1741898234.709203
0.046625,0.02425,0.1115,-0.00611875,-0.007019,0.01474,-0.041125,-0.159375,0.055,-0.009506251,0.030181998,0.018158002,1741898234.726349
0.051,0.01975,0.109125,-0.00668325,-0.00614925,0.0166625,-0.033875,-0.149875,0.03425,-0.01071175,0.033798248,0.019455,1741898234.738508
0.0615,0.02175,0.099125,-0.0070342496,-0.0060272496,0.01820375,-0.031625,-0.147375,0.026375,-0.0148315,0.039184503,0.02091975,1741898234.753203
0.065375,0.027625,0.092875,-0.0064239996,-0.0070037497,0.020111,-0.028125,-0.149375,0.005625,-0.017852752,0.041275002,0.0213165,1741898234.767908
0.062125,0.031,0.09225,-0.00555425,-0.0078735,0.0205535,-0.026,-0.15175,-0.0045,-0.021636998,0.0424805,0.0218505,1741898234.786263
0.0555,0.040125,0.097625,-0.00355525,-0.00883475,0.02082825,-0.02325,-0.1475,-0.00575,-0.03288275,0.0453645,0.022293,1741898234.797272
0.05,0.078125,0.1065,-0.0017242499,-0.008788999,0.01982125,-0.009375,-0.122125,-0.004625,-0.0394135,0.049423248,0.0212555,1741898234.812087
0.054375,0.09375,0.107125,0.0045165,-0.00791925,0.015152001,-0.005,-0.113,-0.0045,-0.04774475,0.058258,0.0183715,1741898234.8267431
0.0695,0.099125,0.098875,0.0076142503,-0.00770575,0.01216125,-0.00475,-0.111875,-0.006125,-0.04901125,0.0623475,0.017501751,1741898234.846292
0.073625,0.088125,0.09825,0.010101249,-0.00817875,0.009323,-0.002125,-0.11225,-0.0075,-0.049987752,0.0707245,0.017273001,1741898234.856272
0.07125,0.072125,0.104125,0.00842275,-0.00953675,0.006256,0.009125,-0.1015,-0.00925,-0.049881,0.07463075,0.017746,1741898234.870898
0.058625,0.054625,0.114375,0.00411975,-0.0097045,0.0060577504,0.012875,-0.093875,-0.008125,-0.04502875,0.075943,0.01652525,1741898234.8863308
0.0535,0.05425,0.11475,-0.003769,-0.00903325,0.006073,0.01775,-0.095875,-0.00675,-0.0407715,0.072937,0.014282251,1741898234.900227
0.045,0.07375,0.116875,-0.00585925,-0.008148249,0.0055237496,0.018875,-0.10025,-0.00925,-0.032669,0.06681825,0.01322925,1741898234.914808
0.044125,0.081,0.118625,-0.0072937496,-0.0060882503,0.00154125,0.021875,-0.0995,-0.01425,-0.02760325,0.06304925,0.01358025,1741898234.929423
0.04575,0.078375,0.12225,-0.0072480002,-0.0050202496,-0.00077825,0.02575,-0.097875,-0.01725,-0.0233155,0.05419925,0.011795,1741898234.946497
0.0455,0.075,0.126125,-0.0068512503,-0.003891,-0.00276175,0.037375,-0.094,-0.024125,-0.0242005,0.048462003,0.010162249,1741898234.958721
0.047,0.070625,0.1335,-0.00517275,-0.00112925,-0.0061339997,0.0435,-0.092,-0.028125,-0.023071252,0.032714747,0.00697325,1741898234.973304
0.0495,0.069,0.135,-0.004074,0.00036625,-0.0075682504,0.04875,-0.096375,-0.03575,-0.019989,0.023681749,0.00538625,1741898234.9878771
0.0525,0.0635,0.134625,-0.00054925,0.00355525,-0.00924675,0.049125,-0.099375,-0.038375,-0.0160065,0.014663749,0.00378425,1741898235.006958
0.05875,0.045125,0.123875,0.00148,0.00511175,-0.0091705,0.046625,-0.1015,-0.041125,-0.0075682504,-0.0022735,0.00054925,1741898235.017279
0.0595,0.0385,0.114625,0.0033722501,0.0064850003,-0.007599,0.045375,-0.100375,-0.039125,-0.0037079998,-0.010513251,-0.00077825,1741898235.0320551
0.051625,0.047875,0.105,0.00320425,0.0061950004,-0.0069274995,0.044875,-0.098,-0.034,0.003418,-0.0266265,-0.0028535,1741898235.0467992
0.046375,0.058,0.112375,0.001648,0.0059967497,-0.00830075,0.043,-0.09775,-0.024625,0.0068207504,-0.033966,-0.00390625,1741898235.066218
0.043625,0.07475,0.13825,0.001419,0.0070952503,-0.010101249,0.03975,-0.10125,-0.02075,0.01351925,-0.04777525,-0.0058287503,1741898235.07627
0.047625,0.073,0.141125,0.002472,0.0089875,-0.01228325,0.030375,-0.10675,-0.009125,0.017105,-0.054596,-0.00672925,1741898235.090965
0.05225,0.065625,0.134625,0.00611875,0.0128785,-0.01504525,0.027,-0.10575,-0.0055,0.02409375,-0.068374746,-0.009017999,1741898235.108652
0.055,0.050875,0.111375,0.00668325,0.01358025,-0.0153502505,0.019,-0.103,-0.0015,0.02699275,-0.07421875,-0.010024999,1741898235.120524
0.052125,0.0455,0.10475,0.0056915004,0.012756251,-0.0157165,0.01575,-0.1025,0.001,0.03273,-0.0834655,-0.011764499,1741898235.135118
0.046375,0.0345,0.098375,0.00505075,0.01200875,-0.016159,0.009875,-0.100875,-0.002875,0.035888746,-0.086456254,-0.0125275,1741898235.1500669
0.045875,0.028375,0.095125,0.00466925,0.010253999,-0.01646425,0.0025,-0.106,-0.00175,0.04125975,-0.090072505,-0.01380925,1741898235.164573
0.047125,0.019,0.0885,0.0048979996,0.009216251,-0.01596075,-0.01125,-0.111625,0.015625,0.044159,-0.090652496,-0.01368725,1741898235.179285
0.047875,0.01575,0.085125,0.00520325,0.0081025,-0.015075751,-0.01725,-0.11475,0.029125,0.050003,-0.083984256,-0.014038,1741898235.193996
0.04825,0.01275,0.0815,0.00570675,0.0053709997,-0.01245125,-0.023,-0.122,0.043875,0.04930125,-0.07699575,-0.013931249,1741898235.208742
0.046875,0.005625,0.07725,0.00561525,0.0037537501,-0.010849,-0.026625,-0.11125,0.041125,0.043975748,-0.06549075,-0.01753225,1741898235.226636
0.044625,0.002875,0.078375,0.00408925,0.0004425,-0.0072632497,-0.046,-0.1255,0.0255,0.0434265,-0.06228625,-0.020034749,1741898235.2382772
0.0415,-0.00075,0.085125,0.0031127501,-0.001007,-0.00543225,-0.055,-0.151,0.01825,0.038955748,-0.058014,-0.021698,1741898235.252984
0.04125,-0.002375,0.09025,0.001236,-0.00328075,-0.00157175,-0.0745,-0.1955,0.0585,0.0315095,-0.053970248,-0.02076725,1741898235.267755
0.040625,-0.00225,0.09575,0.0001525,-0.00411975,0.00064075,-0.0775,-0.2005,0.080875,0.009903,-0.036499,-0.01589975,1741898235.286603
0.04025,0.00025,0.096,-0.0016632499,-0.0053252503,0.00514225,-0.0685,-0.176625,0.095125,0.00105275,-0.02699275,-0.01272575,1741898235.2972941
0.0415,0.00925,0.096625,-0.00242625,-0.00587475,0.00712575,-0.066,-0.168,0.103125,-0.0037537501,-0.01937875,-0.009369001,1741898235.3121269
0.04275,0.013875,0.100375,-0.00317375,-0.0063325,0.008850001,-0.066,-0.17075,0.118375,-0.0042267498,-0.0067445002,-0.0020599999,1741898235.326881
0.0435,0.017625,0.1055,-0.00419625,-0.006302,0.0115205,-0.064125,-0.175125,0.11475,-0.00225825,-0.0003205,0.001587,1741898235.3463821
0.043625,0.0195,0.119875,-0.0045012496,-0.0057525,0.01251225,-0.0605,-0.174875,0.107125,0.0020905002,0.01197825,0.00782775,1741898235.356055
0.044875,0.016,0.123875,-0.004486,-0.00340275,0.01474,-0.0525,-0.166,0.085875,0.00325,0.017746,0.01033025,1741898235.370647
0.050125,0.01525,0.123875,-0.0045165,-0.00225825,0.01628125,-0.04925,-0.1625,0.073,0.0005645,0.028137252,0.01445,1741898235.386678
0.051875,0.021375,0.123625,-0.0043335,-0.0005035,0.019134501,-0.043125,-0.1545,0.05525,-0.0030975002,0.032943748,0.01589975,1741898235.39969
0.0565,0.034125,0.121125,-0.0034637498,0.0004425,0.02009575,-0.041125,-0.151125,0.04925,-0.01071175,0.041396998,0.01782225,1741898235.414314
0.060375,0.032875,0.118375,-0.00148,0.00160225,0.02073675,-0.03625,-0.143125,0.035125,-0.01351925,0.0446015,0.01852425,1741898235.428962
0.062875,0.028125,0.116625,0.0043335,0.00381475,0.02250675,-0.03375,-0.13675,0.02825,-0.015625,0.046936,0.019348249,1741898235.446238
0.06125,0.03775,0.1135,0.00646975,0.00463875,0.023758,-0.035375,-0.130125,0.022,-0.015029999,0.0477295,0.019638,1741898235.4581828
0.0605,0.0535,0.111125,0.00903325,0.00535575,0.02389525,-0.036,-0.132875,0.017125,-0.0138855,0.0519105,0.02006525,1741898235.472738
0.061375,0.07725,0.1065,0.009643501,0.0053405,0.02250675,-0.036125,-0.138625,0.009,-0.014206001,0.05416875,0.020446751,1741898235.487436
0.062625,0.0825,0.10325,0.01062,0.0047302498,0.01841725,-0.035875,-0.13875,0.00725,-0.017868,0.05882275,0.0218505,1741898235.506953
0.061125,0.086625,0.094875,0.0109709995,0.00393675,0.01576225,-0.029125,-0.132125,-0.011375,-0.02180475,0.062561,0.02247625,1741898235.516845
0.058375,0.083,0.09075,0.011031999,0.00267025,0.0127105,-0.021875,-0.1245,-0.023125,-0.027176,0.06675725,0.022521999,1741898235.531549
0.054625,0.075125,0.091125,0.01121525,-0.00016775,0.0072632497,-0.004625,-0.108125,-0.036375,-0.038971,0.07434075,0.02105725,1741898235.5462961
0.04875,0.058875,0.103375,0.0113525,-0.00065625,0.00579825,0.00175,-0.1015,-0.0375,-0.0429535,0.07637025,0.020034749,1741898235.560881
0.049625,0.057625,0.112375,0.008636501,0.00057975,0.004486,0.0065,-0.097125,-0.03575,-0.04467775,0.0744935,0.016388,1741898235.575458
0.05875,0.065875,0.126875,0.0052947504,0.0016632499,0.0034790002,0.018,-0.091125,-0.02725,-0.043167,0.071579,0.0148925,1741898235.590157
0.063,0.072,0.128125,-0.00149525,0.0035704998,0.00024425,0.02525,-0.086125,-0.0255,-0.034408502,0.061905,0.013931249,1741898235.6081522
0.066125,0.082,0.12075,-0.0033570002,0.0043335,-0.001892,0.037875,-0.08175,-0.031,-0.0278015,0.05488575,0.012924249,1741898235.61946
0.066625,0.081875,0.114375,-0.00396725,0.00494375,-0.0043335,0.041375,-0.084625,-0.035625,-0.015808,0.03926075,0.009155249,1741898235.6340559
0.067625,0.07875,0.106875,-0.0037385002,0.00517275,-0.0093995,0.048125,-0.085,-0.042625,-0.011901749,0.0318755,0.0070952503,1741898235.650655
0.0685,0.06425,0.094625,-0.0035704998,0.0047302498,-0.01150525,0.051125,-0.082375,-0.043375,-0.006546,0.018707251,0.00254825,1741898235.666238
0.066125,0.055625,0.0905,-0.00390625,0.00308225,-0.01380925,0.053125,-0.082625,-0.042,-0.00355525,0.01248175,0.0002595,1741898235.677949
0.05725,0.042125,0.085375,-0.00466925,0.002121,-0.013916001,0.05225,-0.086125,-0.043,0.00334175,-6.1000002e-05,-0.00369275,1741898235.6925921
0.0545,0.045375,0.086125,-0.00671375,0.00080875,-0.013778751,0.05025,-0.09125,-0.047375,0.0056609996,-0.00637825,-0.0053709997,1741898235.70733
0.0615,0.056,0.087875,-0.00720225,0.00036625,-0.01490775,0.049625,-0.0915,-0.04775,0.0072785,-0.01911925,-0.008072,1741898235.726449
0.068125,0.058,0.08875,-0.0067597497,-0.001007,-0.01791375,0.04575,-0.093875,-0.042875,0.0075225,-0.025528,-0.00912475,1741898235.736713
0.075625,0.0535,0.089125,-0.00611875,-0.0020295,-0.01924125,0.041,-0.0975,-0.03875,0.009552,-0.03822325,-0.011245751,1741898235.751542
0.072875,0.049125,0.09175,-0.0054932497,-0.003128,-0.020218,0.029875,-0.1075,-0.032,0.01206975,-0.04449475,-0.01239025,1741898235.766748
0.06575,0.04925,0.097875,-0.0037537501,-0.0045777503,-0.02095025,0.026,-0.108625,-0.028375,0.01510625,-0.050491247,-0.013503999,1741898235.78099
0.05075,0.050875,0.118625,-0.0025634998,-0.00434875,-0.02153025,0.01775,-0.1085,-0.026,0.022171,-0.0612945,-0.01570125,1741898235.795771
0.048375,0.046125,0.1275,-0.0014037499,-0.0022125002,-0.0229645,0.01375,-0.108875,-0.027625,0.02516175,-0.0659485,-0.01675425,1741898235.810787
0.050625,0.0365,0.128625,-0.00193775,-0.001068,-0.0231475,0.007875,-0.110125,-0.02825,0.026519751,-0.073288,-0.01835625,1741898235.826599
0.0515,0.036,0.122625,-0.0037385002,-4.575e-05,-0.022812,-0.010375,-0.1175,-0.01725,0.025268499,-0.076171756,-0.018859752,1741898235.840103
0.04725,0.036875,0.11675,-0.00402825,0.0,-0.023040751,-0.019125,-0.1225,-0.00475,0.0224,-0.07972725,-0.019134501,1741898235.8549418
0.043125,0.034375,0.116125,-0.0032195,9.15e-05,-0.02415475,-0.0265,-0.128,0.026625,0.022094749,-0.07987975,-0.018432502,1741898235.86956
0.037375,0.0225,0.113875,-0.002121,0.00029,-0.02439875,-0.025375,-0.12225,0.03825,0.02301025,-0.074646,-0.01649475,1741898235.8860018
0.03675,0.013125,0.112875,-0.0005645,0.00057975,-0.02430725,-0.028,-0.1215,0.037625,0.023834249,-0.06938175,-0.017151,1741898235.899009
0.03825,0.00125,0.111,0.00254825,0.001175,-0.022643998,-0.035625,-0.131625,0.037625,0.02012625,-0.05836475,-0.0187225,1741898235.913805
0.043,-0.018875,0.104875,0.0030975002,0.00115975,-0.02050775,-0.053875,-0.149,0.06925,0.015594499,-0.053772,-0.0187225,1741898235.928524
0.04525,-0.02225,0.100625,0.00198375,0.0002595,-0.0141755,-0.057625,-0.155125,0.086625,0.00785825,-0.04299925,-0.01620475,1741898235.9463239
0.049875,-0.025625,0.093125,0.0009155,-0.0005035,-0.010757499,-0.055875,-0.164125,0.090875,0.00570675,-0.03701775,-0.01445,1741898235.958026
0.0505,-0.02875,0.092125,-0.0016175,-0.00228875,-0.004013,-0.0555,-0.167875,0.088375,0.00245675,-0.02519225,-0.01033025,1741898235.972776
0.04725,-0.030125,0.094625,-0.0025634998,-0.0030669998,-0.00045775,-0.059875,-0.180125,0.098375,0.00054925,-0.0193635,-0.0072480002,1741898235.987541
0.04425,-0.026,0.0965,-0.003662,-0.0038757501,0.0065307496,-0.06075,-0.18425,0.108,-0.003769,-0.006668,0.00068675,1741898236.0057118
0.041375,-0.013,0.10125,-0.00384525,-0.00384525,0.009506251,-0.0565,-0.1775,0.115375,-0.00520325,0.00016775,0.0045625,1741898236.016921
0.0435,-0.008375,0.101875,-0.00390625,-0.003662,0.012115501,-0.050875,-0.169375,0.108375,-0.0062255003,0.013503999,0.010024999,1741898236.0315368
0.046375,-0.004,0.102375,-0.0041044997,-0.0033264998,0.0169525,-0.03625,-0.153125,0.083125,-0.0066374997,0.01924125,0.0115967505,1741898236.046632
0.04725,0.005,0.106375,-0.0042725,-0.003128,0.01911925,-0.03125,-0.147875,0.073625,-0.0075225,0.027649,0.013564999,1741898236.0608
0.045,0.008375,0.110375,-0.004303,-0.0024414998,0.0224305,-0.026375,-0.145125,0.061125,-0.008072,0.0308075,0.014358499,1741898236.075433
0.03975,0.00875,0.117,-0.00390625,-0.001709,0.02386475,-0.02525,-0.146,0.051375,-0.00880425,0.033584498,0.015213001,1741898236.090219
0.03825,0.00575,0.116875,-0.0029755002,-0.00010675,0.027130252,-0.0245,-0.146375,0.040625,-0.011627249,0.03804025,0.0172425,1741898236.109268
0.038,0.004625,0.116125,-0.00242625,0.0007325,0.0291595,-0.0205,-0.1385,0.0225,-0.01412975,0.0401765,0.01808175,1741898236.119452
0.040125,0.01075,0.113125,-0.0019685,0.0015105,0.031158501,-0.016625,-0.13175,0.01575,-0.020874001,0.044540502,0.018402,1741898236.134239
0.04975,0.024375,0.102,-0.0012817499,0.00193775,0.03395075,-0.00675,-0.12,0.01425,-0.024780251,0.04667675,0.01779175,1741898236.151648
0.0555,0.028625,0.09475,0.00013725001,0.0014037499,0.034668,-0.00275,-0.1165,0.019,-0.03211975,0.051422,0.0157165,1741898236.1659598
0.057875,0.0305,0.091125,0.0043944996,-0.0013427499,0.035888746,0.001625,-0.11275,0.025125,-0.0345155,0.054183997,0.014648501,1741898236.178078
0.046625,0.043625,0.105,0.00555425,-0.00242625,0.03686525,0.00325,-0.108125,0.024875,-0.034973253,0.061676,0.01367175,1741898236.1926022
0.041,0.06425,0.113375,0.00764475,-0.0016632499,0.03712475,0.007,-0.09575,0.0265,-0.03306575,0.06575,0.0134735005,1741898236.207096
0.04975,0.097625,0.11475,0.00924675,-0.00054925,0.03556825,0.008625,-0.09375,0.0235,-0.026550248,0.069198504,0.012085,1741898236.22634
0.058125,0.104,0.111625,0.011306751,0.00099175,0.030746501,0.010875,-0.104375,0.00925,-0.0225525,0.0669555,0.010666001,1741898236.236096
0.0635,0.108625,0.106875,0.01086425,0.001068,0.027893,0.01325,-0.10825,0.00375,-0.015625,0.06033325,0.010086001,1741898236.250699
0.060625,0.109125,0.107,0.009872501,0.00080875,0.024643,0.022125,-0.10175,-0.001875,-0.013427749,0.056076,0.01042175,1741898236.266746
0.057625,0.10575,0.109125,0.00801075,0.00065625,0.01670825,0.02875,-0.097,-0.006625,-0.012039251,0.051437248,0.010513251,1741898236.279895
0.05925,0.094125,0.115375,0.00720225,0.00125125,0.0128785,0.039375,-0.08925,-0.015375,-0.010162249,0.040527247,0.00968925,1741898236.2945411
0.063625,0.093,0.118375,0.0044707498,0.003128,0.0071105,0.04275,-0.088375,-0.018875,-0.008850001,0.034195,0.00874325,1741898236.309154
0.068625,0.098375,0.123,0.003006,0.0040435,0.0047455,0.045875,-0.0885,-0.021625,-0.0067597497,0.02101125,0.006302,1741898236.326634
0.06725,0.097875,0.123,0.00175475,0.0047912505,0.00239575,0.050375,-0.08675,-0.02525,-0.0055085,0.014510999,0.00494375,1741898236.338444
0.065,0.095625,0.119875,-0.0013427499,0.00579825,-0.0026854998,0.0525,-0.084625,-0.026625,-0.00131225,0.0014495,0.00201425,1741898236.353127
0.060625,0.0865,0.10675,-0.0029907501,0.0057220003,-0.00546275,0.05525,-0.082125,-0.02725,0.00062550005,-0.00535575,0.00042725,1741898236.367742
0.058,0.07925,0.10025,-0.0057220003,0.004303,-0.00997925,0.056125,-0.082,-0.02725,0.0027465,-0.0190735,-0.00308225,1741898236.385953
0.0545,0.079125,0.0925,-0.0070342496,0.00320425,-0.011673001,0.05625,-0.08125,-0.02325,0.0033570002,-0.025512751,-0.0049742498,1741898236.397313
0.054125,0.08225,0.094,-0.00823975,0.00160225,-0.01608275,0.053875,-0.082,-0.019375,0.00640875,-0.037658747,-0.008514499,1741898236.4120388
0.055875,0.084,0.10275,-0.0076295,0.0013427499,-0.018615749,0.04475,-0.087625,-0.012625,0.009781,-0.0435485,-0.0102235,1741898236.42676
0.05625,0.078125,0.105875,-0.00596625,0.00149525,-0.022949249,0.038375,-0.093625,-0.00775,0.0164795,-0.05384825,-0.013488751,1741898236.446235
0.054125,0.0615,0.106375,-0.0055695,0.0016175,-0.02421575,0.02525,-0.10425,0.003,0.0190735,-0.05836475,-0.0148772495,1741898236.456165
0.051625,0.056375,0.10425,-0.0054015,0.0016632499,-0.0249635,0.021,-0.107375,0.004875,0.0237885,-0.064682,-0.01643375,1741898236.470796
0.049125,0.054,0.102875,-0.0050965,0.001175,-0.025879,0.014,-0.10875,0.004125,0.026764,-0.06649775,-0.01693725,1741898236.486229
0.046125,0.052375,0.105875,-0.00514225,0.00093075,-0.026397752,0.008875,-0.110625,0.00775,0.032837003,-0.068740755,-0.016967751,1741898236.500177
0.04425,0.05275,0.110875,-0.0049590003,0.0009765,-0.02760325,-0.001125,-0.117375,0.02025,0.03530875,-0.0681915,-0.015274,1741898236.514914
0.039625,0.0465,0.117875,-0.00428775,0.0014037499,-0.028289748,-0.00225,-0.1145,0.022375,0.037201,-0.0662995,-0.013214,1741898236.5295942
0.03825,0.03775,0.117375,-0.0013885,0.002777,-0.028534,-0.00575,-0.115375,0.017875,0.037552,-0.060806252,-0.013626001,1741898236.545969
0.03775,0.019,0.112375,0.000473,0.003418,-0.02769475,-0.01375,-0.127625,0.02725,0.03648375,-0.05815125,-0.0151215,1741898236.558955
0.03825,0.011375,0.107875,0.002121,0.003769,-0.026474,-0.02375,-0.1405,0.043875,0.0309295,-0.050659247,-0.01542675,1741898236.573745
0.039,0.00375,0.103,0.00384525,0.00325,-0.0233155,-0.033,-0.154,0.074,0.0269165,-0.045287997,-0.0149535,1741898236.589686
0.041625,-0.00775,0.094125,0.003952,0.0023345,-0.021209748,-0.03275,-0.158375,0.077,0.01823425,-0.032776,-0.014038,1741898236.603342
0.0415,-0.010875,0.09225,0.00325,-0.00024425,-0.0162505,-0.034,-0.16275,0.065,0.014145001,-0.02705375,-0.012985251,1741898236.6179972
0.038375,-0.013375,0.096625,0.002777,-0.0013580001,-0.01367175,-0.038125,-0.163875,0.064,0.0074615004,-0.0185395,-0.009079001,1741898236.6327748
0.038625,-0.015,0.098625,0.00239575,-0.00263975,-0.008590749,-0.048125,-0.17375,0.084,0.00505075,-0.014434749,-0.0062712496,1741898236.6475232
0.04275,-0.015875,0.095625,0.00190725,-0.00320425,-0.00579825,-0.051,-0.181125,0.092625,0.0019989999,-0.00416575,0.00036625,1741898236.666075
0.044375,-0.00975,0.092875,-0.000412,-0.0048979996,-0.000122000005,-0.048375,-0.181875,0.094,0.0002595,0.0016632499,0.0034637498,1741898236.6766841
0.048375,0.007125,0.092375,-0.00154125,-0.00567625,0.0021819999,-0.0455,-0.17625,0.088125,-0.005539,0.013351499,0.008361749,1741898236.6911979
0.051125,0.01025,0.09325,-0.0024872501,-0.006073,0.0041044997,-0.038,-0.158375,0.075375,-0.008941749,0.018585252,0.01042175,1741898236.706496
0.0535,0.011375,0.097,-0.00460825,-0.006302,0.007553,-0.033125,-0.1485,0.072125,-0.01368725,0.02734375,0.013061499,1741898236.720505
0.055125,0.014125,0.10875,-0.00579825,-0.0059967497,0.00912475,-0.023125,-0.133875,0.070375,-0.014648501,0.0310975,0.01339725,1741898236.7351968
0.055875,0.0185,0.11375,-0.007599,-0.0043639997,0.0119630005,-0.019625,-0.133,0.065,-0.0150605,0.0365905,0.0133667495,1741898236.749863
0.05525,0.034,0.12325,-0.00747675,-0.0030365,0.013046251,-0.018625,-0.1355,0.048125,-0.0158845,0.0386505,0.013488751,1741898236.767601
0.056375,0.04,0.122625,-0.005066,-9.15e-05,0.014007499,-0.017125,-0.133,0.036375,-0.01763925,0.04167175,0.013427749,1741898236.779158
0.063875,0.04325,0.112625,-0.0037995,0.00093075,0.0141755,-0.009,-0.12075,0.018625,-0.02130125,0.04689025,0.0129395,1741898236.793796
0.065875,0.04525,0.11,-0.003006,0.0014495,0.0142365,-0.005625,-0.115625,0.018375,-0.021881001,0.0483245,0.01251225,1741898236.8084
0.066,0.0455,0.11,-0.00267025,0.001892,0.013336251,-0.0045,-0.11625,0.021125,-0.020049999,0.052383497,0.0119934995,1741898236.825602
0.065375,0.036,0.11,-0.002365,0.0020905002,0.012771499,-0.003,-0.12425,0.022375,-0.01896675,0.056335498,0.012802,1741898236.837666
0.06525,0.031125,0.10875,-0.00062550005,0.0023345,0.0128632495,-0.000375,-0.12475,0.01875,-0.01852425,0.06604,0.01579275,1741898236.852214
0.064125,0.031375,0.102625,0.0004425,0.0024414998,0.01339725,0.002375,-0.11625,0.003375,-0.017547501,0.0683135,0.01649475,1741898236.866737
0.063375,0.037875,0.099375,0.0033570002,0.0022735,0.014068499,0.005875,-0.1125,-0.001625,-0.014679,0.0659485,0.015579251,1741898236.882132
0.063875,0.047375,0.090125,0.00494375,0.00163275,0.013564999,0.0155,-0.10575,-0.009625,-0.01295475,0.0620575,0.015442001,1741898236.8960042
0.062625,0.04225,0.089375,0.00561525,0.000534,0.012802,0.018625,-0.103875,-0.012875,-0.00715625,0.051880002,0.01474,1741898236.910591
0.059375,0.037125,0.092625,0.002884,-0.00148,0.012619001,0.026375,-0.1,-0.023875,-0.0033875,0.046814,0.014038,1741898236.926305
0.052875,0.050125,0.101125,0.000824,-0.00213625,0.012557999,0.031625,-0.09575,-0.028,0.00201425,0.035766497,0.011749251,1741898236.9397051
0.051625,0.058875,0.10375,-0.0012665,-0.0025634998,0.010498,0.04375,-0.08375,-0.02925,0.00308225,0.0298615,0.010162249,1741898236.954376
0.0515,0.074125,0.10775,-0.00148,-0.0023039998,0.0091095,0.04775,-0.080625,-0.030125,0.0034942501,0.023834249,0.00839225,1741898236.9688268
0.05275,0.0795,0.110625,-0.00064075,-0.0009765,0.00587475,0.051875,-0.0805,-0.035625,0.0038299998,0.01171875,0.0046234997,1741898236.9860559
0.059125,0.07775,0.115,0.00016775,3.0500001e-05,0.0039825,0.054625,-0.08075,-0.0385,0.0042725,0.0058899997,0.002533,1741898236.997843
0.06225,0.073375,0.1155,0.00074775,0.00108325,0.002121,0.0575,-0.080625,-0.04075,0.0057372497,-0.0044707498,-0.0021057501,1741898237.012605
0.063875,0.06875,0.1145,0.0009765,0.00283825,-0.00109875,0.060625,-0.07925,-0.04475,0.006836,-0.0091705,-0.00440975,1741898237.0272949
0.064375,0.056125,0.109875,0.000763,0.0033875,-0.0022277501,0.06,-0.079375,-0.046125,0.00985725,-0.0186005,-0.008606,1741898237.042777
0.06375,0.054875,0.10675,-0.00039675,0.0036162501,-0.00314325,0.054375,-0.083375,-0.04525,0.0118407495,-0.02357475,-0.010589501,1741898237.0567412
0.06475,0.06575,0.10425,-0.001007,0.00352475,-0.0038605002,0.05025,-0.08625,-0.045625,0.01440425,-0.03344725,-0.01431275,1741898237.0715048
0.06625,0.072,0.105625,-0.00045775,0.00355525,-0.0070342496,0.038125,-0.089875,-0.0475,0.014053251,-0.03822325,-0.016037,1741898237.089113
0.06925,0.070375,0.106,0.0007325,0.0037537501,-0.009017999,0.030125,-0.092625,-0.044875,0.0110932505,-0.04812625,-0.019104,1741898237.101008
0.06875,0.063375,0.10575,0.00177,0.00393675,-0.010681249,0.01625,-0.099125,-0.0335,0.00985725,-0.05325325,-0.0203705,1741898237.115728
0.06625,0.058,0.10525,0.0027160002,0.0045165,-0.012680001,0.011125,-0.102125,-0.027875,0.0094604995,-0.062561,-0.022521999,1741898237.1305118
0.06025,0.05425,0.105125,0.00289925,0.0049285004,-0.0136565,0.00275,-0.104,-0.027,0.0099639995,-0.0661315,-0.02342225,1741898237.146227
0.059,0.050375,0.104875,0.00283825,0.0050812503,-0.01531975,-0.001375,-0.1025,-0.026625,0.012771499,-0.0724335,-0.025421249,1741898237.16016
0.057375,0.046,0.106125,0.0022125002,0.0049590003,-0.01576225,-0.018,-0.105875,-0.0075,0.01425175,-0.07536325,-0.026519751,1741898237.174927
0.054625,0.044875,0.10725,0.001114,0.004837,-0.01622,-0.027875,-0.111375,0.01175,0.01396175,-0.0763855,-0.0275115,1741898237.18963
0.047,0.048125,0.105625,0.00035100002,0.0046845004,-0.016388,-0.041875,-0.127125,0.074,0.01278675,-0.07244875,-0.02696225,1741898237.205656
0.044375,0.047625,0.104125,-0.00102225,0.00434875,-0.01681525,-0.044375,-0.12575,0.103,0.016113251,-0.05783075,-0.021881001,1741898237.218997
0.044,0.038375,0.10125,-0.0033570002,0.003418,-0.01808175,-0.042375,-0.104,0.105375,0.022354,-0.048950247,-0.0211335,1741898237.233769
0.0455,0.0305,0.098875,-0.0035704998,0.0029449998,-0.01855475,-0.046375,-0.11725,0.0835,0.029449498,-0.0416565,-0.023101749,1741898237.248587
0.04725,0.02175,0.09625,-0.0029449998,0.0017852499,-0.018020751,-0.067,-0.175125,0.0495,0.0355835,-0.034134,-0.024810748,1741898237.266208
0.04975,0.00625,0.090875,-0.00254825,0.00102225,-0.0168305,-0.07725,-0.206875,0.048625,0.03176875,-0.03047175,-0.0224,1741898237.2779431
0.0515,-0.00075,0.08825,-0.002472,-0.00109875,-0.012924249,-0.08075,-0.231375,0.05325,0.01142875,-0.01620475,-0.012756251,1741898237.2927418
0.054,-0.009625,0.088875,-0.00314325,-0.002365,-0.010559,-0.067875,-0.234,0.0705,-0.00045775,-0.00694275,-0.0068055,1741898237.3073971
0.053375,-0.011875,0.0915,-0.005539,-0.0048065,-0.00541675,-0.0565,-0.219,0.079,-0.013214,0.01004025,0.003769,1741898237.328094
0.0505,-0.008875,0.097375,-0.0064850003,-0.0056915004,-0.0025634998,-0.036375,-0.193625,0.07825,-0.01425175,0.0166015,0.0077515002,1741898237.336713
0.049625,-0.004125,0.101,-0.0069274995,-0.00631725,0.000229,-0.03175,-0.182125,0.069625,-0.01339725,0.0256195,0.01380925,1741898237.351399
0.051125,0.002,0.109,-0.0059967497,-0.0060425,0.0053405,-0.026625,-0.161625,0.046875,-0.013137749,0.028442498,0.0160675,1741898237.36665
0.05475,0.0025,0.10975,-0.0049742498,-0.0051880004,0.0077515002,-0.022125,-0.151,0.0395,-0.013443,0.03215025,0.01890575,1741898237.3806279
0.0585,0.00275,0.1095,-0.0031889998,-0.00331125,0.01251225,-0.013375,-0.133125,0.03475,-0.012420749,0.0335235,0.019638,1741898237.395214
0.058,0.0095,0.112125,-0.00279225,-0.0025787498,0.014800999,-0.011625,-0.13175,0.03125,-0.00715625,0.03508,0.021041749,1741898237.409837
0.055375,0.01675,0.11475,-0.0024872501,-0.0010375,0.01835625,-0.012375,-0.138375,0.0265,-0.004547,0.03524775,0.022033751,1741898237.426156
0.05875,0.030625,0.119125,-0.001892,0.0,0.01950075,-0.012625,-0.14125,0.02775,-0.001709,0.03601075,0.024810748,1741898237.439126
0.0635,0.032875,0.11975,0.00057975,0.002533,0.021286,-0.014125,-0.141875,0.020625,-0.0022735,0.037201,0.026413,1741898237.453716
0.0695,0.03425,0.11075,0.0017395001,0.0036010002,0.022232,-0.013875,-0.14275,0.008875,-0.009719751,0.04185475,0.02886975,1741898237.468395
0.068875,0.037,0.105125,0.002411,0.00413525,0.02313225,-0.008375,-0.137375,-0.014625,-0.01567075,0.0449525,0.02943425,1741898237.4859898
0.067,0.039625,0.101375,0.0042572496,0.00437925,0.024047751,-0.004375,-0.126875,-0.019,-0.02124025,0.047958247,0.029601999,1741898237.497808
0.0645,0.05075,0.09825,0.0059967497,0.00444025,0.0239105,0.002125,-0.10325,-0.00475,-0.027557248,0.052474998,0.028991751,1741898237.51247
0.065,0.060125,0.096625,0.0101775,0.00434875,0.022293,0.007,-0.096875,-0.0015,-0.028289748,0.054382253,0.028411752,1741898237.5271091
0.067125,0.074375,0.093125,0.012207,0.004074,0.020782499,0.012,-0.0945,-0.00525,-0.02781675,0.0552825,0.026733499,1741898237.546865
0.066875,0.07675,0.092,0.01402275,0.0029145,0.01719675,0.02,-0.089625,-0.021625,-0.0274505,0.05435175,0.0259095,1741898237.556426
0.058875,0.080625,0.095625,0.013839751,0.002121,0.0149535,0.025125,-0.085,-0.027625,-0.02610775,0.050536998,0.023101749,1741898237.5711098
0.052875,0.0785,0.09775,0.013198749,0.0013427499,0.012436,0.037125,-0.072375,-0.03225,-0.02436825,0.0474395,0.0204925,1741898237.589518
0.04825,0.077,0.10175,0.011260999,0.0001525,0.0077972496,0.044125,-0.0645,-0.030125,-0.018432502,0.03933725,0.0138245,1741898237.6004531
0.046,0.073,0.117,0.0105742505,0.00027475,0.00567625,0.052,-0.057875,-0.033625,-0.01380925,0.034546003,0.011078,1741898237.615248
0.049125,0.07225,0.125,0.0065612504,0.00289925,0.0026092501,0.053375,-0.061375,-0.040375,-0.00390625,0.0213775,0.0070647504,1741898237.629953
0.063625,0.079375,0.13075,0.003006,0.004837,0.00099175,0.056125,-0.07175,-0.053375,-0.00080875,0.013778751,0.00520325,1741898237.6477098
0.0705,0.08075,0.1275,-4.575e-05,0.006546,-0.00112925,0.05675,-0.07525,-0.056625,0.00131225,-0.00109875,0.001007,1741898237.65921
0.07425,0.07725,0.12125,-0.0027160002,0.0085602505,-0.0062255003,0.05725,-0.076125,-0.05375,0.00169375,-0.008194,-0.0014037499,1741898237.6739461
0.0745,0.063625,0.1045,-0.0031127501,0.00880425,-0.008377,0.057125,-0.075,-0.05,0.00296025,-0.02230825,-0.0064239996,1741898237.6886232
0.072375,0.057125,0.09675,-0.00390625,0.00791925,-0.011016751,0.05275,-0.0725,-0.04,0.0037995,-0.0298615,-0.008850001,1741898237.7061188
0.065875,0.052125,0.087,-0.0043639997,0.0070495,-0.0115967505,0.04775,-0.0725,-0.033625,0.00511175,-0.045516998,-0.01380925,1741898237.718027
0.06475,0.051875,0.0845,-0.0042267498,0.0056,-0.01330575,0.03625,-0.076875,-0.01875,0.00579825,-0.053085253,-0.016540501,1741898237.732717
0.06875,0.051875,0.079875,-0.0040435,0.0048979996,-0.01440425,0.02925,-0.081875,-0.01025,0.0070342496,-0.06007375,-0.019348249,1741898237.7474308
0.07175,0.052125,0.07825,-0.003891,0.002777,-0.016098,0.014875,-0.097375,0.003,0.01142875,-0.07080075,-0.023834249,1741898237.76563
0.074875,0.049875,0.075625,-0.00416575,0.001526,-0.016967751,0.009625,-0.103,0.011375,0.013702501,-0.073959254,-0.024932751,1741898237.776704
0.076,0.045875,0.07625,-0.0049285004,0.00019825,-0.0179595,0.006625,-0.102875,0.022875,0.016967751,-0.0759125,-0.0260315,1741898237.7914639
0.076125,0.04225,0.077625,-0.0052642496,-0.00254825,-0.01921075,-0.002625,-0.10175,0.043,0.019027751,-0.07434075,-0.02636725,1741898237.806203
0.068875,0.038375,0.0925,-0.00494375,-0.0036315,-0.0192565,-0.008,-0.108875,0.047875,0.024704,-0.06791675,-0.025177,1741898237.8209379
0.062625,0.039875,0.105,-0.0056915004,-0.00396725,-0.019317752,-0.00925,-0.120375,0.052375,0.026764,-0.063202,-0.024383498,1741898237.835626
0.052125,0.051,0.124375,-0.0063934997,-0.00320425,-0.019638,-0.012,-0.12075,0.052875,0.028411752,-0.052826,-0.02693175,1741898237.850346
0.051,0.052625,0.123375,-0.00514225,-0.00099175,-0.021041749,-0.0275,-0.133625,0.049,0.029846251,-0.049194247,-0.028366,1741898237.866246
0.052875,0.036875,0.110375,-0.00367725,-0.00030525,-0.021560749,-0.03575,-0.151375,0.0425,0.03028875,-0.04385375,-0.027237,1741898237.8798342
0.053625,0.02525,0.103875,-0.0025787498,-0.0004425,-0.0210725,-0.048875,-0.18875,0.048625,0.026291,-0.04037475,-0.02503975,1741898237.8945951
0.054125,0.008875,0.094875,-0.00279225,-0.00109875,-0.0201875,-0.05375,-0.200375,0.063875,0.01245125,-0.028946,-0.017929,1741898237.909386
0.053625,0.00575,0.093625,-0.00308225,-0.0020295,-0.019027751,-0.053375,-0.20525,0.0855,0.0056304997,-0.02149975,-0.013488751,1741898237.926146
0.053,0.00425,0.094125,-0.0029449998,-0.004013,-0.016388,-0.049375,-0.198875,0.086125,-0.0031127501,-0.0065765,-0.0041504996,1741898237.939032
0.053,-0.003625,0.098875,-0.00263975,-0.0047302498,-0.015029999,-0.041625,-0.18525,0.082625,-0.00437925,-0.0005035,0.00059500005,1741898237.9538271
0.053625,-0.010375,0.1005,-0.0024872501,-0.00561525,-0.01127625,-0.039625,-0.184125,0.082625,-0.0048674997,0.009734999,0.009445249,1741898237.968574
0.055375,-0.01975,0.099,-0.00251775,-0.00587475,-0.00852975,-0.038875,-0.183,0.075375,-0.00637825,0.0149535,0.013336251,1741898237.986175
0.056125,-0.0215,0.096625,-0.00245675,-0.0060425,-0.00213625,-0.037375,-0.177875,0.06725,-0.0128632495,0.025299,0.0193635,1741898237.998026
0.0605,-0.01725,0.089625,-0.0024872501,-0.00617975,0.00125125,-0.02925,-0.161,0.05025,-0.017044,0.02993775,0.0214385,1741898238.0128598
0.06375,-0.011,0.087625,-0.00270075,-0.0068665,0.0077515002,-0.024625,-0.151625,0.04575,-0.0239105,0.037674,0.0238495,1741898238.02761
0.06675,0.001625,0.094875,-0.0030975002,-0.00720225,0.010559,-0.018125,-0.136625,0.048,-0.025421249,0.040649503,0.02452075,1741898238.0424309
0.066875,0.008375,0.101125,-0.0037385002,-0.0073395,0.012985251,-0.01575,-0.13,0.053125,-0.02456675,0.045287997,0.02516175,1741898238.057125
0.064875,0.026125,0.107,-0.00531,-0.0070952503,0.016448999,-0.011125,-0.11825,0.054375,-0.022583,0.047348,0.02507025,1741898238.071852
0.063625,0.032625,0.104,-0.00587475,-0.0068665,0.01731875,-0.0085,-0.115,0.04525,-0.01982125,0.0491485,0.02471925,1741898238.089174
0.063,0.03575,0.10025,-0.00611875,-0.00694275,0.017730748,-0.0,-0.113375,0.017125,-0.015335,0.0509795,0.02371225,1741898238.1051369
0.057375,0.03675,0.11075,-0.00643925,-0.00697325,0.017547501,0.005,-0.11275,0.0055,-0.01531975,0.050827,0.022934001,1741898238.115735
0.05225,0.034375,0.122125,-0.00668325,-0.0052337497,0.01725775,0.0095,-0.111125,-0.000875,-0.019195499,0.050109748,0.021103,1741898238.130344
0.048625,0.032875,0.134125,-0.0060272496,-0.0034637498,0.017685,0.01725,-0.102,0.000625,-0.02183525,0.0503845,0.02029425,1741898238.1462662
0.051,0.040875,0.13225,-0.0037385002,0.00029,0.01905825,0.020875,-0.097125,0.00325,-0.0261535,0.051056,0.0184785,1741898238.1594
0.063875,0.054875,0.116,-0.00193775,0.0018005001,0.019195499,0.027125,-0.087625,0.00075,-0.0272675,0.0504455,0.01753225,1741898238.1739461
0.069125,0.057375,0.1055,0.00109875,0.002884,0.01879875,0.030375,-0.083625,-0.002625,-0.026733499,0.04574575,0.01454175,1741898238.1886349
0.06975,0.05825,0.098125,0.008636501,0.0022735,0.01728825,0.0365,-0.08425,-0.009375,-0.0247345,0.041916,0.012756251,1741898238.2063
0.056375,0.056375,0.097125,0.010253999,0.00109875,0.0166625,0.0405,-0.08425,-0.010375,-0.01899725,0.033844,0.0104674995,1741898238.217864
0.048375,0.055875,0.100875,0.00621025,-0.00045775,0.0153655,0.04925,-0.0775,-0.008375,-0.015747,0.029663,0.00941475,1741898238.232449
0.04175,0.072875,0.102625,0.002884,-0.00090025004,0.0139465,0.052375,-0.0745,-0.009125,-0.008850001,0.02006525,0.0063325,1741898238.2471092
0.0425,0.075625,0.101875,-0.00019825,-0.00193775,0.009613,0.056,-0.07425,-0.01975,-0.0055695,0.01460275,0.0045012496,1741898238.26575
0.0445,0.073375,0.115625,-0.000122000005,-0.00154125,0.00770575,0.056625,-0.07575,-0.028,-0.00267025,0.008850001,0.00270075,1741898238.27652
0.049375,0.076125,0.12625,-0.000534,-7.625e-05,0.0059510004,0.057125,-0.07725,-0.04175,0.001419,-0.002777,-0.00057975,1741898238.2911801
0.058625,0.081625,0.133375,-0.003296,0.004303,0.0018615,0.05675,-0.07575,-0.045875,0.00270075,-0.008712751,-0.0021972498,1741898238.3061938
0.0755,0.093125,0.132875,-0.004013,0.00637825,-0.00070200005,0.05575,-0.073,-0.0475,0.004547,-0.02183525,-0.0055695,1741898238.3207428
0.076375,0.09175,0.127875,-0.001526,0.00968925,-0.006256,0.049125,-0.06925,-0.040375,0.0046234997,-0.02931225,-0.00741575,1741898238.335525
0.070125,0.06675,0.110125,0.000473,0.0106965,-0.008667,0.044125,-0.069875,-0.032625,0.00228875,-0.045654252,-0.011673001,1741898238.3502212
0.0655,0.050375,0.09975,0.0012970001,0.0106965,-0.01071175,0.033,-0.0755,-0.017375,0.00105275,-0.05366525,-0.01396175,1741898238.366399
