L-AccX,L-AccY,L-AccZ,L-GyrX,L-GyrY,L-GyrZ,R-AccX,R-AccY,R-AccZ,R-GyrX,R-GyrY,R-GyrZ,timestamp
0.00275,0.03925,0.118125,0.00013725001,0.00062550005,-0.00062550005,0.00225,-0.047375,0.116625,-0.001648,0.000229,-0.000183,1741898286.027782
0.002875,0.041,0.11975,0.00027475,0.00057975,-0.00062550005,0.004125,-0.05175,0.11575,-0.0018005001,0.000122000005,0.000122000005,1741898286.042094
0.002375,0.041375,0.1205,0.00061025,0.00064075,-0.0007325,0.005125,-0.0525,0.11525,-0.00239575,-0.00016775,0.00093075,1741898286.055677
0.000125,0.0405,0.11975,0.00065625,0.00068675,-0.00080875,0.006875,-0.051,0.1135,-0.00267025,-0.00030525,0.00119025,1741898286.070262
-0.000375,0.04075,0.1185,0.00064075,0.00070200005,-0.0009155,0.006375,-0.052125,0.112875,-0.0028074998,-0.00051875,0.001419,1741898286.0864131
-0.000125,0.040875,0.11775,0.00067150005,0.0005645,-0.0012207499,0.005,-0.052125,0.114,-0.00328075,-0.0009765,0.0020599999,1741898286.0995998
0.002125,0.039125,0.118375,0.00068675,0.000473,-0.0012970001,0.005875,-0.050875,0.11225,-0.00358575,-0.001007,0.0021819999,1741898286.114155
0.002625,0.038625,0.119375,0.00064075,0.00039675,-0.001114,0.00675,-0.0515,0.11025,-0.0037537501,-0.0014495,0.0025025,1741898286.128733
0.001375,0.038875,0.12125,0.00064075,0.00045775,-0.00096125,0.0095,-0.05225,0.10875,-0.0034790002,-0.0019225,0.0029449998,1741898286.145493
0.00075,0.03925,0.121375,0.000534,0.00071725,-0.000885,0.01225,-0.052625,0.110875,-0.0022735,-0.0028535,0.00381475,1741898286.158062
0.001125,0.039625,0.11975,0.000412,0.00083925005,-0.00090025004,0.016125,-0.06075,0.118,-0.0016175,-0.0031889998,0.00440975,1741898286.17278
0.002125,0.03925,0.118375,0.00033575002,0.00086975005,-0.000946,0.017875,-0.06825,0.12025,-0.00054925,-0.0037537501,0.0066374997,1741898286.187443
0.003375,0.038375,0.117,0.00027475,0.00064075,-0.00099175,0.026125,-0.086625,0.126125,0.00010675,-0.004074,0.008148249,1741898286.205747
0.004625,0.038375,0.11625,0.00035100002,0.00045775,-0.0009765,0.03125,-0.0915,0.13,0.00228875,-0.004486,0.01171875,1741898286.216655
0.004125,0.039875,0.11725,0.00070200005,0.00019825,-0.00102225,0.030875,-0.084,0.135375,0.00402825,-0.0045012496,0.01368725,1741898286.2313259
0.001375,0.041,0.1195,0.00099175,0.00019825,-0.001114,0.0245,-0.07925,0.140375,0.008636501,-0.00343325,0.01826475,1741898286.246328
0.000125,0.040375,0.120375,0.0012817499,0.0003815,-0.0012665,0.01375,-0.0845,0.151875,0.0104065,-0.0020599999,0.020523,1741898286.26036
-0.0005,0.040125,0.121,0.0012207499,0.000534,-0.00137325,0.01025,-0.09075,0.155625,0.009597749,0.003006,0.02398675,1741898286.274776
0.0005,0.039625,0.11975,0.001068,0.00062550005,-0.001526,0.006125,-0.085875,0.154125,0.0072937496,0.0070037497,0.0247955,1741898286.289245
0.00175,0.03875,0.118,0.00067150005,0.0005035,-0.00177,0.00125,-0.076625,0.146875,0.00460825,0.011383001,0.0250245,1741898286.303678
0.003625,0.038875,0.11675,0.000534,0.0003205,-0.0017852499,-0.005125,-0.068875,0.137375,0.000946,0.017501751,0.02563475,1741898286.318295
0.003625,0.03925,0.1175,0.00070200005,7.625e-05,-0.00184625,-0.015625,-0.061125,0.128125,-0.0001525,0.01899725,0.0262145,1741898286.333117
0.003,0.037875,0.118125,0.00086975005,6.1000002e-05,-0.00190725,-0.020625,-0.054375,0.129125,-0.0020599999,0.02200325,0.0267945,1741898286.350084
0.002875,0.037,0.118375,0.00112925,0.0,-0.001831,-0.020125,-0.0395,0.1215,-0.002655,0.023468,0.026245002,1741898286.36506
0.003375,0.03575,0.118375,0.00102225,0.0,-0.00169375,-0.017,-0.03125,0.1135,-0.002472,0.02371225,0.02386475,1741898286.377151
0.003875,0.03525,0.117875,0.00083925005,-1.5250001e-05,-0.0015565,-0.017125,-0.01325,0.098375,-0.0018005001,0.022766002,0.022354,1741898286.39182
0.004125,0.034875,0.117625,0.0005645,-0.00027475,-0.00125125,-0.015,-0.00825,0.090875,-0.00096125,0.020477248,0.019195499,1741898286.406537
0.00425,0.0355,0.1185,0.0005645,-0.00039675,-0.00109875,-0.009125,0.00225,0.0795,-0.0013427499,0.019134501,0.017685,1741898286.421043
0.00425,0.035625,0.119625,0.00064075,-0.00039675,-0.0007935,-0.007125,0.006625,0.074375,-0.0022735,0.015533499,0.013854999,1741898286.435693
0.00375,0.0355,0.120625,0.00064075,-0.00035100002,-0.00065625,-0.0025,0.011,0.069125,-0.0025940002,0.013122501,0.0117035,1741898286.450141
0.003375,0.0355,0.120375,0.00045775,-0.00030525,-0.00042725,-0.0,0.015125,0.06925,-0.00314325,0.00773625,0.00672925,1741898286.466421
0.0035,0.036125,0.11975,0.00030525,-0.00029,-0.0003815,0.00475,0.021625,0.072,-0.00317375,0.004837,0.0041044997,1741898286.479282
0.003875,0.036125,0.119375,0.0002135,-0.00030525,-0.00035100002,0.00775,0.0235,0.07425,-0.00317375,0.001831,0.00154125,1741898286.4939442
0.004125,0.036625,0.119375,0.00013725001,-0.0004425,-0.0002595,0.013125,0.028125,0.07725,-0.00340275,-0.00384525,-0.0042115003,1741898286.508735
0.00375,0.037375,0.11975,0.000183,-0.000473,-0.0002135,0.013,0.02775,0.079625,-0.00308225,-0.0065307496,-0.00747675,1741898286.525771
0.003125,0.038,0.120125,0.0004425,-0.000412,-0.0002595,0.011875,0.025375,0.08325,-0.00154125,-0.0112305,-0.01396175,1741898286.537795
0.00175,0.03825,0.12075,0.000534,-0.0003205,-0.00030525,0.010375,0.017875,0.09375,-0.00057975,-0.01310725,-0.0170135,1741898286.552455
0.001375,0.038,0.120625,0.00035100002,-0.00013725001,-0.0003815,0.007125,0.01225,0.102,0.00169375,-0.01582325,-0.02241525,1741898286.56707
0.002125,0.0375,0.120375,0.0001525,-7.625e-05,-0.00035100002,-0.0015,-0.00225,0.116375,0.002884,-0.01652525,-0.024643,1741898286.582874
0.00275,0.037875,0.120625,-0.00019825,-4.575e-05,-0.0003205,-0.003625,-0.01075,0.119375,0.005539,-0.017181499,-0.027709998,1741898286.596776
0.002875,0.039,0.12075,-0.000229,-3.0500001e-05,-0.00039675,-0.004875,-0.029875,0.119625,0.00691225,-0.017730748,-0.0285035,1741898286.611661
0.00275,0.038625,0.12025,-0.00016775,0.0,-0.00048825,-0.005125,-0.03975,0.118625,0.009277251,-0.01918025,-0.02911375,1741898286.626357
0.002625,0.038125,0.120125,-0.00010675,1.5250001e-05,-0.00061025,-0.003875,-0.05875,0.11625,0.00991825,-0.01956175,-0.0290985,1741898286.646803
0.002625,0.0375,0.120375,-7.625e-05,0.0,-0.00068675,-0.00025,-0.07175,0.1165,0.0089569995,-0.01927175,-0.02832025,1741898286.658792
0.00275,0.037,0.1205,-7.625e-05,0.0,-0.00074775,0.002625,-0.076625,0.1175,0.0075835,-0.01876825,-0.0275115,1741898286.6734378
0.002625,0.037,0.12125,-9.15e-05,1.5250001e-05,-0.0007325,0.007,-0.081875,0.1185,0.00469975,-0.01728825,-0.02519225,1741898286.688134
0.00225,0.0375,0.121375,-3.0500001e-05,7.625e-05,-0.00068675,0.020375,-0.09275,0.121625,0.0038757501,-0.01655575,-0.0238495,1741898286.7057862
0.001375,0.038125,0.119625,3.0500001e-05,0.00010675,-0.00071725,0.02725,-0.10025,0.123875,0.00390625,-0.015686,-0.021103,1741898286.7174468
0.001625,0.037625,0.118625,3.0500001e-05,7.625e-05,-0.00074775,0.0315,-0.115,0.130875,0.0037385002,-0.0149995005,-0.019577,1741898286.73227
0.002375,0.037,0.117875,-0.00010675,-0.00010675,-0.00065625,0.027625,-0.119625,0.13625,0.0022735,-0.011612001,-0.0152435,1741898286.747435
0.003625,0.036375,0.118,-0.0001525,-0.00019825,-0.00057975,0.021125,-0.124875,0.14825,0.0012665,-0.00889575,-0.012252751,1741898286.761898
0.0035,0.03625,0.118875,-0.00019825,-0.00035100002,-0.000534,0.022125,-0.126375,0.14925,-0.0002595,-0.00296025,-0.0052642496,1741898286.7765079
0.002375,0.036625,0.1195,-0.000183,-0.00039675,-0.00054925,0.025125,-0.12575,0.145875,-0.00024425,-0.00048825,-0.001709,1741898286.7912471
0.00225,0.036,0.119125,-7.625e-05,-0.000534,-0.00035100002,0.02375,-0.125,0.146375,0.00216675,0.00378425,0.0052642496,1741898286.8067222
0.00275,0.036125,0.1185,-6.1000002e-05,-0.00065625,-0.0002135,0.015625,-0.12225,0.15025,0.00372325,0.00617975,0.00880425,1741898286.82025
0.002625,0.036375,0.1185,-9.15e-05,-0.00083925005,-0.00010675,0.01125,-0.118125,0.14775,0.004776,0.01171875,0.01554875,1741898286.834762
0.002875,0.035875,0.11925,-4.575e-05,-0.00090025004,-0.000122000005,0.009,-0.102875,0.13475,0.0044250004,0.014267,0.0184785,1741898286.849327
0.00325,0.0355,0.11975,0.0,-0.000946,-0.00013725001,0.0095,-0.093,0.131625,0.00399775,0.01817325,0.02285775,1741898286.865633
0.003375,0.036,0.12,-7.625e-05,-0.00102225,-3.0500001e-05,0.00675,-0.081375,0.1305,0.00393675,0.019806,0.02424625,1741898286.878263
0.00275,0.038375,0.120875,-0.00010675,-0.00108325,-1.5250001e-05,0.002625,-0.0805,0.128375,0.003296,0.021469,0.0253295,1741898286.89283
0.002125,0.03875,0.121125,0.000183,-0.0009765,-0.0002135,-0.002125,-0.078625,0.12425,-0.00108325,0.025055,0.02661125,1741898286.907604
0.001875,0.035125,0.12175,0.00036625,-0.00077825,-0.00024425,-0.00825,-0.067625,0.116125,-0.00444025,0.02690125,0.026764,1741898286.926178
0.002125,0.034125,0.12175,0.00027475,-0.000534,4.575e-05,-0.00825,-0.059125,0.113375,-0.010757499,0.030365,0.026184,1741898286.937258
0.002625,0.0365,0.121,0.000122000005,-0.00054925,0.000183,-0.0035,-0.03825,0.099125,-0.0129395,0.0315095,0.02560425,1741898286.9519
0.002625,0.038,0.12125,1.5250001e-05,-0.00057975,0.000229,0.0,-0.02625,0.091625,-0.01446525,0.031311,0.02363575,1741898286.9663548
0.0025,0.039125,0.121625,3.0500001e-05,-0.00051875,3.0500001e-05,0.00275,-0.007875,0.085375,-0.0139465,0.0301055,0.0221405,1741898286.980885
0.00225,0.03925,0.12075,0.000183,-0.0005035,-0.00010675,0.002875,-0.00325,0.083625,-0.01150525,0.026245002,0.01882925,1741898286.995374
0.002125,0.0385,0.120125,0.00033575002,-0.00048825,-0.00027475,0.006,-0.0,0.077,-0.010024999,0.023834249,0.01716625,1741898287.009883
0.00125,0.03775,0.1205,0.00019825,-0.00042725,-0.0003205,0.009,0.00125,0.072625,-0.00770575,0.01826475,0.013443,1741898287.0262048
0.000875,0.038,0.12075,-7.625e-05,-0.00027475,-0.00039675,0.015,0.008125,0.066875,-0.00637825,0.01501475,0.0113525,1741898287.0387998
0.001625,0.03825,0.12,-7.625e-05,-0.0002135,-0.00042725,0.0185,0.012625,0.064375,-0.00187675,0.0072480002,0.0066985004,1741898287.053251
0.002125,0.03825,0.1195,-3.0500001e-05,-0.000183,-0.0004425,0.02425,0.0155,0.0595,0.000763,0.00270075,0.00408925,1741898287.067765
0.0025,0.037875,0.11975,0.0001525,-0.00013725001,-0.00048825,0.025125,0.01375,0.06075,0.00279225,-0.001953,0.0013885,1741898287.082516
0.0025,0.038,0.121125,0.0002135,-0.000122000005,-0.000534,0.024,0.011,0.065125,0.0036010002,-0.00968925,-0.00390625,1741898287.097048
0.0025,0.038125,0.12175,0.00024425,3.0500001e-05,-0.00062550005,0.019875,0.009125,0.080125,0.002411,-0.012191749,-0.00668325,1741898287.111573
0.00225,0.03875,0.123,0.00024425,0.0001525,-0.00067150005,0.022375,0.013375,0.087,0.00039675,-0.015090999,-0.013321,1741898287.126306
0.002375,0.038625,0.122625,0.00024425,0.00042725,-0.0007935,0.02675,0.016,0.10175,0.00119025,-0.01634225,-0.01670825,1741898287.140788
0.002875,0.0375,0.12075,0.0002135,0.0005035,-0.00083925005,0.022875,0.0075,0.113375,0.002533,-0.017746,-0.02253725,1741898287.155447
0.00325,0.0375,0.120125,0.00013725001,0.00045775,-0.0009155,0.0175,-0.001375,0.147375,0.00169375,-0.016876249,-0.02537525,1741898287.1701381
0.004125,0.03775,0.118875,0.000122000005,0.00042725,-0.000946,0.01925,0.00075,0.16175,-0.00033575002,-0.011383001,-0.03256225,1741898287.1867259
0.004875,0.03725,0.11825,0.0001525,0.00033575002,-0.00093075,0.01825,-0.0085,0.158625,-0.00033575002,-0.007843,-0.03601075,1741898287.199527
0.004875,0.036875,0.1185,0.0005645,9.15e-05,-0.0008545,0.01775,-0.025375,0.141125,0.0005035,-0.0033264998,-0.03974925,1741898287.214159
0.003,0.03525,0.12075,0.00077825,4.575e-05,-0.0008545,0.019625,-0.065375,0.097375,-0.00027475,-0.0033875,-0.03974925,1741898287.228978
0.002375,0.034625,0.1215,0.00061025,6.1000002e-05,-0.00065625,0.01625,-0.078,0.0815,-0.00517275,-0.0072175004,-0.036499,1741898287.247062
0.00225,0.038375,0.121125,0.0003815,9.15e-05,-0.0005645,0.006125,-0.092,0.084375,-0.0081025,-0.009094249,-0.0330505,1741898287.2586188
0.00275,0.03875,0.120875,0.0003205,0.0001525,-0.00061025,0.00625,-0.094125,0.096375,-0.0110625,-0.008667,-0.0249635,1741898287.273268
0.003125,0.0375,0.120625,0.00048825,0.0003205,-0.00064075,0.016125,-0.09375,0.114875,-0.01104725,-0.0072785,-0.021988,1741898287.291141
0.003,0.03575,0.119125,0.00039675,0.0003205,-0.0005035,0.021875,-0.09725,0.1215,-0.01065075,-0.0049285004,-0.01805125,1741898287.306436
0.00175,0.036375,0.11825,0.00035100002,0.0002135,-7.625e-05,0.033875,-0.107625,0.13675,-0.0104065,-0.0038299998,-0.016037,1741898287.320769
-0.00075,0.03475,0.118375,0.00054925,0.0003205,9.15e-05,0.037375,-0.11075,0.1445,-0.0077972496,-0.0017852499,-0.010849,1741898287.335576
-0.000375,0.03375,0.119125,0.00045775,0.00051875,0.000412,0.035,-0.1085,0.153125,-0.0051269997,-0.0009765,-0.0077210004,1741898287.3502772
0.00125,0.037375,0.119875,3.0500001e-05,0.00042725,0.00045775,0.03225,-0.103875,0.1525,0.001892,0.00086975005,-0.0009765,1741898287.366109
0.001625,0.039375,0.11975,-0.00036625,0.00027475,0.0003205,0.025875,-0.09825,0.1445,0.0061035,0.00216675,0.0028687501,1741898287.379581
0.001625,0.0395,0.119625,-0.00042725,4.575e-05,-0.00035100002,0.0235,-0.10025,0.142375,0.013778751,0.0047150003,0.011031999,1741898287.394113
0.00075,0.03675,0.119125,-0.00035100002,-6.1000002e-05,-0.00057975,0.021625,-0.10475,0.145,0.015976,0.0059510004,0.01452625,1741898287.4087522
0.000625,0.036125,0.119,-0.00061025,-0.0002595,-0.00059500005,0.02225,-0.1025,0.14575,0.01599125,0.009521499,0.01985175,1741898287.426646
0.001375,0.037125,0.11875,-0.00083925005,-0.00036625,-0.00051875,0.027125,-0.089625,0.13175,0.014206001,0.011901749,0.02186575,1741898287.438164
0.002125,0.03775,0.11875,-0.0010375,-0.00051875,-0.00048825,0.0285,-0.081375,0.118875,0.009811499,0.0153655,0.02510075,1741898287.452696
0.002875,0.038,0.119125,-0.00093075,-0.00057975,-0.00048825,0.02625,-0.07,0.107,0.0077972496,0.0160675,0.02645875,1741898287.467052
0.002875,0.037625,0.1195,-0.000534,-0.00064075,-0.00039675,0.022875,-0.068375,0.111375,0.005783,0.016861,0.02760325,1741898287.4817102
0.002875,0.037125,0.118375,-0.00039675,-0.00065625,-0.00030525,0.018875,-0.066625,0.11675,-0.000229,0.02012625,0.02870175,1741898287.496083
0.0035,0.03675,0.117125,-0.00036625,-0.0007325,-0.000229,0.014875,-0.050375,0.1215,-0.00369275,0.022293,0.02867125,1741898287.510676
0.004,0.03675,0.115875,-0.00061025,-0.0012207499,-0.000122000005,0.017,-0.036375,0.116875,-0.0074615004,0.02557375,0.0275115,1741898287.526562
0.00225,0.03675,0.11675,-0.00061025,-0.00146475,-9.15e-05,0.02525,-0.01325,0.096625,-0.0075072497,0.025833251,0.02633675,1741898287.539794
0.00125,0.03675,0.118125,-0.00054925,-0.001587,-6.1000002e-05,0.027375,-0.006875,0.087625,-0.00570675,0.02345275,0.023178,1741898287.554451
0.001375,0.038625,0.12,-0.000534,-0.00157175,1.5250001e-05,0.026875,0.0035,0.08025,-0.0047302498,0.02142325,0.021331752,1741898287.569003
0.001625,0.039125,0.120375,-0.00051875,-0.0015105,0.0002135,0.026125,0.00625,0.081625,-0.003006,0.01716625,0.01725775,1741898287.586415
0.001875,0.038125,0.120125,-0.000534,-0.00149525,0.0003205,0.026625,0.008,0.080375,-0.00228875,0.01504525,0.015029999,1741898287.598193
0.001875,0.038125,0.11975,-0.00070200005,-0.001587,0.000412,0.027625,0.010875,0.076625,-0.0009765,0.01036075,0.009872501,1741898287.612687
0.0015,0.038625,0.121375,-0.0013275,-0.00216675,0.00042725,0.032125,0.023625,0.0705,0.0002595,0.0075682504,0.0067445002,1741898287.627083
0.00075,0.03825,0.125625,-0.00131225,-0.00239575,0.00039675,0.033875,0.02825,0.067,0.001953,0.004547,0.00334175,1741898287.641449
0.001125,0.03875,0.128375,-0.00010675,-0.00216675,-4.575e-05,0.034375,0.028625,0.063,0.00587475,-0.0028687501,-0.0033264998,1741898287.655997
-0.000375,0.038125,0.136,0.000824,-0.0017242499,-0.00033575002,0.031,0.016375,0.063875,0.0072632497,-0.0071105,-0.0060577504,1741898287.670725
-0.0045,0.036625,0.143,0.0017852499,0.0005645,7.625e-05,0.03,0.012,0.071125,0.0078735,-0.014206001,-0.0111085,1741898287.686604
-0.01175,0.0265,0.14675,0.0009765,0.00187675,0.00065625,0.030375,0.01525,0.09775,0.0080415,-0.01628125,-0.014267,1741898287.700174
-0.01475,0.019,0.14025,-0.00538625,0.0029449998,0.00314325,0.028125,0.00975,0.10825,0.010086001,-0.017974751,-0.02130125,1741898287.714676
-0.02675,0.01375,0.126375,-0.01104725,0.0029755002,0.00469975,0.017625,-0.02375,0.118375,0.0116425,-0.018402,-0.023819,1741898287.729266
-0.0345,0.018875,0.132625,-0.02351375,0.0041810004,0.00587475,0.01875,-0.031625,0.12175,0.01148975,-0.0178375,-0.027771,1741898287.7478678
-0.043875,0.0405,0.15325,-0.02893075,0.00587475,0.0052795,0.037,-0.020875,0.1265,0.008667,-0.01661675,-0.031128,1741898287.758452
-0.04075,0.04975,0.156,-0.034011748,0.008270251,0.0043639997,0.040375,-0.0165,0.1295,0.0012055,-0.01345825,-0.03942875,1741898287.773189
-0.033125,0.05675,0.152625,-0.043975748,0.0136565,0.0024872501,0.028625,-0.0435,0.11925,-0.00149525,-0.01206975,-0.0415345,1741898287.789685
-0.01525,0.069625,0.133875,-0.048950247,0.015533499,0.0012817499,0.026375,-0.0745,0.1,-0.0055237496,-0.01245125,-0.036560003,1741898287.802599
-0.009625,0.0725,0.125375,-0.058197,0.01634225,-0.0015565,0.016625,-0.12175,0.077625,-0.00791925,-0.014267,-0.031265248,1741898287.817478
-0.0015,0.076125,0.099875,-0.06068425,0.0155030005,-0.00283825,0.007,-0.125125,0.088,-0.01324475,-0.01475525,-0.022033751,1741898287.832285
0.005,0.071125,0.0805,-0.0605775,0.01222225,-0.0045165,0.00975,-0.115125,0.126875,-0.015213001,-0.0117035,-0.019775499,1741898287.8470972
0.020625,0.04825,0.040125,-0.06027225,0.009506251,-0.0038299998,0.01975,-0.112625,0.14125,-0.015564,-0.00720225,-0.0182495,1741898287.8622231
0.02925,0.040125,0.028,-0.061035253,0.00105275,0.00187675,0.039875,-0.116,0.153625,-0.0114135,0.0007935,-0.014068499,1741898287.8765702
0.042125,0.049375,0.019375,-0.061782748,-0.00399775,0.005844,0.0475,-0.1165,0.154875,-0.007965,0.00305175,-0.01115425,1741898287.891192
0.043875,0.063625,0.0145,-0.06130975,-0.00880425,0.00918575,0.05075,-0.114,0.1545,-0.00061025,0.00538625,-0.004303,1741898287.907197
0.03775,0.093125,0.0255,-0.0413055,-0.013290499,0.01245125,0.044125,-0.10925,0.14475,0.002243,0.0068512503,-0.00057975,1741898287.920452
0.021375,0.116,-0.016625,-0.013061499,-0.00852975,0.012191749,0.040625,-0.10425,0.1325,0.00440975,0.010513251,0.0069885002,1741898287.9349802
0.0135,0.122625,-0.02575,-0.026672252,-0.0204925,0.0115967505,0.037875,-0.085375,0.113,0.00460825,0.01148975,0.0102845,1741898287.949597
0.0075,0.116625,0.008375,-0.03710925,-0.028716998,0.01104725,0.035375,-0.07825,0.112625,0.0065002497,0.012024,0.01531975,1741898287.966998
0.003125,0.119625,0.016625,-0.032821752,-0.03718575,0.008499251,0.035125,-0.06975,0.117875,0.008727999,0.0122985,0.017120251,1741898287.9786298
-0.006,0.130375,0.024,-0.02978525,-0.040268,0.0058135,0.0345,-0.067375,0.116875,0.014389,0.01197825,0.0200805,1741898287.993015
-0.010125,0.1345,0.035,-0.029129,-0.04270925,0.0027312501,0.03275,-0.0685,0.107125,0.0164795,0.011321999,0.021209748,1741898288.007607
-0.01425,0.13775,0.048375,-0.03096,-0.042572,-0.0033570002,0.03175,-0.074375,0.101125,0.01637275,0.010376001,0.023376498,1741898288.026551
-0.01725,0.142125,0.063875,-0.03009025,-0.0401305,-0.0052947504,0.030625,-0.07675,0.089125,0.014389,0.01036075,0.02449025,1741898288.036601
-0.015,0.147,0.065375,-0.023056,-0.03364575,-0.0067445002,0.029,-0.071125,0.08425,0.01187125,0.010604749,0.025268499,1741898288.051126
-0.011125,0.148,0.064375,-0.01899725,-0.030578502,-0.00720225,0.0205,-0.06725,0.0825,0.0050965,0.011245751,0.025711,1741898288.0675762
-0.012125,0.14675,0.066125,-0.0104674995,-0.02565,-0.0069274995,0.0185,-0.06275,0.087,0.00070200005,0.011825499,0.02589425,1741898288.080297
-0.021625,0.144375,0.0875,-0.00708,-0.023193251,-0.0072785,0.021625,-0.051625,0.0915,-0.0070952503,0.014068499,0.02537525,1741898288.094975
-0.027375,0.142,0.10225,-0.00263975,-0.0159455,-0.0091705,0.029625,-0.034875,0.09775,-0.00874325,0.01496875,0.02445975,1741898288.109807
-0.033375,0.136625,0.116875,-0.00112925,-0.01083375,-0.009872501,0.032625,-0.028875,0.098875,-0.0088805,0.015335,0.022171,1741898288.1267788
-0.035,0.141625,0.1185,0.0033875,0.0012055,-0.010437001,0.04,-0.0115,0.095125,-0.00874325,0.01501475,0.020111,1741898288.1391182
-0.039,0.149875,0.11275,0.008255,0.008209251,-0.011245751,0.040875,-0.006,0.08825,-0.007843,0.01307675,0.01452625,1741898288.153739
-0.0415,0.15275,0.12125,0.01020825,0.01380925,-0.012313751,0.043125,0.00625,0.075625,-0.00662225,0.011123749,0.01165775,1741898288.1680892
-0.043,0.156125,0.130875,0.011688249,0.02500925,-0.0158385,0.047875,0.016625,0.073125,-0.0012665,0.0048979996,0.0059510004,1741898288.186883
-0.038625,0.161125,0.133,0.0160675,0.0329285,-0.018097,0.056,0.031625,0.07325,0.0022735,0.0007935,0.0027465,1741898288.197035
-0.03175,0.155625,0.126875,0.02731325,0.049514752,-0.02159125,0.0545,0.03,0.074625,0.006256,-0.0072632497,-0.004242,1741898288.21179
-0.015375,0.136375,0.109375,0.03138725,0.056289747,-0.022094749,0.0515,0.023375,0.08225,0.006012,-0.009933501,-0.0080415,1741898288.227937
-0.010375,0.129,0.102125,0.034378,0.065445,-0.021331752,0.051625,0.01975,0.0865,0.0050965,-0.0128785,-0.01596075,1741898288.240989
-0.008125,0.1165,0.08775,0.033370998,0.06805425,-0.020752002,0.046125,0.00675,0.094875,0.0052795,-0.014068499,-0.019516,1741898288.2557812
-0.007125,0.11275,0.0755,0.03105175,0.0696105,-0.0202485,0.04025,-0.00225,0.101,0.0059815003,-0.0152435,-0.02247625,1741898288.270795
-0.00675,0.11275,0.061375,0.025177,0.069748,-0.019806,0.03475,-0.015625,0.10725,0.008727999,-0.016922,-0.026947001,1741898288.2903192
-0.003125,0.114875,0.0305,0.023285,0.068832494,-0.02034,0.03275,-0.025375,0.10925,0.010452249,-0.01747125,-0.0290375,1741898288.299915
0.00525,0.11075,0.014625,0.01997375,0.064544745,-0.0222015,0.031,-0.034,0.10925,0.01358025,-0.01763925,-0.03237925,1741898288.314494
0.016875,0.09975,-0.0095,0.017700251,0.061035253,-0.02253725,0.031,-0.036125,0.102625,0.0138855,-0.017334,-0.03433225,1741898288.32921
0.0205,0.094125,-0.016375,0.0139770005,0.05284125,-0.021789499,0.024125,-0.045,0.104875,0.010803251,-0.01579275,-0.03778075,1741898288.347415
0.02675,0.08175,-0.0275,0.012436,0.0482025,-0.0211335,0.00425,-0.085,0.11625,0.0076142503,-0.013854999,-0.037368752,1741898288.358515
0.0305,0.075625,-0.032875,0.008361749,0.03707875,-0.0194855,0.00825,-0.104375,0.112,-0.00149525,-0.0087585,-0.03338625,1741898288.373305
0.038,0.06675,-0.041625,0.00585925,0.030609248,-0.018509,0.033125,-0.124625,0.0845,-0.00617975,-0.0069885002,-0.031570498,1741898288.388245
0.0415,0.06325,-0.044375,0.001953,0.017212,-0.0155030005,0.033125,-0.116375,0.073875,-0.0089569995,-0.00764475,-0.0281525,1741898288.406537
0.051625,0.053625,-0.05125,0.0005035,0.01062,-0.0133667495,0.0135,-0.104375,0.080875,-0.00555425,-0.00930775,-0.02565,1741898288.417601
0.05825,0.0475,-0.055,-0.00154125,0.003769,-0.0110015,0.007,-0.115125,0.097,0.00027475,-0.010513251,-0.018737748,1741898288.432207
0.062875,0.03975,-0.055875,-0.009002751,-0.011321999,-0.00579825,0.011125,-0.139375,0.125375,-7.625e-05,-0.00918575,-0.01490775,1741898288.446912
0.0605,0.038625,-0.052375,-0.013122501,-0.018890498,-0.0028687501,0.012875,-0.144625,0.132625,-0.0033875,-0.00440975,-0.007843,1741898288.461609
0.058125,0.038375,-0.048125,-0.01841725,-0.032287497,0.0036315,0.013125,-0.1375,0.136625,-0.0050812503,-0.0012055,-0.0048674997,1741898288.4762921
0.054125,0.040875,-0.041,-0.019699,-0.03810125,0.0070952503,0.0165,-0.12875,0.13525,-0.0068512503,0.0048065,0.0011445,1741898288.49084
0.05125,0.0445,-0.037125,-0.021041749,-0.0484925,0.014557,0.024,-0.108875,0.128375,-0.0062865,0.0065765,0.0045165,1741898288.50656
0.0385,0.058875,-0.017875,-0.02124025,-0.053131,0.018219,0.0245,-0.099375,0.124875,-0.0043639997,0.0072937496,0.00801075,1741898288.519946
0.027,0.072,0.001875,-0.02000425,-0.059860248,0.023925751,0.02225,-0.093375,0.121125,0.0025940002,0.0062712496,0.01469425,1741898288.534314
-0.001125,0.104875,0.047,-0.01908875,-0.061340246,0.0253295,0.014875,-0.0925,0.114125,0.00567625,0.0053405,0.01779175,1741898288.548836
-0.008125,0.1155,0.057625,-0.02101125,-0.061706502,0.02581775,0.012125,-0.093875,0.113,0.0077667497,0.0046234997,0.022873,1741898288.567272
-0.00075,0.121875,0.056125,-0.0251465,-0.06201175,0.025970502,0.012125,-0.095875,0.109125,0.00708,0.00514225,0.0249175,1741898288.5778198
0.003625,0.13,0.059625,-0.030716,-0.0625915,0.025970502,0.0145,-0.094375,0.104625,0.004074,0.0068207504,0.028167749,1741898288.592384
0.003,0.141875,0.061,-0.042663503,-0.062973,0.02215575,0.01825,-0.088125,0.10075,0.0025025,0.0078735,0.029266251,1741898288.606951
-0.00325,0.170125,0.056625,-0.0459595,-0.0623475,0.01905825,0.01925,-0.084875,0.09925,-0.000122000005,0.00997925,0.030716,1741898288.6214468
-0.008625,0.18425,0.05825,-0.043213002,-0.05856325,0.012252751,0.020875,-0.074875,0.092,-0.00184625,0.010818499,0.031265248,1741898288.63593
-0.0145,0.19475,0.06975,-0.03825375,-0.055252,0.008941749,0.0215,-0.069125,0.09025,-0.00579825,0.011734,0.032486,1741898288.6504269
-0.013375,0.194375,0.083,-0.02661125,-0.0468445,0.0036162501,0.020375,-0.05625,0.09875,-0.006607,0.01194775,0.0331115,1741898288.6684191
-0.011375,0.189625,0.12125,-0.02142325,-0.0415955,0.00131225,0.0175,-0.051375,0.104875,-0.00672925,0.012267999,0.03329475,1741898288.679536
-0.011,0.187375,0.135375,-0.016632,-0.03509525,-0.000885,0.0155,-0.049,0.10625,-0.008194,0.01419075,0.032287497,1741898288.694099
-0.013625,0.178125,0.132125,-0.009079001,-0.020202748,-0.004837,0.021625,-0.042375,0.093875,-0.009734999,0.015274,0.031601,1741898288.708823
-0.018375,0.173375,0.130375,-0.00614925,-0.01301575,-0.0062865,0.028125,-0.032375,0.0865,-0.01197825,0.015442001,0.029220501,1741898288.724573
-0.021875,0.16625,0.131,0.00036625,0.002243,-0.0101165,0.036625,-0.00875,0.077,-0.0123442495,0.01445,0.027237,1741898288.737813
-0.018375,0.15675,0.12775,0.0042725,0.0103455,-0.0122985,0.040875,0.00525,0.0755,-0.012039251,0.011627249,0.022338752,1741898288.752307
-0.015,0.157375,0.127125,0.0154115,0.02708425,-0.01631175,0.049,0.027,0.075625,-0.01136775,0.010086001,0.01921075,1741898288.7706811
-0.013375,0.1515,0.121125,0.02247625,0.035553,-0.017852752,0.052125,0.032625,0.074,-0.008346501,0.0054015,0.011673001,1741898288.7811918
-0.013375,0.143125,0.11425,0.03395075,0.050827,-0.01835625,0.0545,0.036625,0.066875,-0.0060882503,0.0018615,0.00764475,1741898288.7958112
-0.01,0.12325,0.094375,0.0368805,0.05703725,-0.017425502,0.056125,0.039375,0.06475,-0.00019825,-0.0070495,-0.00027475,1741898288.810643
-0.004375,0.11375,0.081875,0.03807075,0.06210325,-0.01617425,0.055,0.04125,0.072125,0.00302125,-0.01148975,-0.00411975,1741898288.8272152
0.001375,0.107125,0.0705,0.036514252,0.06832875,-0.013626001,0.050375,0.036875,0.078375,0.00590525,-0.0153655,-0.00782775,1741898288.839896
0.00425,0.10825,0.0535,0.035141,0.0699615,-0.0126495,0.04025,0.019125,0.089875,0.009445249,-0.020599252,-0.014938249,1741898288.8544488
0.004,0.111875,0.04375,0.03331,0.0720215,-0.011535751,0.035,0.00975,0.097,0.00982675,-0.02189625,-0.018280001,1741898288.868937
0.009,0.108875,0.019875,0.032287497,0.07232675,-0.01104725,0.030375,0.00275,0.1055,0.008727999,-0.022033751,-0.024841249,1741898288.886621
0.014,0.1035,0.007375,0.028259251,0.0696105,-0.009384249,0.018375,-0.011375,0.1265,0.0085755,-0.0211335,-0.02781675,1741898288.898035
0.022625,0.096125,-0.010875,0.0254365,0.066268995,-0.008514499,0.012,-0.021125,0.132125,0.0110625,-0.018920999,-0.03149425,1741898288.912801
0.02625,0.095375,-0.018875,0.02200325,0.061966,-0.00785825,0.007125,-0.037625,0.128625,0.01316825,-0.01826475,-0.032486,1741898288.927721
0.03625,0.091,-0.0365,0.01361075,0.050659247,-0.0073547503,0.007625,-0.048625,0.125125,0.01719675,-0.0174865,-0.03341675,1741898288.942917
0.042,0.0875,-0.043625,0.009491,0.043808,-0.0071409997,0.016375,-0.06525,0.106,0.018310498,-0.0170135,-0.03309625,1741898288.956853
0.045875,0.084875,-0.0495,0.00270075,0.029129,-0.00587475,0.021625,-0.06675,0.09375,0.0158845,-0.017135499,-0.0335235,1741898288.971648
0.050875,0.07975,-0.05825,1.5250001e-05,0.0215455,-0.00511175,0.00975,-0.069125,0.09625,0.013854999,-0.017028749,-0.03404225,1741898288.9880052
0.05275,0.07575,-0.062375,-0.0046539996,0.0061035,-0.00358575,-0.000125,-0.077,0.1045,0.012909001,-0.0143737495,-0.032424998,1741898289.00093
0.06175,0.063,-0.0695,-0.0069885002,-0.0017852499,-0.0024872501,-0.002375,-0.1085,0.1155,0.01266475,-0.012420749,-0.0301055,1741898289.015885
0.064875,0.055875,-0.068875,-0.012756251,-0.017974751,0.0012207499,0.00225,-0.120125,0.116625,0.0095672505,-0.008651749,-0.025055,1741898289.0304909
0.06,0.05125,-0.05675,-0.014679,-0.0255585,0.003891,0.0105,-0.12825,0.11075,0.00694275,-0.00697325,-0.02288825,1741898289.047106
0.055,0.054875,-0.048375,-0.014846751,-0.032256998,0.00671375,0.014125,-0.128875,0.105875,0.00112925,-0.0044250004,-0.01817325,1741898289.059802
0.049125,0.061875,-0.04,-0.013092,-0.043075502,0.011795,0.025375,-0.130375,0.102125,-0.0012665,-0.0036162501,-0.015518251,1741898289.074495
0.033625,0.079125,-0.020125,-0.01289375,-0.047378503,0.014206001,0.030875,-0.1305,0.101375,-0.00279225,-0.0032195,-0.012802,1741898289.0893161
0.025375,0.08675,-0.010125,-0.014206001,-0.054504503,0.01879875,0.025375,-0.13275,0.109,-0.00160225,-0.00317375,-0.00691225,1741898289.107764
0.01325,0.099875,0.009375,-0.015533499,-0.057861254,0.02041625,0.019,-0.13775,0.11475,0.0005035,-0.0028687501,-0.00343325,1741898289.118639
0.00875,0.106625,0.021375,-0.01911925,-0.06419375,0.021225,0.014,-0.1415,0.119,0.0023345,-0.00077825,0.004303,1741898289.133161
0.0065,0.11625,0.03875,-0.021514999,-0.06643675,0.02079775,0.01125,-0.137625,0.120375,0.00157175,0.00108325,0.00823975,1741898289.14768
0.008875,0.12125,0.04175,-0.026947001,-0.06747425,0.020324752,0.013125,-0.131125,0.11875,-0.0009765,0.0052185003,0.015518251,1741898289.1672058
0.007625,0.139375,0.042875,-0.028839001,-0.06637575,0.01976025,0.016,-0.1195,0.11925,-0.00198375,0.00708,0.0188445,1741898289.1768
-0.0,0.15025,0.04825,-0.0289155,-0.06460575,0.01838675,0.015625,-0.116125,0.119875,-0.0030365,0.01033025,0.024810748,1741898289.1913002
-0.011,0.159875,0.058125,-0.02348325,-0.0590515,0.014618,0.012125,-0.111875,0.1155,-0.00352475,0.011688249,0.0272065,1741898289.209195
-0.0305,0.1805,0.0745,-0.020034749,-0.05473325,0.0128785,0.012125,-0.107,0.109875,-0.0054780003,0.013854999,0.030853251,1741898289.220279
-0.0315,0.184,0.077,-0.014328,-0.04499825,0.0091095,0.014125,-0.091625,0.101625,-0.0066374997,0.014587499,0.032180753,1741898289.234847
-0.017625,0.17325,0.097,-0.012542751,-0.040268,0.0071409997,0.014,-0.086625,0.10275,-0.00798025,0.015625,0.0344695,1741898289.250954
-0.009625,0.169,0.113625,-0.010604749,-0.0302735,0.0019989999,0.011875,-0.075625,0.10675,-0.0080415,0.016265752,0.03536975,1741898289.26411
-0.001125,0.1625,0.14075,-0.0097045,-0.02459725,-0.00086975005,0.0115,-0.066875,0.1045,-0.0081635,0.016967751,0.03572075,1741898289.278713
-0.002625,0.16225,0.14425,-0.00717175,-0.011795,-0.00453175,0.013125,-0.04725,0.09575,-0.009292499,0.018035999,0.03474425,1741898289.293378
-0.008625,0.164,0.12875,-0.00460825,-0.0047150003,-0.0053405,0.013625,-0.038375,0.09075,-0.0099639995,0.018219,0.03376775,1741898289.30791
-0.01225,0.16225,0.125625,-0.00112925,0.002533,-0.00596625,0.0145,-0.030625,0.084875,-0.010513251,0.01734925,0.031540003,1741898289.327295
-0.016,0.1605,0.130625,0.0080415,0.018035999,-0.00874325,0.018875,-0.018,0.07075,-0.010727,0.01631175,0.0300445,1741898289.337055
-0.01425,0.15875,0.137375,0.01367175,0.026733499,-0.01104725,0.020625,-0.013125,0.066625,-0.0113525,0.01330575,0.026428249,1741898289.3517
-0.010125,0.159625,0.1305,0.025390498,0.044051997,-0.01498425,0.02525,0.002875,0.06875,-0.01115425,0.011535751,0.02417,1741898289.367638
-0.00825,0.14925,0.115,0.02952575,0.051468,-0.015747,0.029,0.012,0.072,-0.009017999,0.00747675,0.017974751,1741898289.380827
-0.012125,0.1385,0.112,0.0329285,0.0639495,-0.015090999,0.038375,0.02875,0.072,-0.00712575,0.0049590003,0.01402275,1741898289.3954
-0.01275,0.12,0.0945,0.0328675,0.069320746,-0.014557,0.041625,0.031875,0.066375,-0.00146475,-0.00190725,0.0052337497,1741898289.410156
-0.003375,0.113375,0.07625,0.031662002,0.07371525,-0.014068499,0.041125,0.022375,0.0565,0.002121,-0.00646975,0.0014037499,1741898289.4268649
0.01875,0.112625,0.039875,0.028305,0.077591,-0.01310725,0.038125,0.01725,0.061375,0.008072,-0.01510625,-0.00460825,1741898289.439314
0.02375,0.110875,0.0245,0.027359,0.07748425,-0.0128785,0.030875,0.02025,0.085375,0.009781,-0.0178375,-0.0078735,1741898289.4538162
0.024625,0.106625,0.0085,0.02581775,0.074768,-0.011901749,0.026625,0.020625,0.09375,0.010803251,-0.0194245,-0.01177975,1741898289.468291
0.021,0.100375,-0.022875,0.023773251,0.0719605,-0.011383001,0.017,0.012625,0.099875,0.0119630005,-0.02149975,-0.02026375,1741898289.4875772
0.017875,0.099125,-0.03375,0.017501751,0.0634765,-0.011139,0.011125,0.006375,0.103,0.012542751,-0.02247625,-0.024078252,1741898289.4973261
0.016375,0.097,-0.048,0.014282251,0.058044497,-0.011383001,0.00525,-0.0015,0.104625,0.01419075,-0.023697,-0.029907249,1741898289.512025
0.016375,0.095,-0.0515,0.0091705,0.0454865,-0.012130749,-0.00075,-0.02175,0.106125,0.01542675,-0.024047751,-0.031784,1741898289.5277529
0.021125,0.093375,-0.062,0.00720225,0.038498,-0.012252751,-0.002125,-0.03425,0.108625,0.0184785,-0.02421575,-0.03335575,1741898289.541534
0.027625,0.089875,-0.06825,0.005249,0.03079225,-0.012130749,-0.0075,-0.06125,0.117375,0.019744748,-0.023956249,-0.033462502,1741898289.556349
0.035625,0.081875,-0.07275,0.000885,0.01345825,-0.010742251,-0.008,-0.073375,0.121,0.0190735,-0.02212525,-0.033569247,1741898289.571003
0.0525,0.060625,-0.075375,-0.001953,0.0042572496,-0.009201,-0.003625,-0.091625,0.12725,0.0168,-0.020523,-0.03347775,1741898289.587103
0.06125,0.05025,-0.0745,-0.009597749,-0.01446525,-0.00494375,-0.002375,-0.097625,0.131125,0.010818499,-0.01640325,-0.0318755,1741898289.600543
0.065125,0.04175,-0.0645,-0.013626001,-0.023498502,-0.00225825,0.000375,-0.110375,0.135,0.0079345,-0.014221249,-0.03041075,1741898289.615207
0.061125,0.04325,-0.054125,-0.016143749,-0.03840625,0.00355525,0.003875,-0.11775,0.133375,0.0033875,-0.0099945,-0.026397752,1741898289.62983
0.050625,0.05025,-0.034375,-0.014663749,-0.04391475,0.0063325,0.0165,-0.128875,0.117,0.0027160002,-0.008285499,-0.02386475,1741898289.647273
0.045,0.055875,-0.028375,-0.011306751,-0.0526275,0.01228325,0.017875,-0.135375,0.110875,0.00485225,-0.0067597497,-0.018432502,1741898289.65902
0.031625,0.071375,-0.016375,-0.01115425,-0.0566405,0.0155030005,0.012875,-0.151,0.11125,0.00596625,-0.0061339997,-0.01554875,1741898289.6739872
0.022125,0.0805,-0.00625,-0.012695249,-0.060668997,0.018509,0.0125,-0.15775,0.116375,0.0038605002,-0.00289925,-0.00874325,1741898289.691293
0.011,0.0905,0.00675,-0.0192565,-0.0680695,0.0225525,0.023,-0.15925,0.125125,0.001175,-9.15e-05,-0.0048065,1741898289.703445
-0.0065,0.115625,0.035125,-0.0234375,-0.07106025,0.0231475,0.02675,-0.15125,0.12775,-0.001175,0.00296025,-0.0008545,1741898289.7181172
-0.009125,0.12475,0.042125,-0.031433,-0.07339475,0.021789499,0.02175,-0.136875,0.129625,-0.001892,0.0085755,0.0065612504,1741898289.732737
-0.001,0.132375,0.042625,-0.03471375,-0.072586,0.0207215,0.017875,-0.135125,0.1285,-0.00090025004,0.010788,0.0104065,1741898289.7509031
0.004,0.131375,0.044625,-0.04188525,-0.068832494,0.018448,0.014375,-0.135125,0.127875,0.00068675,0.014221249,0.01820375,1741898289.7617762
0.0,0.138875,0.057875,-0.04302975,-0.0657655,0.017883249,0.010625,-0.133625,0.12825,0.00065625,0.01593025,0.021636998,1741898289.776236
-0.00725,0.152125,0.064875,-0.04190075,-0.0616455,0.0174865,0.011,-0.13075,0.128625,-0.0013427499,0.020355249,0.02674875,1741898289.7911308
-0.013875,0.16925,0.070375,-0.03492725,-0.05166625,0.0158385,0.00725,-0.12225,0.126,-0.00292975,0.02301025,0.028594999,1741898289.807277
-0.02025,0.201375,0.081125,-0.03034975,-0.046752997,0.014038,0.003625,-0.11825,0.122375,-0.006256,0.028427,0.032608002,1741898289.820449
-0.021625,0.208875,0.09675,-0.019470248,-0.035202,0.0087585,0.00525,-0.10425,0.113375,-0.0081025,0.030746501,0.034546003,1741898289.835083
-0.019625,0.198125,0.135125,-0.01446525,-0.027481,0.0058899997,0.007375,-0.093875,0.10925,-0.0114135,0.03433225,0.036789,1741898289.8497741
-0.017625,0.19,0.145625,-0.008072,-0.010101249,0.00065625,0.008,-0.073875,0.0985,-0.01260375,0.035675,0.037063498,1741898289.8666801
-0.024125,0.190875,0.146125,-0.0055695,-0.0016632499,-0.0022277501,0.005875,-0.06725,0.09425,-0.014724749,0.03724675,0.037475497,1741898289.8788679
-0.03125,0.2,0.1395,0.0050965,0.0153807495,-0.009506251,0.00625,-0.051375,0.084875,-0.015442001,0.0372925,0.037613,1741898289.893354
-0.029125,0.20275,0.121875,0.01425175,0.024475,-0.0135345,0.009375,-0.041875,0.079625,-0.01576225,0.035797,0.036514252,1741898289.907833
-0.020125,0.188875,0.11225,0.033783,0.0420075,-0.019622749,0.015625,-0.022,0.0705,-0.01525875,0.03430175,0.035324,1741898289.927441
-0.007375,0.155875,0.100875,0.040283248,0.04930125,-0.02105725,0.019375,-0.007625,0.069375,-0.0142365,0.03230275,0.0338135,1741898289.93695
-0.007125,0.145375,0.097125,0.043624748,0.055603,-0.021698,0.023625,0.007375,0.069375,-0.010788,0.0272675,0.028946,1741898289.9515462
-0.009625,0.140125,0.091625,0.043899503,0.065780744,-0.021331752,0.0295,0.0215,0.063,-0.00868225,0.02427675,0.025772,1741898289.967911
-0.012875,0.136125,0.071875,0.042648252,0.07008351,-0.021041749,0.031625,0.022,0.057375,-0.00463875,0.017212,0.0194245,1741898289.980761
-0.01,0.13375,0.055125,0.039672747,0.075805746,-0.02130125,0.036875,0.02425,0.0455,-0.002365,0.013122501,0.01652525,1741898289.9953978
0.0025,0.1275,0.02525,0.038085997,0.0766755,-0.0217285,0.04225,0.030125,0.042375,0.00302125,0.003891,0.01019275,1741898290.009911
0.00575,0.126,0.015875,0.034195,0.07551575,-0.023528999,0.053875,0.038,0.0365,0.0053405,-0.00083925005,0.00646975,1741898290.027253
0.011125,0.1145,-0.00275,0.031997748,0.0739135,-0.02490225,0.05675,0.03625,0.033125,0.0087585,-0.010498,-0.0012817499,1741898290.03894
0.018125,0.103625,-0.015,0.029907249,0.0716095,-0.025833251,0.05575,0.0235,0.03575,0.009491,-0.01490775,-0.00491325,1741898290.053609
0.0265,0.093125,-0.02625,0.025085501,0.064361505,-0.02534475,0.060375,0.02525,0.038,0.007965,-0.0212555,-0.013153,1741898290.068107
0.03875,0.077375,-0.036125,0.022033751,0.059433,-0.02445975,0.07225,0.041,0.046875,0.00671375,-0.023956249,-0.018432502,1741898290.086606
0.04225,0.072125,-0.037125,0.017105,0.048584,-0.0226745,0.067625,0.04275,0.058625,0.0062865,-0.02677925,-0.0239715,1741898290.0972018
0.052125,0.059,-0.042125,0.0155030005,0.042923,-0.0215455,0.039625,0.021625,0.091875,0.0077972496,-0.03152475,-0.0331725,1741898290.111871
0.057625,0.0515,-0.04525,0.01145925,0.0309295,-0.0177765,0.02275,-0.000125,0.11025,0.00801075,-0.032364,-0.036193747,1741898290.126633
0.06525,0.0425,-0.04775,0.008606,0.02430725,-0.0149535,0.009125,-0.022625,0.125125,0.00517275,-0.0298005,-0.038925253,1741898290.141351
0.068375,0.0405,-0.0475,0.0057525,0.0173645,-0.011734,0.008875,-0.0565,0.136625,0.0029145,-0.02690125,-0.039276,1741898290.155931
0.07625,0.037625,-0.048375,-0.000412,0.00328075,-0.0054932497,0.021625,-0.064875,0.13225,-0.0013580001,-0.021408001,-0.040039003,1741898290.1708338
0.07825,0.037625,-0.0485,-0.0041044997,-0.0036315,-0.0024414998,0.034625,-0.085375,0.124875,-0.00416575,-0.01988225,-0.039322,1741898290.1886022
0.07875,0.037875,-0.0465,-0.00953675,-0.01649475,0.004013,0.03925,-0.081875,0.117,-0.0059967497,-0.01997375,-0.03559875,1741898290.200304
0.07875,0.03775,-0.038875,-0.0103455,-0.022232,0.007309,0.021125,-0.108875,0.146125,-0.00434875,-0.02012625,-0.033141997,1741898290.215124
0.077875,0.038625,-0.035375,-0.010452249,-0.032486,0.013717749,0.017625,-0.122625,0.16025,-0.0030975002,-0.014038,-0.027526751,1741898290.2306318
0.070375,0.044875,-0.026,-0.01083375,-0.037201,0.016983,0.031625,-0.14725,0.156625,-0.0047912505,-0.009613,-0.025268499,1741898290.2445471
0.06325,0.0515,-0.018125,-0.0128632495,-0.046157748,0.0232085,0.036375,-0.15625,0.152875,-0.009872501,-0.0018615,-0.01832575,1741898290.2593348
0.04525,0.070125,-0.000875,-0.014434749,-0.05033875,0.0258025,0.048,-0.156125,0.150625,-0.0113525,0.00143425,-0.0136565,1741898290.274056
0.038125,0.076625,0.00425,-0.01664725,-0.054138247,0.0278015,0.05475,-0.149125,0.149625,-0.0106355,0.0070647504,-0.0037537501,1741898290.288815
0.034,0.0825,0.0085,-0.0233155,-0.0605315,0.0309295,0.062125,-0.130375,0.13975,-0.0088195,0.009323,0.00048825,1741898290.3075159
0.032875,0.08975,0.0135,-0.027542,-0.0634155,0.03193675,0.058875,-0.12375,0.134875,-0.0025025,0.012771499,0.0074920002,1741898290.318135
0.028875,0.097,0.01875,-0.037048247,-0.06849675,0.032348752,0.0435,-0.1195,0.127375,0.00071725,0.014297499,0.0110625,1741898290.332661
0.008125,0.122,0.0205,-0.041869998,-0.069793746,0.0329895,0.0375,-0.116,0.124,0.004013,0.017105,0.01857,1741898290.34742
-0.002125,0.136375,0.0185,-0.048935,-0.06849675,0.033935502,0.03425,-0.103375,0.115375,0.00440975,0.0183715,0.02197275,1741898290.3616729
-0.013375,0.15325,0.02575,-0.04953,-0.066681,0.03363025,0.035,-0.100875,0.11175,0.00440975,0.019439751,0.024993999,1741898290.376031
-0.01575,0.157625,0.039125,-0.04243475,-0.060668997,0.029892,0.036625,-0.099875,0.108375,0.00292975,0.0211945,0.02993775,1741898290.390665
-0.027125,0.176125,0.0685,-0.03645325,-0.05593875,0.026702998,0.03725,-0.09425,0.10475,0.0013885,0.022064252,0.031784,1741898290.406765
-0.03525,0.194,0.072375,-0.0308685,-0.050415,0.023117,0.0355,-0.08775,0.104125,-0.0019989999,0.024108998,0.034851003,1741898290.419905
-0.036625,0.203625,0.069125,-0.022949249,-0.038437,0.01599125,0.03475,-0.071875,0.097875,-0.00364675,0.02516175,0.03601075,1741898290.4345431
-0.023,0.193125,0.069625,-0.01979075,-0.03300475,0.0134735005,0.036125,-0.062875,0.09275,-0.00590525,0.0258025,0.03756725,1741898290.44931
-0.01675,0.187375,0.0795,-0.01481625,-0.0233155,0.008514499,0.041,-0.034625,0.089125,-0.0061035,0.025466999,0.037597753,1741898290.467395
-0.015625,0.188625,0.107,-0.01245125,-0.018219,0.00488275,0.043,-0.01575,0.088125,-0.004013,0.024047751,0.03524775,1741898290.478375
-0.017,0.1905,0.115,-0.006546,-0.0058287503,-0.0028074998,0.04475,0.00825,0.079,-0.00216675,0.022643998,0.032943748,1741898290.492835
-0.016375,0.187125,0.113,-0.002533,0.00131225,-0.00570675,0.043875,0.012125,0.07375,0.00039675,0.018509,0.027862499,1741898290.5071418
-0.018,0.182125,0.112125,0.0078735,0.0163575,-0.010024999,0.0425,0.01825,0.066125,0.00096125,0.01617425,0.02545175,1741898290.5217202
-0.02175,0.167625,0.10925,0.0129700005,0.023773251,-0.012375,0.0425,0.02175,0.0655,0.00105275,0.0138245,0.02297975,1741898290.5361311
-0.020125,0.160125,0.102375,0.01741025,0.030838,-0.01463325,0.043625,0.024625,0.065875,0.0005645,0.00962825,0.01744075,1741898290.550751
-0.017,0.155125,0.09175,0.0246735,0.043289248,-0.01708975,0.046875,0.026125,0.061875,0.00067150005,0.0075682504,0.014495751,1741898290.567326
-0.015625,0.15625,0.07275,0.02766425,0.048477247,-0.017624,0.048125,0.027125,0.05625,0.00163275,0.002472,0.00833125,1741898290.579756
-0.0175,0.154375,0.065875,0.03323375,0.0579375,-0.01911925,0.052875,0.03525,0.04675,0.0020599999,-0.00065625,0.0048065,1741898290.594284
-0.01825,0.14325,0.053,0.035614,0.062362753,-0.01991275,0.054875,0.04,0.045375,0.0030669998,-0.0076599997,-0.0030669998,1741898290.6088588
-0.01525,0.137,0.043125,0.038818248,0.068863,-0.02149975,0.05675,0.043625,0.045125,0.0039215,-0.01133725,-0.00717175,1741898290.6272771
-0.001625,0.1265,0.02,0.039779752,0.07020575,-0.02197275,0.05825,0.041375,0.04475,0.00555425,-0.0184785,-0.01576225,1741898290.6379578
0.007125,0.122375,0.01025,0.04008475,0.070526004,-0.0220795,0.061125,0.027875,0.048375,0.0063477503,-0.021881001,-0.020049999,1741898290.65259
0.015125,0.116375,0.00075,0.03775025,0.068695,-0.02177425,0.05675,0.01725,0.0595,0.007599,-0.0273895,-0.027404752,1741898290.668452
0.02575,0.10125,-0.011875,0.03536975,0.0662995,-0.0211335,0.03775,-0.003,0.090625,0.0073395,-0.028305,-0.0301665,1741898290.682341
0.030125,0.09425,-0.015125,0.0290985,0.058883753,-0.0195465,0.028375,-0.012,0.09975,0.0054015,-0.02778625,-0.033691503,1741898290.696574
0.03875,0.08425,-0.02425,0.02563475,0.054062,-0.018920999,0.021625,-0.018,0.104375,0.00453175,-0.027481,-0.03489675,1741898290.711224
0.043375,0.07975,-0.029875,0.02038575,0.0430145,-0.017273001,0.023375,-0.02125,0.1055,0.0042115003,-0.027404752,-0.036239497,1741898290.7310898
0.05225,0.072125,-0.0395,0.01841725,0.03710925,-0.0160065,0.0215,-0.042875,0.11275,0.0060577504,-0.0274505,-0.03800975,1741898290.740546
0.055375,0.068,-0.043,0.01622,0.031066999,-0.01454175,0.0175,-0.053875,0.116125,0.0080872495,-0.027557248,-0.0378265,1741898290.755211
0.061,0.0595,-0.045875,0.01083375,0.018463248,-0.010818499,0.014375,-0.057875,0.12375,0.0128785,-0.02772525,-0.036911,1741898290.769878
0.06375,0.05475,-0.044875,0.007553,0.011764499,-0.00852975,0.019,-0.071,0.11,0.01245125,-0.027237,-0.037231497,1741898290.787101
0.06625,0.0505,-0.043375,0.00036625,-0.001648,-0.0031889998,0.0155,-0.079,0.10375,0.00694275,-0.027069,-0.03627025,1741898290.7992399
0.0705,0.0475,-0.041,-0.0025634998,-0.00798025,-1.5250001e-05,0.004375,-0.09775,0.118,0.00646975,-0.02595525,-0.0345765,1741898290.813965
0.071375,0.04875,-0.039875,-0.0062407497,-0.019348249,0.0068969997,0.00525,-0.11225,0.123125,0.008255,-0.021759002,-0.030304002,1741898290.828654
0.0685,0.052125,-0.035,-0.0074920002,-0.0243225,0.0104674995,0.010375,-0.1305,0.130875,0.00868225,-0.019775499,-0.02804575,1741898290.847243
0.063625,0.055875,-0.029875,-0.0102235,-0.033370998,0.017151,0.011,-0.137,0.135375,0.0073395,-0.015518251,-0.02297975,1741898290.857955
0.048,0.0715,-0.013,-0.011810251,-0.037597753,0.01982125,0.01675,-0.141125,0.142625,0.005783,-0.0128632495,-0.019867001,1741898290.872869
0.03825,0.081375,-0.00275,-0.013702501,-0.04167175,0.02197275,0.022375,-0.138625,0.143625,0.0034484998,-0.0072785,-0.013412501,1741898290.887552
0.028875,0.091125,0.007,-0.018341,-0.04916375,0.0247345,0.02725,-0.1345,0.142625,0.00340275,-0.004837,-0.010299751,1741898290.9069362
0.015875,0.103125,0.022125,-0.020782499,-0.05252075,0.02528375,0.025,-0.133,0.138875,0.00514225,-0.000534,-0.0042572496,1741898290.916851
0.012,0.106125,0.0265,-0.02548225,-0.058471747,0.026122998,0.019,-0.1295,0.116,0.0061645,0.001007,-0.0013885,1741898290.931433
0.01525,0.1195,0.027125,-0.02848825,-0.0604705,0.025177,0.015125,-0.126,0.10525,0.0061950004,0.0021057501,0.00428775,1741898290.947736
0.017125,0.111625,0.0275,-0.033996496,-0.0632935,0.02316275,0.006875,-0.116375,0.112125,0.00596625,0.00283825,0.007187,1741898290.9604568
0.001375,0.122125,0.032375,-0.036239497,-0.06346125,0.0247345,0.006625,-0.1145,0.11725,0.0060577504,0.0042115003,0.010086001,1741898290.975071
-0.009875,0.1465,0.029125,-0.037841752,-0.06184375,0.02589425,0.00825,-0.111625,0.117625,0.0060272496,0.0068969997,0.015304499,1741898290.989559
-0.025375,0.17725,0.023875,-0.034195,-0.055297747,0.02265925,0.011625,-0.105125,0.11275,0.00617975,0.0075835,0.0173645,1741898291.00735
-0.030375,0.1805,0.029,-0.029296748,-0.05201725,0.019516,0.0125,-0.10325,0.11075,0.006012,0.008514499,0.020049999,1741898291.0185359
-0.03375,0.18075,0.04225,-0.01814275,-0.045166,0.013321,0.015625,-0.1,0.1085,0.0050812503,0.009292499,0.02098075,1741898291.0330749
-0.03175,0.176375,0.086125,-0.0134735005,-0.040893503,0.01026925,0.017625,-0.09675,0.10625,0.0023039998,0.011078,0.02336125,1741898291.047803
-0.027125,0.1705,0.1045,-0.00930775,-0.030578502,0.0051269997,0.020625,-0.091,0.101625,0.000763,0.0117035,0.02471925,1741898291.068109
-0.014875,0.161125,0.113875,-0.0091705,-0.024826,0.0036162501,0.021125,-0.087125,0.102,-0.00213625,0.01239025,0.02687075,1741898291.076726
-0.011625,0.165375,0.11175,-0.009658749,-0.013931249,0.0012970001,0.01725,-0.077875,0.10675,-0.002777,0.012802,0.02749625,1741898291.091257
-0.01275,0.18675,0.109625,-0.0091095,-0.008606,-0.00067150005,0.016,-0.075125,0.107875,-0.003662,0.014434749,0.02731325,1741898291.1074162
-0.015,0.19275,0.117125,-0.0024414998,0.0049285004,-0.006546,0.018125,-0.066875,0.105,-0.0048979996,0.0157775,0.026519751,1741898291.120354
-0.0185,0.180375,0.12825,0.003769,0.01374825,-0.010101249,0.018375,-0.0635,0.101,-0.0065917503,0.0172425,0.025665252,1741898291.134856
-0.019875,0.174125,0.1245,0.0105742505,0.02297975,-0.013626001,0.018375,-0.0595,0.094625,-0.00968925,0.018875,0.024993999,1741898291.1494222
-0.02025,0.17,0.116,0.023056,0.0394135,-0.019317752,0.018875,-0.04725,0.08075,-0.01095575,0.0186615,0.0245515,1741898291.164541
-0.01475,0.153625,0.090375,0.0278015,0.045944247,-0.02064525,0.019875,-0.040625,0.077,-0.012557999,0.01708975,0.02265925,1741898291.178626
-0.013375,0.14675,0.08325,0.032318,0.055297747,-0.0205535,0.02475,-0.028,0.079875,-0.013198749,0.01646425,0.0213165,1741898291.193229
-0.017125,0.144625,0.072,0.03312675,0.05856325,-0.020477248,0.02825,-0.022625,0.082,-0.014068499,0.01570125,0.01805125,1741898291.210718
-0.0175,0.14575,0.061875,0.034484748,0.063446,-0.021606501,0.0335,-0.013875,0.08025,-0.0137635,0.014862,0.016235251,1741898291.222311
-0.0115,0.144625,0.041,0.03489675,0.06498725,-0.022705,0.034625,-0.011,0.077125,-0.011078,0.01133725,0.012771499,1741898291.236916
-0.009,0.142625,0.0305,0.034973253,0.065857,-0.02412425,0.0345,-0.003625,0.0715,-0.008941749,0.008727999,0.01091,1741898291.2514062
-0.00525,0.13725,0.018375,0.033966,0.0660095,-0.026855499,0.036125,-0.003375,0.07225,-0.0056609996,0.00292975,0.0078125,1741898291.267393
0.0125,0.115,-0.0065,0.032516498,0.06498725,-0.027557248,0.04625,0.011125,0.073125,-0.00419625,0.0003205,0.00617975,1741898291.280661
0.0215,0.10425,-0.016625,0.02630625,0.059433,-0.027649,0.046375,0.01675,0.0745,-0.00048825,-0.0042115003,0.00051875,1741898291.295378
0.034625,0.0905,-0.032,0.02288825,0.055252,-0.0272675,0.04325,0.01575,0.075375,0.00099175,-0.0057677496,-0.0027160002,1741898291.3099678
0.041125,0.0835,-0.038375,0.016693002,0.0452575,-0.02604675,0.0415,0.012375,0.07575,0.0023497501,-0.0073242504,-0.005844,1741898291.3268008
0.0515,0.066875,-0.0435,0.01345825,0.0394745,-0.02522275,0.04,0.006875,0.07925,0.0048217503,-0.0109709995,-0.012557999,1741898291.3391628
0.055625,0.0595,-0.044375,0.010666001,0.03338625,-0.023956249,0.0425,-0.013,0.092125,0.0059510004,-0.012085,-0.01570125,1741898291.353867
0.059,0.05325,-0.0455,0.0061339997,0.02050775,-0.01905825,0.042875,-0.0195,0.09575,0.00671375,-0.01295475,-0.02064525,1741898291.3684149
0.064375,0.043625,-0.047375,0.0038605002,0.013854999,-0.0157775,0.039625,-0.022125,0.09475,0.00744625,-0.01345825,-0.0228425,1741898291.387268
0.068,0.038625,-0.04775,-0.00109875,0.00077825,-0.009017999,0.034625,-0.0235,0.095375,0.011764499,-0.015228249,-0.0265045,1741898291.3979478
0.075125,0.028,-0.045875,-0.0037385002,-0.0055695,-0.0055085,0.020875,-0.034,0.1075,0.014328,-0.01589975,-0.0276185,1741898291.412457
0.076875,0.02625,-0.04275,-0.008545,-0.0177765,0.002365,0.01975,-0.038375,0.1085,0.015075751,-0.0154115,-0.0301665,1741898291.427119
0.07575,0.02825,-0.0345,-0.010147001,-0.02313225,0.0065917503,0.031875,-0.053,0.090875,0.013061499,-0.0151215,-0.03189075,1741898291.44694
0.07425,0.027875,-0.032,-0.012054499,-0.03227225,0.01513675,0.036,-0.05925,0.08475,0.0074615004,-0.0153807495,-0.034225497,1741898291.4564521
0.070625,0.023375,-0.028125,-0.01307675,-0.03648375,0.01956175,0.024,-0.064375,0.097,0.005844,-0.015304499,-0.03462225,1741898291.471222
0.067375,0.0225,-0.02425,-0.014587499,-0.040664747,0.0242005,0.017375,-0.060625,0.105875,0.008361749,-0.01525875,-0.034423754,1741898291.4875882
0.061125,0.027,-0.018,-0.01899725,-0.04885875,0.033584498,0.005,-0.075125,0.120125,0.009506251,-0.01548775,-0.03430175,1741898291.500448
0.032125,0.06375,0.0065,-0.021484248,-0.052719,0.037475497,0.00275,-0.0875,0.122125,0.0057525,-0.01380925,-0.03224175,1741898291.515153
0.01075,0.09375,0.021375,-0.02572625,-0.05796825,0.0419465,0.011875,-0.109375,0.1065,0.00239575,-0.0125275,-0.0306855,1741898291.529741
-0.0225,0.147,0.042625,-0.02766425,-0.058776747,0.04220575,0.012125,-0.1185,0.102375,-0.0009155,-0.01148975,-0.02908325,1741898291.54662
-0.026125,0.152375,0.041875,-0.033554003,-0.058609,0.040802,0.002375,-0.124125,0.10825,-0.0072480002,-0.00811775,-0.024993999,1741898291.559135
-0.014,0.1425,0.023625,-0.03742975,-0.059341498,0.03987125,0.000125,-0.12275,0.1125,-0.010299751,-0.0054932497,-0.022643998,1741898291.573859
-0.011875,0.135125,0.01425,-0.04483025,-0.06074525,0.038513247,0.0,-0.120625,0.115625,-0.013931249,-0.00061025,-0.01832575,1741898291.588565
-0.031375,0.168125,0.00425,-0.046173,-0.059631247,0.037368752,0.0045,-0.12025,0.119625,-0.0138855,0.00102225,-0.016327,1741898291.6068091
-0.04125,0.1895,0.00875,-0.04473875,-0.057189997,0.033722,0.0085,-0.1225,0.11925,-0.01133725,0.0029907501,-0.012207,1741898291.617823
-0.04775,0.204625,0.0185,-0.03306575,-0.050063998,0.021347,0.014,-0.131875,0.11575,-0.009658749,0.00352475,-0.009796251,1741898291.6324632
-0.04525,0.21975,0.0485,-0.025711,-0.04635625,0.015167249,0.013625,-0.133,0.115,-0.00596625,0.004074,-0.004242,1741898291.649756
-0.039625,0.22,0.069375,-0.013733,-0.03923025,0.006668,0.007875,-0.13525,0.1175,-0.00399775,0.0044250004,-0.00108325,1741898291.661838
-0.029,0.2035,0.1115,-0.009582501,-0.03494275,0.0044555003,0.005,-0.136125,0.119,-0.00154125,0.0059205,0.00611875,1741898291.676362
-0.027375,0.19425,0.12475,-0.0060577504,-0.02313225,0.00099175,0.004375,-0.13325,0.118625,-0.00102225,0.0068665,0.010086001,1741898291.690975
-0.029625,0.194125,0.1315,-0.00546275,-0.01576225,-0.0017852499,0.005375,-0.128625,0.115375,0.0001525,0.00773625,0.01763925,1741898291.7055092
-0.028875,0.197875,0.121,-0.00109875,0.000946,-0.0102235,0.00675,-0.111375,0.110125,0.00119025,0.0074615004,0.021041749,1741898291.7198699
-0.03225,0.199375,0.101375,0.0040435,0.009491,-0.015274,0.007625,-0.1025,0.11025,0.004776,0.0066985004,0.027130252,1741898291.734397
-0.037375,0.19875,0.101375,0.01145925,0.018219,-0.020599252,0.010625,-0.099375,0.113375,0.0065612504,0.0064239996,0.02967825,1741898291.7488499
-0.042125,0.19525,0.10175,0.0281525,0.03668225,-0.03056325,0.011625,-0.105375,0.1165,0.0072632497,0.0063477503,0.031784,1741898291.7681541
-0.044625,0.16775,0.1015,0.033783,0.0451965,-0.033661,0.01175,-0.11075,0.12,0.003662,0.008209251,0.0345,1741898291.777751
-0.039625,0.150625,0.1005,0.040573,0.05953975,-0.034866247,0.010375,-0.10625,0.119875,-7.625e-05,0.010589501,0.035278253,1741898291.7922618
-0.018625,0.126375,0.082,0.042465247,0.06536875,-0.03424075,0.0115,-0.09525,0.11375,-0.0076599997,0.0160065,0.036376998,1741898291.806999
-0.00675,0.11625,0.064625,0.0430145,0.073578,-0.03182975,0.014125,-0.069,0.105,-0.01020825,0.017852752,0.03663625,1741898291.821493
0.009375,0.104625,0.02925,0.04234325,0.07557675,-0.029724,0.014625,-0.061125,0.106625,-0.012680001,0.0195465,0.036331248,1741898291.835985
0.017375,0.0925,0.008375,0.041275002,0.0763245,-0.02746575,0.018625,-0.047,0.115375,-0.013198749,0.02000425,0.035705503,1741898291.850564
0.026,0.074875,0.0005,0.035736,0.074051,-0.02067575,0.01975,-0.038375,0.11875,-0.01368725,0.021514999,0.0332185,1741898291.8669639
0.02375,0.078,0.0055,0.030731251,0.07180775,-0.01823425,0.01925,-0.0225,0.114625,-0.014343251,0.02285775,0.031723,1741898291.8797288
0.021625,0.088,-0.002625,0.022186251,0.06573475,-0.0168,0.0215,-0.01475,0.104875,-0.018219,0.02586375,0.0289155,1741898291.894303
0.031,0.08975,-0.030875,0.0192565,0.061752252,-0.016448999,0.029625,0.000625,0.084625,-0.0195465,0.0263215,0.02708425,1741898291.908658
0.03725,0.08125,-0.041375,0.011612001,0.05119325,-0.014297499,0.0305,0.003,0.0805,-0.01918025,0.025665252,0.02471925,1741898291.927285
0.04625,0.0665,-0.053,0.00744625,0.045303248,-0.01248175,0.03075,0.0035,0.0785,-0.015594499,0.0225525,0.019989,1741898291.93766
0.05175,0.061875,-0.059,0.0039825,0.0392915,-0.010604749,0.039875,0.017,0.07375,-0.01316825,0.020462,0.017746,1741898291.9522629
0.059,0.05775,-0.066625,-0.00027475,0.02674875,-0.0070037497,0.04475,0.0275,0.07325,-0.0068207504,0.0151215,0.0119934995,1741898291.96752
0.07425,0.050375,-0.080125,-0.00160225,0.020111,-0.0049742498,0.042125,0.035875,0.070875,-0.0046234997,0.01251225,0.00839225,1741898291.98127
0.080125,0.048125,-0.082,-0.00314325,0.00672925,-0.00045775,0.04275,0.031625,0.06875,-0.0012970001,0.0062712496,0.00283825,1741898291.995687
0.089,0.04175,-0.077375,-0.00381475,-1.5250001e-05,0.001892,0.051125,0.030375,0.0595,0.0013275,0.0024872501,0.00057975,1741898292.010159
0.08925,0.03925,-0.072875,-0.00694275,-0.0141755,0.0076905,0.047625,0.0295,0.061125,0.00712575,-0.0057220003,-0.0051880004,1741898292.027492
0.083375,0.0425,-0.0635,-0.008865249,-0.021347,0.01115425,0.02975,0.018125,0.06825,0.0081635,-0.00773625,-0.0076905,1741898292.039235
0.08025,0.0445,-0.0595,-0.01193225,-0.03468325,0.01794425,0.030375,0.015,0.06875,0.0076905,-0.0087585,-0.01136775,1741898292.053858
0.071,0.04675,-0.05075,-0.013351499,-0.04078675,0.02127075,0.04225,0.006,0.064625,0.0072937496,-0.0099945,-0.01374825,1741898292.068362
0.062125,0.051125,-0.044625,-0.01496875,-0.046554502,0.0246125,0.049375,0.00325,0.0635,0.0067597497,-0.012146,-0.01646425,1741898292.0864
0.048875,0.06025,-0.03625,-0.01896675,-0.056549,0.03120425,0.052625,-0.00025,0.067875,0.0072785,-0.01722725,-0.02212525,1741898292.097447
0.0165,0.08675,-0.019,-0.02142325,-0.060424753,0.034073003,0.0405,-0.018125,0.085375,0.008255,-0.0187835,-0.024002,1741898292.112145
0.004125,0.09975,-0.0145,-0.02734375,-0.065918,0.0375825,0.033375,-0.025,0.09075,0.01062,-0.02023325,-0.025879,1741898292.128453
-0.006625,0.114875,-0.01575,-0.030136,-0.06811525,0.037704498,0.029875,-0.03325,0.095625,0.01216125,-0.02091975,-0.026840251,1741898292.141471
-0.011375,0.1215,-0.0175,-0.03382875,-0.07191475,0.037414502,0.032875,-0.038625,0.09575,0.013321,-0.0219115,-0.029174749,1741898292.156044
-0.030875,0.14625,-0.0095,-0.0332185,-0.07260125,0.037262,0.033125,-0.05575,0.088375,0.01200875,-0.022033751,-0.030136,1741898292.1706839
-0.04525,0.161,0.00575,-0.02760325,-0.06982425,0.035461497,0.02575,-0.063125,0.084375,0.0070037497,-0.02227775,-0.03005975,1741898292.18978
-0.060875,0.180625,0.042,-0.0238495,-0.06646725,0.033370998,0.015125,-0.067125,0.090875,0.0053709997,-0.022491502,-0.02905275,1741898292.200084
-0.05725,0.1825,0.058875,-0.0196685,-0.0623475,0.030456498,0.01725,-0.075375,0.099375,0.00587475,-0.022338752,-0.02633675,1741898292.214665
-0.0515,0.18275,0.07375,-0.0125275,-0.05340575,0.023407,0.017375,-0.096375,0.112,0.0062865,-0.02162175,-0.024810748,1741898292.229281
-0.053125,0.19225,0.09725,-0.0102845,-0.0487365,0.020202748,0.014125,-0.1025,0.114875,0.00488275,-0.018814,-0.02139275,1741898292.247454
-0.06125,0.20225,0.107,-0.00798025,-0.0379945,0.01345825,0.01,-0.102875,0.117375,0.00343325,-0.017181499,-0.01940925,1741898292.258566
-0.064,0.206625,0.115125,-0.0071409997,-0.03123475,0.009094249,0.01775,-0.103375,0.1185,0.0019225,-0.01564025,-0.0174865,1741898292.273174
-0.0595,0.200625,0.11825,-0.00411975,-0.0153807495,3.0500001e-05,0.040375,-0.108125,0.117125,-0.000122000005,-0.01324475,-0.0147705,1741898292.2878568
-0.051375,0.192625,0.119125,-0.001175,-0.0065307496,-0.0040587503,0.040375,-0.109125,0.119625,0.00013725001,-0.012542751,-0.0137635,1741898292.307759
-0.04625,0.186375,0.112,0.00788875,0.0114744995,-0.0113525,0.03425,-0.113625,0.122625,0.0029907501,-0.0110932505,-0.010879501,1741898292.3170948
-0.039125,0.17725,0.094375,0.0129700005,0.01937875,-0.014724749,0.02375,-0.12575,0.125,0.00355525,-0.0099639995,-0.0086975,1741898292.331698
-0.03825,0.171625,0.08925,0.017547501,0.0263825,-0.01799,0.024625,-0.12675,0.1265,0.0013427499,-0.006836,-0.00378425,1741898292.348554
-0.039375,0.16475,0.088125,0.0236665,0.038269002,-0.022293,0.0285,-0.121875,0.134375,-4.575e-05,-0.0051269997,-0.00148,1741898292.361078
-0.042,0.151125,0.087875,0.024383498,0.04359425,-0.023040751,0.027125,-0.119,0.137125,-0.0016785001,-0.0019225,0.0027160002,1741898292.375772
-0.039,0.145375,0.084375,0.023468,0.05337525,-0.0237275,0.0175,-0.10625,0.135625,-0.00175475,-0.00035100002,0.0048217503,1741898292.390398
-0.023125,0.13275,0.06475,0.02323925,0.0574035,-0.0244445,0.013625,-0.099625,0.133,0.0002595,0.00231925,0.0093385,1741898292.406911
-0.012,0.12875,0.049875,0.023803748,0.06251525,-0.025406,0.013375,-0.092625,0.128625,0.001526,0.0031585,0.01145925,1741898292.4193652
0.01375,0.115,0.021625,0.0249635,0.0639495,-0.0250245,0.014625,-0.090875,0.12825,0.0030669998,0.0043944996,0.0152435,1741898292.433822
0.01975,0.1145,0.016,0.02661125,0.0646515,-0.02339175,0.016125,-0.089,0.125125,0.0032195,0.00511175,0.0168305,1741898292.4482749
0.01975,0.123375,0.0165,0.02908325,0.064834505,-0.020584,0.016375,-0.08825,0.121375,0.00292975,0.0059967497,0.01808175,1741898292.467189
0.021625,0.1035,0.006875,0.029449498,0.0647125,-0.020172002,0.01625,-0.086625,0.1125,0.0009155,0.008026,0.01968375,1741898292.4771788
0.02425,0.095625,-0.0005,0.0252075,0.06044,-0.0168305,0.015625,-0.08625,0.10975,-0.00061025,0.009002751,0.020279,1741898292.491849
0.02975,0.090875,-0.01525,0.02088925,0.05662525,-0.015396,0.014875,-0.08475,0.108875,-0.004303,0.011139,0.021484248,1741898292.5065951
0.031875,0.091875,-0.02075,0.012329,0.04776,-0.014007499,0.013875,-0.0805,0.109375,-0.00631725,0.012267999,0.0220185,1741898292.521018
0.0385,0.091,-0.028875,0.00930775,0.0434265,-0.013778751,0.01375,-0.07675,0.10875,-0.00889575,0.01419075,0.02301025,1741898292.5355039
0.042,0.086875,-0.032625,0.0072937496,0.039184503,-0.01345825,0.012,-0.06975,0.1035,-0.009597749,0.0147705,0.02339175,1741898292.550005
0.045375,0.081125,-0.0365,0.00538625,0.030731251,-0.011245751,0.0095,-0.06725,0.10025,-0.011688249,0.01554875,0.02433775,1741898292.567146
0.0525,0.0695,-0.043125,0.00469975,0.02633675,-0.009231499,0.010625,-0.061625,0.094125,-0.013351499,0.0160065,0.02471925,1741898292.5790951
0.054875,0.065125,-0.044875,0.0024414998,0.01690675,-0.004593,0.013375,-0.060625,0.09375,-0.01805125,0.016967751,0.0247955,1741898292.593782
0.058125,0.060375,-0.046,0.00131225,0.012085,-0.0023497501,0.01725,-0.049875,0.0995,-0.0206145,0.017852752,0.0247955,1741898292.608276
0.06125,0.05825,-0.046375,-0.00027475,0.0022277501,0.0017242499,0.01875,-0.039375,0.09975,-0.0245515,0.020629998,0.024002,1741898292.628221
0.065125,0.05425,-0.04525,-0.0012817499,-0.00305175,0.00393675,0.0235,-0.01725,0.0905,-0.02537525,0.0217285,0.0229645,1741898292.637493
0.062875,0.05425,-0.040625,-0.003296,-0.013412501,0.00918575,0.028875,-0.008375,0.083625,-0.025177,0.02215575,0.02149975,1741898292.651995
0.05325,0.056625,-0.028875,-0.00416575,-0.018127501,0.011917,0.035,-0.001375,0.079625,-0.021789499,0.02026375,0.01799,1741898292.670757
0.048,0.061375,-0.02375,-0.005066,-0.022583,0.01454175,0.04125,0.008875,0.08175,-0.018875,0.0182495,0.01640325,1741898292.681063
0.044,0.068,-0.0205,-0.0079345,-0.030716,0.01908875,0.043875,0.014125,0.081875,-0.01278675,0.01330575,0.013290499,1741898292.695595
0.036625,0.079875,-0.01975,-0.01048275,-0.0345765,0.0211945,0.050125,0.021875,0.079,-0.010299751,0.0104674995,0.011535751,1741898292.7100952
0.032,0.084,-0.0205,-0.01716625,-0.04237375,0.025421249,0.0515,0.025125,0.078375,-0.0065612504,0.00460825,0.0077667497,1741898292.727078
0.024,0.089625,-0.022375,-0.02082825,-0.04638675,0.02731325,0.048875,0.02925,0.07825,-0.0052185003,0.00193775,0.00564575,1741898292.7391
0.019875,0.093875,-0.022,-0.02664175,-0.054123,0.03028875,0.04725,0.031,0.078625,-0.0033264998,-0.00231925,0.00083925005,1741898292.753779
0.006125,0.109375,-0.019,-0.02896125,-0.05770875,0.0310975,0.05075,0.033375,0.07825,-0.0022277501,-0.004013,-0.0017395001,1741898292.76835
-0.001875,0.119125,-0.01975,-0.03182975,-0.063400246,0.03190625,0.056,0.031625,0.078125,0.00146475,-0.0078125,-0.0071409997,1741898292.787366
-0.01425,0.1385,-0.0215,-0.03182975,-0.06517025,0.032180753,0.05925,0.01925,0.08375,0.0038757501,-0.010162249,-0.00991825,1741898292.797515
-0.01975,0.143625,-0.0165,-0.03132625,-0.066268995,0.03221125,0.055875,0.013,0.093,0.0061339997,-0.01245125,-0.0127105,1741898292.8120089
-0.02725,0.148625,-0.006125,-0.03041075,-0.066513,0.03105175,0.046625,0.0035,0.110125,0.009445249,-0.014800999,-0.01814275,1741898292.827859
-0.038125,0.158625,0.02425,-0.029663,-0.06510925,0.029693501,0.04275,0.0005,0.114875,0.01127625,-0.015090999,-0.02034,1741898292.841096
-0.038875,0.16675,0.03325,-0.02943425,-0.05982975,0.025695749,0.04025,-0.000375,0.117875,0.016113251,-0.01510625,-0.02417,1741898292.855875
-0.038875,0.18725,0.02525,-0.0305175,-0.057327252,0.02342225,0.035125,-0.012125,0.123375,0.018448,-0.01469425,-0.026291,1741898292.870572
-0.039,0.1955,0.022625,-0.0261535,-0.0522765,0.02053825,0.031875,-0.023875,0.121625,0.02091975,-0.01330575,-0.02946475,1741898292.887639
-0.044625,0.20225,0.041375,-0.0201875,-0.0486755,0.01879875,0.0285,-0.040375,0.10375,0.020813,-0.0128632495,-0.03028875,1741898292.899882
-0.0465,0.19875,0.0555,-0.009094249,-0.038772497,0.01228325,0.0285,-0.0365,0.095875,0.018982,-0.0122985,-0.0318145,1741898292.914616
-0.05325,0.185125,0.091125,-0.0072175004,-0.03300475,0.00830075,0.031,-0.0205,0.092,0.01794425,-0.012085,-0.033615,1741898292.9292722
-0.055125,0.18325,0.101375,-0.0058135,-0.02626025,0.0047302498,0.027,-0.0255,0.098375,0.01805125,-0.012191749,-0.03657525,1741898292.9467971
-0.05475,0.180375,0.101,-0.00276175,-0.0109709995,-0.00263975,0.00575,-0.07025,0.105125,0.0198365,-0.0124665005,-0.035766497,1741898292.958604
-0.050125,0.164625,0.083375,-0.00105275,-0.00416575,-0.0066374997,0.00075,-0.089875,0.112875,0.02183525,-0.011810251,-0.030777,1741898292.973283
-0.044875,0.155875,0.072875,0.0025025,0.006546,-0.012542751,0.00875,-0.0855,0.11325,0.020599252,-0.010009751,-0.0305175,1741898292.9879098
-0.039875,0.1505,0.063875,0.003769,0.011139,-0.01452625,0.012125,-0.091125,0.1055,0.0157775,-0.0072480002,-0.030838,1741898293.0065348
-0.042,0.149125,0.0635,0.00637825,0.0212555,-0.017807,0.018375,-0.1145,0.087375,0.01251225,-0.0065765,-0.02845775,1741898293.0173728
-0.039375,0.1435,0.061125,0.00767525,0.026519751,-0.01914975,0.021875,-0.1195,0.083625,0.0069885002,-0.0057677496,-0.023056,1741898293.032057
-0.033,0.138125,0.05925,0.010528499,0.036239497,-0.021286,0.018,-0.12625,0.096,0.00585925,-0.0056,-0.02098075,1741898293.0466392
-0.02075,0.132875,0.052375,0.01165775,0.04025275,-0.021759002,0.01425,-0.128375,0.105625,0.0050965,-0.0051574996,-0.018859752,1741898293.061276
-0.018625,0.13675,0.047125,0.012130749,0.043518003,-0.02162175,0.0135,-0.128625,0.112,0.00296025,-0.0028229998,-0.01402275,1741898293.075945
-0.0185,0.14125,0.041625,0.010803251,0.048294,-0.02127075,0.018375,-0.1295,0.112125,0.00216675,-0.0015565,-0.01148975,1741898293.090581
-0.0195,0.14375,0.033625,0.010147001,0.05055225,-0.021484248,0.021625,-0.131375,0.108,0.00204475,-0.00054925,-0.006668,1741898293.108335
-0.0185,0.143375,0.026625,0.011886501,0.05558775,-0.02265925,0.02125,-0.1365,0.09925,0.0021819999,-0.000763,-0.00428775,1741898293.1198819
-0.015625,0.146,0.014,0.0144805005,0.05805975,-0.02345275,0.015625,-0.137375,0.101375,0.00125125,-0.00059500005,0.001419,1741898293.134492
-0.01525,0.148125,0.005,0.021942249,0.06280525,-0.024810748,0.005625,-0.134125,0.111125,0.000183,0.000412,0.004837,1741898293.151568
-0.0045,0.130125,-0.0045,0.024536248,0.0641175,-0.02439875,0.003875,-0.129875,0.1115,-0.00177,0.0029145,0.011901749,1741898293.1635358
-0.005125,0.136375,0.001125,0.025787251,0.064743,-0.0232085,0.003375,-0.1175,0.106875,-0.002121,0.00364675,0.015029999,1741898293.1780028
-0.009,0.149875,0.001875,0.02737425,0.06536875,-0.02363575,0.002875,-0.109625,0.106,-0.001114,0.0041810004,0.02070625,1741898293.19251
-0.0025,0.1425,-0.01,0.028839001,0.06542975,-0.025085501,0.004875,-0.095,0.105,1.5250001e-05,0.00437925,0.02342225,1741898293.206944
0.006875,0.125,-0.017,0.02763375,0.062362753,-0.025833251,0.007875,-0.09,0.105625,0.00177,0.0048979996,0.028,1741898293.221368
0.023125,0.106375,-0.026875,0.0240325,0.058776747,-0.02516175,0.016375,-0.090625,0.108125,0.0016785001,0.0054015,0.02920525,1741898293.235898
0.0265,0.103625,-0.02975,0.012985251,0.0490265,-0.024658252,0.02025,-0.0935,0.107375,0.00064075,0.0061035,0.0298005,1741898293.2503731
0.02675,0.102125,-0.035875,0.0085602505,0.044051997,-0.024231002,0.022625,-0.09325,0.104375,-0.0043944996,0.008407501,0.0299835,1741898293.2671082
0.030875,0.098875,-0.04,0.0060882503,0.03952025,-0.02345275,0.017375,-0.08975,0.1005,-0.0080567505,0.009933501,0.0301665,1741898293.279594
0.038625,0.082625,-0.048875,0.0029907501,0.030853251,-0.02165225,0.011625,-0.08625,0.105375,-0.0158385,0.014007499,0.0316315,1741898293.294142
0.041,0.076625,-0.05475,0.00160225,0.02648925,-0.020324752,0.005,-0.072875,0.118125,-0.018982,0.016739,0.032424998,1741898293.308769
0.04325,0.072,-0.0615,0.000473,0.018035999,-0.016632,0.00975,-0.062625,0.118875,-0.022216748,0.02238475,0.032470748,1741898293.32741
0.04825,0.06275,-0.06975,0.00077825,0.01374825,-0.014434749,0.0245,-0.05175,0.108375,-0.02253725,0.024261499,0.03189075,1741898293.3379211
0.051375,0.0585,-0.07075,0.0021972498,0.00485225,-0.009292499,0.02875,-0.048625,0.098,-0.02275075,0.025177,0.031265248,1741898293.3525069
0.05775,0.050125,-0.07425,0.002655,6.1000002e-05,-0.00646975,0.037125,-0.027,0.078125,-0.022583,0.02439875,0.0308075,1741898293.367415
0.0595,0.04625,-0.0755,0.00099175,-0.010849,-0.0004425,0.039875,-0.01375,0.074,-0.020782499,0.02159125,0.028,1741898293.381521
0.05875,0.0445,-0.072125,-0.00071725,-0.01664725,0.0027160002,0.044625,0.008125,0.07625,-0.019317752,0.02015675,0.02604675,1741898293.395977
0.059,0.045125,-0.06775,-0.0021972498,-0.022064252,0.0059510004,0.049125,0.014,0.075375,-0.01766975,0.0188445,0.0239105,1741898293.4103732
0.059625,0.046375,-0.06225,-0.00378425,-0.03144825,0.012496999,0.053,0.0165,0.073625,-0.01425175,0.01504525,0.01914975,1741898293.42768
0.057,0.0505,-0.0535,-0.0043335,-0.035553,0.015808,0.055,0.01825,0.06975,-0.01272575,0.012542751,0.016693002,1741898293.4395242
0.051375,0.055875,-0.0505,-0.00505075,-0.04318225,0.0224,0.055625,0.022625,0.069375,-0.009430001,0.007187,0.01156625,1741898293.453994
0.03125,0.0745,-0.041375,-0.00535575,-0.0467835,0.0252075,0.0615,0.035375,0.069875,-0.00715625,0.004486,0.008590749,1741898293.468498
0.01925,0.086,-0.034,-0.00688175,-0.0532075,0.02896125,0.064625,0.040875,0.06925,-0.00099175,-0.00175475,0.00175475,1741898293.4870899
-0.00075,0.107,-0.01675,-0.00823975,-0.055724997,0.029953,0.06425,0.042375,0.06625,0.002365,-0.00520325,-0.001953,1741898293.497492
-0.0045,0.1085,-0.0145,-0.01367175,-0.05935675,0.031723,0.061625,0.036625,0.065625,0.00782775,-0.01187125,-0.009216251,1741898293.512094
-0.006,0.1075,-0.0225,-0.01779175,-0.061523497,0.033035252,0.057375,0.02075,0.073375,0.00897225,-0.014358499,-0.012557999,1741898293.526722
-0.011,0.117625,-0.021625,-0.02162175,-0.06428525,0.033905,0.05775,0.013,0.0795,0.009094249,-0.0169525,-0.018585252,1741898293.5468621
-0.017875,0.132,-0.01325,-0.023650998,-0.068359256,0.03149425,0.05575,-0.00325,0.0925,0.009140001,-0.017654499,-0.021164,1741898293.555871
-0.028625,0.157125,0.01325,-0.021453751,-0.0683135,0.028991751,0.05225,-0.01025,0.098375,0.00930775,-0.018097,-0.02339175,1741898293.570615
-0.030375,0.160125,0.025625,-0.0160675,-0.064361505,0.02610775,0.040875,-0.02225,0.10775,0.010818499,-0.01811225,-0.0267945,1741898293.587832
-0.033625,0.164375,0.0465,-0.01498425,-0.06147775,0.026397752,0.0355,-0.029625,0.11225,0.012420749,-0.017868,-0.0279235,1741898293.599909
-0.038875,0.16975,0.053375,-0.01753225,-0.056472752,0.026550248,0.031125,-0.042,0.1165,0.0148925,-0.016845752,-0.029266251,1741898293.614586
-0.046625,0.1845,0.07,-0.01882925,-0.054062,0.0251465,0.039125,-0.049875,0.118,0.015457249,-0.01605225,-0.02970875,1741898293.629764
-0.0475,0.188,0.078875,-0.01791375,-0.04670725,0.018859752,0.04925,-0.046375,0.113,0.0139770005,-0.014648501,-0.033508252,1741898293.644119
-0.048875,0.187875,0.10125,-0.01681525,-0.041931253,0.01490775,0.043875,-0.063625,0.10225,0.0114135,-0.014007499,-0.0355225,1741898293.6588218
-0.05,0.192375,0.109875,-0.01573175,-0.0364075,0.01115425,0.035125,-0.079625,0.092375,0.00466925,-0.013031,-0.03509525,1741898293.673374
-0.0495,0.19525,0.11275,-0.0104065,-0.022171,0.0043944996,0.029625,-0.098,0.07875,0.001114,-0.01361075,-0.03297425,1741898293.688085
-0.051375,0.193875,0.118125,-0.0063325,-0.013854999,0.00112925,0.022125,-0.093875,0.084875,-0.0032195,-0.01460275,-0.027709998,1741898293.706988
-0.050125,0.184875,0.1155,0.0023345,0.0031585,-0.0064850003,0.00175,-0.1035,0.11,-0.00325,-0.0135955,-0.02439875,1741898293.7177038
-0.041375,0.171,0.09825,0.0051269997,0.010101249,-0.009796251,-0.002875,-0.1155,0.118125,-0.00570675,-0.008727999,-0.01596075,1741898293.7325199
-0.040125,0.1715,0.092875,0.00614925,0.020874001,-0.0153655,0.005875,-0.12175,0.124875,-0.0086975,-0.00579825,-0.0123595,1741898293.748553
-0.0375,0.163,0.089625,0.00593575,0.02598575,-0.017517,0.014125,-0.11875,0.126875,-0.012634249,-0.0013427499,-0.00715625,1741898293.7619
-0.032375,0.1605,0.084875,0.0060272496,0.0356445,-0.020218,0.024875,-0.106375,0.13,-0.012619001,-0.00036625,-0.0048979996,1741898293.776693
-0.020875,0.1595,0.06775,0.0069274995,0.040099997,-0.02149975,0.025125,-0.098375,0.133875,-0.00918575,-3.0500001e-05,0.000229,1741898293.791285
-0.0165,0.15925,0.055875,0.00880425,0.0442505,-0.02272025,0.022875,-0.08275,0.140125,-0.0060425,0.00033575002,0.0030365,1741898293.8066628
-0.012625,0.158,0.043625,0.013336251,0.050536998,-0.024780251,0.02325,-0.077375,0.1365,0.0023497501,0.001175,0.008255,1741898293.8205252
-0.009,0.154,0.02575,0.0153807495,0.052368253,-0.025665252,0.0235,-0.071875,0.126375,0.0060272496,0.00131225,0.010604749,1741898293.834917
-0.0105,0.149875,0.0235,0.020355249,0.0550995,-0.02680975,0.023375,-0.069875,0.127125,0.0090485,0.0013885,0.012756251,1741898293.849518
-0.015875,0.140375,0.015875,0.022613501,0.05650325,-0.02677925,0.02325,-0.069875,0.13075,0.01368725,0.0021057501,0.01649475,1741898293.867278
-0.01375,0.134875,0.007375,0.023773251,0.05783075,-0.025589,0.02325,-0.074875,0.13275,0.014785751,0.0028535,0.01805125,1741898293.8785212
-0.003875,0.1255,-0.004375,0.02256775,0.05708325,-0.0249175,0.024125,-0.078125,0.128625,0.01307675,0.00538625,0.020141501,1741898293.893065
0.000875,0.121875,-0.00725,0.0187225,0.05349725,-0.02418525,0.026375,-0.07825,0.113875,0.0105742505,0.00694275,0.0205535,1741898293.907516
0.00525,0.11425,-0.015625,0.016693002,0.051284753,-0.0242005,0.02675,-0.07575,0.10775,0.0047455,0.009369001,0.0208435,1741898293.9219499
0.006625,0.1105,-0.021125,0.0153655,0.04907225,-0.02436825,0.0235,-0.072125,0.105625,0.0023497501,0.010299751,0.021408001,1741898293.936491
0.011125,0.104375,-0.0265,0.015167249,0.0447235,-0.02445975,0.024,-0.068625,0.106875,-0.00027475,0.01194775,0.022643998,1741898293.951021
0.019875,0.091125,-0.030625,0.015152001,0.0421905,-0.02389525,0.02975,-0.0595,0.11075,-0.00057975,0.0125885,0.022613501,1741898293.9672
0.023,0.0875,-0.033125,0.0148772495,0.03710925,-0.0213775,0.029,-0.05975,0.1125,-0.00160225,0.013641249,0.02224725,1741898293.980007
0.028,0.0805,-0.03675,0.01463325,0.034606997,-0.01991275,0.02625,-0.057,0.10525,-0.00283825,0.014221249,0.022613501,1741898293.99458
0.029625,0.07625,-0.0385,0.013427749,0.02943425,-0.01708975,0.029125,-0.053125,0.095,-0.004074,0.0144805005,0.0232085,1741898294.009206
0.033875,0.070125,-0.043125,0.0124665005,0.026596,-0.015564,0.034,-0.04725,0.083625,-0.0060882503,0.013549751,0.02354425,1741898294.026892
0.037125,0.068875,-0.046375,0.011306751,0.023498502,-0.0139465,0.03875,-0.0325,0.07725,-0.006775,0.01266475,0.02285775,1741898294.03827
0.043625,0.0655,-0.05,0.008667,0.01643375,-0.01054375,0.039,-0.0235,0.08275,-0.0066985004,0.011856,0.02041625,1741898294.052876
0.046125,0.062,-0.04925,0.0072175004,0.01260375,-0.0087585,0.046,-0.006875,0.088875,-0.00640875,0.011749251,0.018585252,1741898294.067538
0.049,0.058375,-0.048625,0.00355525,0.004776,-0.0047607496,0.0505,-0.003125,0.08625,-0.0052642496,0.0103455,0.013641249,1741898294.0820348
0.055375,0.0535,-0.049625,0.00131225,0.000763,-0.002533,0.054875,0.00275,0.076,-0.0040435,0.008667,0.011139,1741898294.0963788
0.05775,0.053375,-0.048625,-0.0023039998,-0.00764475,0.002655,0.05625,0.0085,0.071125,-0.00077825,0.00384525,0.00585925,1741898294.110944
0.060375,0.058125,-0.04025,-0.003296,-0.01171875,0.00538625,0.059875,0.01825,0.063625,0.000946,0.001007,0.0028687501,1741898294.125957
0.0615,0.05925,-0.035125,-0.00334175,-0.018448,0.010604749,0.061625,0.018625,0.062,0.0037079998,-0.0049285004,-0.0033875,1741898294.13997
0.062,0.05975,-0.0305,-0.00317375,-0.021347,0.013336251,0.059875,0.010625,0.066625,0.00466925,-0.007782,-0.0062255003,1741898294.154586
0.0585,0.06325,-0.0305,-0.0044707498,-0.027557248,0.019104,0.055875,0.00275,0.072125,0.00535575,-0.010391249,-0.008773751,1741898294.171701
0.045125,0.07925,-0.030625,-0.0061645,-0.031128,0.0216675,0.051,-0.006375,0.078625,0.004837,-0.01380925,-0.013321,1741898294.1863701
0.03775,0.088,-0.029125,-0.008651749,-0.03492725,0.02360525,0.040875,-0.02275,0.095625,0.0035704998,-0.01431275,-0.01525875,1741898294.19853
0.03125,0.094,-0.0265,-0.014679,-0.042358503,0.02604675,0.036875,-0.027375,0.103125,0.0017242499,-0.0134735005,-0.01811225,1741898294.213134
0.02175,0.098125,-0.02325,-0.017303498,-0.04574575,0.02705375,0.036,-0.028,0.111125,0.00184625,-0.01266475,-0.019470248,1741898294.2278929
0.018,0.10075,-0.024375,-0.0218505,-0.05226125,0.028686501,0.035875,-0.03275,0.112625,0.0048217503,-0.01197825,-0.022094749,1741898294.2471108
0.014375,0.115,-0.025125,-0.023285,-0.0552825,0.02896125,0.03475,-0.051375,0.119125,0.0068055,-0.01206975,-0.022812,1741898294.257303
0.0145,0.122375,-0.022625,-0.0234375,-0.05992125,0.0283965,0.034875,-0.057625,0.1225,0.008865249,-0.01145925,-0.02354425,1741898294.271925
0.004625,0.138,-0.009125,-0.02241525,-0.061386,0.028,0.043375,-0.047875,0.112875,0.008545,-0.010742251,-0.024841249,1741898294.287065
-0.009,0.148125,0.00475,-0.018448,-0.06163025,0.02742,0.046625,-0.043625,0.102875,0.0057677496,-0.0099945,-0.02946475,1741898294.301328
-0.03025,0.157125,0.032875,-0.016296498,-0.059692502,0.027176,0.034875,-0.048375,0.09725,0.0053252503,-0.010101249,-0.03114325,1741898294.3159392
-0.03075,0.158125,0.038625,-0.01481625,-0.05656425,0.02680975,0.021875,-0.063,0.1,0.008361749,-0.01115425,-0.03038025,1741898294.330637
-0.0265,0.15725,0.03725,-0.01525875,-0.050598253,0.0251465,-0.000375,-0.10225,0.10725,0.00842275,-0.011383001,-0.02742,1741898294.347456
-0.0165,0.155375,0.026,-0.01693725,-0.049423248,0.024292,-0.002,-0.109875,0.10775,0.00267025,-0.008941749,-0.020172002,1741898294.3602061
-0.018625,0.1585,0.02825,-0.02041625,-0.049881,0.02262875,0.006875,-0.1155,0.103125,-0.00064075,-0.0071105,-0.01708975,1741898294.374908
-0.041125,0.173375,0.06,-0.020401,-0.0486755,0.0208435,0.013375,-0.11775,0.102,-0.0063325,-0.0037995,-0.012054499,1741898294.389759
-0.051875,0.177875,0.074625,-0.01791375,-0.04011525,0.015625,0.026,-0.108125,0.106375,-0.00833125,-0.00242625,-0.0101165,1741898294.406643
-0.056,0.1835,0.0795,-0.016739,-0.034027,0.0128632495,0.030625,-0.1035,0.10925,-0.008865249,-0.0016175,-0.0085602505,1741898294.419213
-0.049875,0.183,0.075125,-0.013916001,-0.02177425,0.006836,0.030375,-0.100875,0.115625,-0.0064850003,-0.00190725,-0.0054015,1741898294.433892
-0.038875,0.184125,0.071875,-0.0112915,-0.0164795,0.00381475,0.028375,-0.100875,0.116875,-0.0051574996,-0.0020905002,-0.00364675,1741898294.448714
-0.038,0.186625,0.075125,-0.00785825,-0.0115815,0.00083925005,0.02675,-0.097375,0.115125,-0.0034942501,-0.001419,0.00024425,1741898294.4671628
-0.04,0.188625,0.078375,-6.1000002e-05,-0.00131225,-0.0048979996,0.025625,-0.0955,0.115,-0.0028229998,-0.00083925005,0.0021972498,1741898294.47797
-0.0445,0.180375,0.077,0.0034637498,0.0043182503,-0.007904,0.024,-0.095,0.115125,-0.002533,0.0007935,0.0057372497,1741898294.4925282
-0.044625,0.172,0.070625,0.00665275,0.0148772495,-0.01367175,0.01925,-0.092375,0.1145,-0.0032347501,0.0018005001,0.0072937496,1741898294.507018
-0.0435,0.16225,0.063375,0.0065765,0.019439751,-0.016021749,0.016375,-0.090375,0.114125,-0.005844,0.0039215,0.009872501,1741898294.521525
-0.04175,0.16225,0.0625,0.0075225,0.02867125,-0.021026501,0.01475,-0.08625,0.114,-0.0077515002,0.00511175,0.01091,1741898294.536005
-0.031,0.15725,0.05575,0.009079001,0.033370998,-0.02339175,0.017375,-0.0815,0.114125,-0.0114744995,0.0077972496,0.012542751,1741898294.5505521
-0.0245,0.1535,0.047375,0.01248175,0.041214,-0.026184,0.023625,-0.066,0.115625,-0.012557999,0.009201,0.01326,1741898294.5674398
-0.0185,0.1545,0.026375,0.013412501,0.0437775,-0.02687075,0.02575,-0.05775,0.11575,-0.0114440005,0.0114135,0.0150605,1741898294.579797
-0.020125,0.1535,0.0255,0.01402275,0.0460205,-0.02787775,0.0285,-0.04475,0.115375,-0.0088195,0.01156625,0.01628125,1741898294.59423
-0.022875,0.15125,0.02425,0.017151,0.05169675,-0.031433,0.028375,-0.040125,0.117375,-0.00190725,0.01077275,0.01857,1741898294.6101718
-0.021375,0.14875,0.00975,0.02067575,0.054901,-0.03309625,0.0305,-0.040375,0.116625,0.0005645,0.0105742505,0.019455,1741898294.623188
-0.016875,0.147375,0.0,0.030731251,0.06039425,-0.034958,0.03475,-0.043,0.112,0.001648,0.010528499,0.0199585,1741898294.637651
-0.009875,0.141,-0.01375,0.0358125,0.0624085,-0.0356445,0.039375,-0.04575,0.105375,0.001526,0.009948749,0.01953125,1741898294.6521542
-0.00475,0.126875,-0.01825,0.040619,0.06410225,-0.03536975,0.039125,-0.044,0.10025,0.0010375,0.00941475,0.018814,1741898294.6666481
0.0,0.119125,-0.015625,0.040207002,0.0638275,-0.03453075,0.03575,-0.0425,0.101875,-0.00033575002,0.0091095,0.017455999,1741898294.68124
0.000625,0.124875,-0.015625,0.038940497,0.062851004,-0.03430175,0.033875,-0.040875,0.103375,-0.000824,0.009201,0.017135499,1741898294.69581
0.0095,0.122875,-0.022875,0.036376998,0.060379002,-0.036255002,0.0325,-0.041,0.102625,-0.0023345,0.0093385,0.016632,1741898294.7103271
0.020375,0.110125,-0.029375,0.0346375,0.059021,-0.0375365,0.03025,-0.04375,0.09575,-0.00331125,0.00924675,0.01631175,1741898294.727517
0.0325,0.096625,-0.035375,0.02886975,0.053115748,-0.0375825,0.031875,-0.046125,0.08875,-0.0045625,0.00782775,0.016098,1741898294.739541
0.049375,0.080875,-0.044625,0.0252075,0.04841625,-0.03683475,0.040375,-0.03625,0.084125,-0.00514225,0.006607,0.015686,1741898294.7540212
0.05425,0.07475,-0.047875,0.01805125,0.037048247,-0.03439325,0.0425,-0.02725,0.09075,-0.005783,0.00541675,0.0136565,1741898294.7685308
0.064125,0.06,-0.051,0.0147705,0.03132625,-0.032409754,0.04575,-0.008625,0.102125,-0.00579825,0.00541675,0.0119934995,1741898294.783128
0.067375,0.053875,-0.051375,0.009079001,0.020691,-0.027481,0.0475,-0.002,0.1015,-0.0055237496,0.0052947504,0.0099639995,1741898294.7975419
0.071625,0.044,-0.05225,0.00712575,0.01570125,-0.024841249,0.05025,0.0035,0.09625,-0.00328075,0.00325,0.0054015,1741898294.811934
0.07475,0.040375,-0.0535,0.0054475004,0.010757499,-0.02215575,0.056,0.013875,0.08625,-0.001419,0.00112925,0.0029907501,1741898294.827671
0.07825,0.037125,-0.05425,0.00149525,0.00054925,-0.01649475,0.057875,0.018125,0.085125,0.002533,-0.0036162501,-0.0022735,1741898294.840966
0.084875,0.031125,-0.051375,-0.00054925,-0.0046539996,-0.013290499,0.056,0.013375,0.085375,0.0040587503,-0.0056304997,-0.0051574996,1741898294.855534
0.087375,0.029375,-0.04725,-0.00369275,-0.01475525,-0.00590525,0.051875,0.005125,0.08725,0.0054932497,-0.008636501,-0.01077275,1741898294.870003
0.089875,0.029375,-0.037125,-0.0047302498,-0.01950075,-0.0021515,0.04425,-0.012,0.0965,0.005844,-0.009597749,-0.01307675,1741898294.887106
0.09125,0.029125,-0.034125,-0.00694275,-0.028411752,0.00469975,0.0415,-0.017375,0.10425,0.0064850003,-0.0102235,-0.0163575,1741898294.8993149
0.092375,0.029125,-0.031375,-0.008773751,-0.03274525,0.0081635,0.038,-0.02575,0.1145,0.00723275,-0.010086001,-0.0173645,1741898294.913984
0.089625,0.031375,-0.02975,-0.01345825,-0.0408325,0.0157775,0.037125,-0.0315,0.1155,0.008941749,-0.0097045,-0.018982,1741898294.928666
0.078625,0.042875,-0.020125,-0.015579251,-0.044326752,0.019592252,0.03425,-0.0455,0.11625,0.0099639995,-0.009491,-0.019714251,1741898294.94698
0.07025,0.0515,-0.01225,-0.017151,-0.04727175,0.023117,0.034625,-0.050125,0.117125,0.0114135,-0.009369001,-0.0203705,1741898294.957922
0.053125,0.07525,0.00225,-0.017028749,-0.05148325,0.0290375,0.037,-0.05125,0.118,0.01460275,-0.009277251,-0.021362249,1741898294.972594
0.044375,0.087375,0.00875,-0.01593025,-0.052887,0.031188998,0.03975,-0.045,0.113125,0.015518251,-0.00935375,-0.022293,1741898294.9872901
0.03375,0.101125,0.016875,-0.01716625,-0.05581675,0.03404225,0.042125,-0.044375,0.1055,0.010894749,-0.009506251,-0.0269165,1741898295.002479
0.008375,0.12575,0.041,-0.02023325,-0.05661,0.03433225,0.0355,-0.0735,0.1035,0.00567625,-0.008850001,-0.02854925,1741898295.0166678
0.003375,0.123875,0.050125,-0.029266251,-0.0549165,0.03302,0.036,-0.05775,0.101625,0.00131225,-0.0064239996,-0.02949525,1741898295.031332
0.01725,0.1025,0.044125,-0.034866247,-0.05410775,0.033081003,0.013625,-0.0535,0.1015,0.00419625,-0.0065917503,-0.02955625,1741898295.048048
0.0235,0.107875,0.035625,-0.045395,-0.053542998,0.033370998,-0.0015,-0.070125,0.1055,0.00694275,-0.0059510004,-0.023697,1741898295.060695
0.024625,0.1285,0.028875,-0.047607496,-0.05233775,0.031479,0.003625,-0.097875,0.096625,0.005844,-0.0049895,-0.01968375,1741898295.0753212
0.018,0.136125,0.03625,-0.04618825,-0.05024725,0.029296748,0.01175,-0.11125,0.09825,0.004013,-0.0048979996,-0.013412501,1741898295.090013
0.007375,0.150625,0.04625,-0.034973253,-0.04290775,0.0259095,0.019,-0.127875,0.119,0.002121,-0.0042725,-0.011383001,1741898295.104655
-0.02,0.18525,0.0545,-0.02879325,-0.03837575,0.02389525,0.020125,-0.1255,0.123625,-0.00372325,-0.00086975005,-0.00823975,1741898295.1194189
-0.029625,0.1875,0.056125,-0.0210725,-0.029373249,0.020049999,0.022125,-0.0975,0.112875,-0.0055237496,0.00067150005,-0.00715625,1741898295.134101
-0.029,0.169375,0.068375,-0.019104,-0.024780251,0.018402,0.022625,-0.084125,0.1065,-0.0025940002,0.00148,-0.005066,1741898295.1487901
-0.0265,0.164375,0.077375,-0.017395,-0.016113251,0.014038,0.01725,-0.082,0.10025,0.00067150005,0.0014037499,-0.0030975002,1741898295.168205
-0.019875,0.18025,0.079125,-0.01649475,-0.01156625,0.01091,0.014375,-0.08925,0.0995,0.003891,0.0013580001,0.0025634998,1741898295.177639
-0.015625,0.188875,0.072375,-0.010666001,-0.0022125002,0.0042572496,0.014,-0.09875,0.102125,0.00343325,0.00143425,0.0051574996,1741898295.1921659
-0.016125,0.1995,0.05675,-0.00593575,0.0021515,0.0012207499,0.014375,-0.096375,0.103,0.00242625,0.001648,0.00712575,1741898295.207989
-0.020125,0.198,0.054375,-0.00086975005,0.00637825,-0.0019225,0.013625,-0.090625,0.1045,0.00080875,0.00270075,0.010101249,1741898295.22112
-0.0225,0.19075,0.055625,0.00897225,0.01519775,-0.0089875,0.011875,-0.077625,0.11225,0.00105275,0.0036162501,0.011886501,1741898295.2356648
-0.015875,0.168,0.057625,0.013122501,0.019775499,-0.012252751,0.014125,-0.0725,0.115875,0.003952,0.00564575,0.015228249,1741898295.250141
-0.01025,0.159625,0.056875,0.0196075,0.0282135,-0.0166015,0.021375,-0.0705,0.11575,0.0059510004,0.0061950004,0.016327,1741898295.267296
-0.00275,0.1525,0.05225,0.02227775,0.0321045,-0.01800525,0.025125,-0.0735,0.112,0.00723275,0.00640875,0.017700251,1741898295.279188
0.0005,0.151125,0.04675,0.02702325,0.039184503,-0.0202485,0.032125,-0.0815,0.103,0.0055085,0.00640875,0.0178375,1741898295.293737
0.00375,0.14625,0.041,0.028594999,0.042251498,-0.0214385,0.033,-0.08275,0.0995,0.0002135,0.0067902496,0.017547501,1741898295.308131
0.003125,0.140375,0.04325,0.029220501,0.0452575,-0.022918751,0.030625,-0.078375,0.09575,-0.002243,0.0072175004,0.017730748,1741898295.327169
0.004,0.13275,0.04325,0.02970875,0.050644003,-0.02622975,0.028,-0.075375,0.09725,-0.0044555003,0.0076905,0.01826475,1741898295.337311
0.014625,0.125125,0.03,0.03053275,0.05258175,-0.027282748,0.022,-0.070875,0.1025,-0.0072785,0.008712751,0.0200805,1741898295.3518379
0.020375,0.12675,0.022625,0.0316315,0.0552215,-0.02977,0.021125,-0.067,0.104125,-0.00817875,0.009216251,0.02079775,1741898295.367048
0.030625,0.11475,0.006875,0.0312195,0.054947,-0.030746501,0.023,-0.0635,0.1065,-0.010498,0.010589501,0.020523,1741898295.380815
0.03675,0.105625,0.00275,0.02905275,0.050063998,-0.028686501,0.030625,-0.0565,0.10675,-0.011398249,0.011550999,0.0202485,1741898295.395343
0.048625,0.08925,-0.00325,0.027862499,0.046554502,-0.0265045,0.037375,-0.04775,0.100375,-0.013031,0.01310725,0.018982,1741898295.409824
0.052875,0.08275,-0.009125,0.025115998,0.03878775,-0.02230825,0.047875,-0.02575,0.087125,-0.013275251,0.01301575,0.0174865,1741898295.427222
0.060375,0.0725,-0.02275,0.022643998,0.03453075,-0.020049999,0.049875,-0.017875,0.084375,-0.010803251,0.01104725,0.0136565,1741898295.4388502
0.0625,0.0685,-0.027625,0.019317752,0.02996825,-0.0175935,0.048875,-0.008625,0.087625,-0.008514499,0.009521499,0.0119934995,1741898295.453429
0.064125,0.065,-0.030625,0.012191749,0.0204315,-0.012542751,0.0485,-0.005875,0.09025,-0.0043944996,0.0064850003,0.008636501,1741898295.467958
0.067125,0.056125,-0.03275,0.009140001,0.015579251,-0.010024999,0.052125,-0.001875,0.088375,-0.00328075,0.00505075,0.0065612504,1741898295.486998
0.06875,0.051875,-0.0335,0.0043182503,0.00541675,-0.0047150003,0.055125,0.001625,0.084375,-0.0025940002,0.0034790002,0.0041810004,1741898295.4969401
0.073375,0.04475,-0.032625,0.0028535,9.15e-05,-0.00193775,0.056375,0.00625,0.08025,-0.0008545,-0.00065625,-0.00125125,1741898295.511592
0.076,0.042625,-0.03025,0.0002135,-0.010024999,0.00408925,0.053625,0.00225,0.081125,0.00054925,-0.00305175,-0.00396725,1741898295.5272121
0.0765,0.040875,-0.024,-0.0013427499,-0.014297499,0.0073395,0.049375,-0.0045,0.083375,0.0037995,-0.0075225,-0.008209251,1741898295.540832
0.07525,0.0395,-0.020625,-0.00276175,-0.018158002,0.01054375,0.04275,-0.01775,0.09,0.00520325,-0.0091095,-0.009948749,1741898295.5554292
0.072,0.037625,-0.0125,-0.00567625,-0.0252075,0.016845752,0.041,-0.0235,0.094625,0.00723275,-0.01077275,-0.013046251,1741898295.570028
0.0665,0.04325,-0.007125,-0.0078125,-0.028411752,0.020172002,0.038,-0.02875,0.104625,0.008788999,-0.0112305,-0.0142365,1741898295.5899441
0.057,0.055625,-0.00125,-0.01257325,-0.0335235,0.026474,0.035875,-0.033125,0.10675,0.01216125,-0.011810251,-0.01658625,1741898295.599335
0.03425,0.087375,0.0095,-0.01460275,-0.03518675,0.02886975,0.034125,-0.045,0.10175,0.013183501,-0.012054499,-0.017578252,1741898295.613937
0.02675,0.095625,0.011625,-0.01914975,-0.0377655,0.031952,0.036375,-0.0505,0.0985,0.01368725,-0.012802,-0.019317752,1741898295.63148
0.02375,0.089625,0.012625,-0.02200325,-0.039199747,0.0332185,0.042375,-0.045,0.0995,0.014206001,-0.013183501,-0.020202748,1741898295.6465752
0.02325,0.09,0.013375,-0.028,-0.04125975,0.0355835,0.04425,-0.037375,0.103,0.01431275,-0.01345825,-0.024887,1741898295.657821
0.015875,0.11,0.012625,-0.03044125,-0.0417785,0.03598025,0.034875,-0.052625,0.112875,0.012557999,-0.0129395,-0.0278015,1741898295.6723251
0.01,0.126625,0.013625,-0.031188998,-0.041992247,0.0355835,0.030375,-0.0675,0.10975,0.00643925,-0.010666001,-0.03050225,1741898295.687258
0.003,0.143875,0.015,-0.0258025,-0.040573,0.0321045,0.030625,-0.09,0.07775,0.002777,-0.0103455,-0.03019725,1741898295.70199
-0.015,0.175,0.020625,-0.02088925,-0.039093,0.02943425,0.024625,-0.08525,0.06875,-0.00057975,-0.011184749,-0.028716998,1741898295.71621
-0.021375,0.18025,0.025375,-0.012267999,-0.03489675,0.024261499,0.01125,-0.076,0.07525,-0.00115975,-0.012771499,-0.023834249,1741898295.730944
-0.024875,0.170625,0.038875,-0.00991825,-0.03274525,0.02247625,-0.008625,-0.099625,0.104875,0.0012970001,-0.012176501,-0.0204925,1741898295.747527
-0.02275,0.16575,0.0455,-0.00941475,-0.02949525,0.01905825,-0.007625,-0.114375,0.114625,0.0021819999,-0.009079001,-0.01361075,1741898295.760465
-0.019,0.174625,0.05825,-0.009796251,-0.02810675,0.01675425,0.0,-0.121,0.125,0.0014037499,-0.0072785,-0.01121525,1741898295.779003
-0.02,0.180625,0.06575,-0.008148249,-0.0237275,0.01083375,0.002625,-0.120125,0.125625,0.00093075,-0.003769,-0.00791925,1741898295.790727
-0.02275,0.178125,0.078125,-0.006073,-0.020599252,0.00794975,0.0065,-0.1195,0.116375,0.001236,-0.002411,-0.006012,1741898295.807274
-0.02425,0.173,0.0845,-0.0039215,-0.01728825,0.0054932497,0.004875,-0.1205,0.112125,0.00137325,-0.00061025,-0.00067150005,1741898295.818951
-0.026375,0.16725,0.09,-0.00109875,-0.0099945,0.0016785001,0.001375,-0.117,0.112625,0.00061025,0.0005035,0.0025025,1741898295.833379
-0.02925,0.15875,0.091625,-0.0003815,-0.0057677496,-0.000122000005,0.00275,-0.111375,0.114625,-0.00119025,0.0030975002,0.008148249,1741898295.847936
-0.028125,0.155875,0.08525,-0.00010675,0.0024414998,-0.0043182503,0.006875,-0.092375,0.116,-0.001587,0.00416575,0.010253999,1741898295.866313
-0.022625,0.14825,0.07025,-7.625e-05,0.005783,-0.006302,0.0085,-0.0805,0.11575,6.1000002e-05,0.0055847503,0.01330575,1741898295.87698
-0.022125,0.146,0.069125,0.00071725,0.01193225,-0.009277251,0.01225,-0.066625,0.1135,0.0020752498,0.0059967497,0.01469425,1741898295.891505
-0.022375,0.141875,0.069,0.00102225,0.0153502505,-0.010742251,0.01475,-0.0665,0.111375,0.0040587503,0.0063477503,0.016098,1741898295.907871
-0.020375,0.139625,0.067875,0.00125125,0.022521999,-0.013443,0.01775,-0.068875,0.10975,0.0058135,0.00708,0.018280001,1741898295.920247
-0.01575,0.1375,0.060875,0.0012055,0.025665252,-0.014618,0.0245,-0.073625,0.102625,0.0051269997,0.0076295,0.018615749,1741898295.93467
-0.01425,0.13975,0.05325,0.0011445,0.028244,-0.0157165,0.025625,-0.076125,0.098625,0.0020295,0.008545,0.0178375,1741898295.9491148
-0.0135,0.14425,0.04525,0.00177,0.03173825,-0.01829525,0.02025,-0.0815,0.095,0.0,0.0090485,0.0175935,1741898295.966927
-0.012125,0.1545,0.02875,0.00325,0.033081003,-0.020279,0.02075,-0.081,0.0945,-0.0058899997,0.010528499,0.01799,1741898295.978261
-0.00975,0.153875,0.0245,0.0090637505,0.036209,-0.024993999,0.024125,-0.078125,0.09675,-0.008499251,0.01115425,0.01832575,1741898295.992778
-0.003125,0.137875,0.022,0.012375,0.0381775,-0.02677925,0.023875,-0.074875,0.096375,-0.011078,0.011764499,0.018920999,1741898296.0072682
0.000625,0.131125,0.020125,0.017395,0.04141225,-0.02790825,0.02275,-0.074375,0.0935,-0.01171875,0.011749251,0.019134501,1741898296.021764
0.00775,0.130875,0.011125,0.018920999,0.041961752,-0.0280305,0.025125,-0.07225,0.09275,-0.011901749,0.011856,0.020172002,1741898296.036253
0.012875,0.129375,0.006125,0.01991275,0.04176325,-0.02838125,0.034875,-0.055625,0.095,-0.0116425,0.0119630005,0.01994325,1741898296.050804
0.01875,0.124875,0.00225,0.020477248,0.039917,-0.02934275,0.037,-0.047125,0.097625,-0.011321999,0.01206975,0.019165002,1741898296.0696461
0.031625,0.107375,-0.0045,0.020141501,0.03857425,-0.029601999,0.040875,-0.03675,0.096,-0.0112,0.012146,0.01652525,1741898296.0797231
0.03875,0.096875,-0.00725,0.018585252,0.03479,-0.0286255,0.048,-0.023625,0.085875,-0.010818499,0.0114135,0.0148772495,1741898296.094232
0.051625,0.083375,-0.015625,0.01728825,0.03237925,-0.02760325,0.047875,-0.021,0.083,-0.008727999,0.0087585,0.0118407495,1741898296.111487
0.057,0.0775,-0.021375,0.0141755,0.026428249,-0.024841249,0.049125,-0.011625,0.081375,-0.0077972496,0.00738525,0.010314999,1741898296.126146
0.064,0.066875,-0.027375,0.012542751,0.023040751,-0.022873,0.052625,-0.00575,0.081125,-0.0061035,0.00434875,0.0062407497,1741898296.13776
0.06575,0.062625,-0.027375,0.0094604995,0.016327,-0.01811225,0.0585,-0.00025,0.079625,-0.0050965,0.0023039998,0.0037385002,1741898296.152247
0.068875,0.05175,-0.023125,0.008209251,0.013198749,-0.01554875,0.05775,-0.0005,0.0795,-0.0025787498,-0.00283825,-0.0012665,1741898296.167425
0.071,0.046625,-0.021125,0.0072937496,0.010086001,-0.0128175,0.051375,-0.003875,0.083,-0.001007,-0.00538625,-0.003662,1741898296.181634
0.074125,0.042375,-0.020375,0.0060425,0.0038605002,-0.0068512503,0.047625,-0.009375,0.08475,0.002533,-0.0095672505,-0.0080567505,1741898296.196295
0.080125,0.0355,-0.019375,0.004837,0.00045775,-0.0035704998,0.042875,-0.022125,0.08825,0.0043944996,-0.0112915,-0.009872501,1741898296.210937
0.080625,0.034125,-0.01725,0.0005645,-0.007019,0.0039215,0.03975,-0.027875,0.095625,0.0063325,-0.01272575,-0.0113525,1741898296.227184
0.076375,0.0385,-0.0105,-0.00169375,-0.01071175,0.00811775,0.0375,-0.038375,0.102875,0.008590749,-0.013992251,-0.013626001,1741898296.24034
0.073625,0.041875,-0.00725,-0.0048979996,-0.01747125,0.016235251,0.037375,-0.04275,0.104375,0.008865249,-0.014267,-0.014557,1741898296.2549021
0.0705,0.0485,-0.006,-0.00614925,-0.020446751,0.019989,0.0365,-0.045375,0.106,0.011535751,-0.0148925,-0.016037,1741898296.269599
0.0665,0.05675,-0.0055,-0.0076599997,-0.02313225,0.02360525,0.0335,-0.05325,0.10525,0.01408375,-0.015335,-0.01664725,1741898296.2874298
0.044125,0.088625,0.001375,-0.011260999,-0.02796925,0.0293885,0.03375,-0.056375,0.103625,0.01779175,-0.01605225,-0.0178985,1741898296.298868
0.028375,0.109125,0.006625,-0.012924249,-0.02993775,0.03105175,0.03425,-0.06,0.1055,0.018463248,-0.0160065,-0.01852425,1741898296.313623
0.01575,0.123,0.010625,-0.01631175,-0.0325775,0.03149425,0.036125,-0.05725,0.105375,0.017929,-0.0153807495,-0.0204315,1741898296.328305
0.010375,0.117,0.01275,-0.01826475,-0.03385925,0.03108225,0.033875,-0.056625,0.099,0.01661675,-0.0154115,-0.0219575,1741898296.3468668
0.013375,0.10975,0.011,-0.02357475,-0.037796002,0.0309295,0.025875,-0.06075,0.09775,0.015518251,-0.01548775,-0.0237275,1741898296.357555
0.012875,0.11825,0.0015,-0.026886,-0.040222254,0.03082275,0.010625,-0.076,0.091375,0.016098,-0.015625,-0.02330025,1741898296.372106
0.01025,0.129,-0.000625,-0.03097525,-0.0429535,0.02848825,0.005,-0.08775,0.091125,0.016037,-0.0162505,-0.02034,1741898296.3868139
0.002,0.1515,0.006875,-0.02996825,-0.042297248,0.026275748,-0.00125,-0.108625,0.09525,0.014510999,-0.0158385,-0.01832575,1741898296.40148
-0.00125,0.1595,0.01075,-0.02699275,-0.040328998,0.0236665,-0.002,-0.116375,0.095875,0.0085602505,-0.013031,-0.01419075,1741898296.4161532
-0.00275,0.167625,0.01175,-0.019042999,-0.03562925,0.01890575,0.002125,-0.12475,0.088875,0.005066,-0.0113525,-0.012115501,1741898296.430845
-0.002,0.17325,0.010375,-0.016540501,-0.03433225,0.016983,0.004125,-0.122875,0.086375,1.5250001e-05,-0.009323,-0.00862125,1741898296.447403
-0.003,0.172375,0.014,-0.014297499,-0.033691503,0.01469425,-0.004625,-0.11775,0.098625,-0.00057975,-0.008788999,-0.00688175,1741898296.46033
-0.0115,0.169125,0.041625,-0.013290499,-0.0329285,0.01380925,-0.0125,-0.119,0.10725,-0.00030525,-0.008148249,-0.0047302498,1741898296.475162
-0.016125,0.166125,0.055875,-0.010299751,-0.027954001,0.0110625,-0.0245,-0.11925,0.11925,-0.0002135,-0.0055237496,0.00086975005,1741898296.4898639
-0.01775,0.15975,0.067,-0.00830075,-0.0243225,0.00935375,-0.025375,-0.116125,0.119875,-0.00064075,-0.0034790002,0.0039825,1741898296.5074382
-0.0165,0.157875,0.065625,-0.00393675,-0.0167695,0.00579825,-0.022125,-0.110375,0.115625,-0.000229,0.000229,0.01020825,1741898296.519344
-0.020625,0.15925,0.0635,-0.0019685,-0.01324475,0.0037385002,-0.014875,-0.095875,0.11525,0.0008545,0.0015105,0.01301575,1741898296.533854
-0.0245,0.1575,0.063,-0.00035100002,-0.009781,0.0013275,-0.009125,-0.091875,0.121,0.002411,0.004776,0.01664725,1741898296.549
-0.0265,0.153375,0.06275,0.00239575,-0.002884,-0.0033875,0.00425,-0.095375,0.126125,0.001648,0.0068207504,0.017455999,1741898296.562887
-0.02425,0.145875,0.059,0.00331125,0.000473,-0.0053252503,0.00825,-0.09675,0.122375,-0.0044707498,0.01127625,0.017425502,1741898296.577471
-0.021875,0.14475,0.0535,0.0044250004,0.006546,-0.00801075,0.006125,-0.10125,0.110375,-0.0091705,0.013336251,0.0174865,1741898296.592021
-0.017,0.14075,0.048125,0.0050355,0.0093385,-0.009079001,0.004,-0.097875,0.1065,-0.0178985,0.017501751,0.01908875,1741898296.611506
-0.016125,0.1385,0.049375,0.0065155,0.014938249,-0.01165775,0.0035,-0.079,0.111,-0.0208435,0.01965325,0.01950075,1741898296.6209862
-0.013625,0.139875,0.048375,0.0077210004,0.01779175,-0.013061499,0.003375,-0.072375,0.118625,-0.02417,0.02513125,0.01882925,1741898296.635563
-0.010875,0.1435,0.043,0.009674,0.02056875,-0.014495751,0.01175,-0.0695,0.12075,-0.02474975,0.02804575,0.01879875,1741898296.650051
-0.00425,0.142875,0.033625,0.0148315,0.025406,-0.01734925,0.02025,-0.067625,0.1115,-0.02487175,0.0300445,0.019165002,1741898296.667728
-0.001875,0.1405,0.03375,0.016861,0.02763375,-0.018432502,0.033875,-0.06075,0.0885,-0.02417,0.03005975,0.01979075,1741898296.679035
-0.00025,0.138625,0.03725,0.01867675,0.0326385,-0.020034749,0.035625,-0.05675,0.080625,-0.02326975,0.02893075,0.01979075,1741898296.6986392
0.002625,0.13725,0.048,0.019104,0.035553,-0.02076725,0.035625,-0.051875,0.07525,-0.0208435,0.02658075,0.019348249,1741898296.708129
0.00675,0.13075,0.043625,0.0205535,0.041183498,-0.02224725,0.038875,-0.03475,0.0715,-0.01982125,0.025360001,0.0186615,1741898296.7277892
0.0235,0.112375,0.027375,0.021225,0.04234325,-0.021576,0.044,-0.023,0.070875,-0.01716625,0.022491502,0.0156555,1741898296.737217
0.0265,0.12275,0.025375,0.02101125,0.041808996,-0.0223235,0.054,-0.007625,0.0655,-0.015090999,0.02029425,0.01367175,1741898296.751741
0.029,0.138,0.015,0.02186575,0.041702252,-0.02439875,0.056375,-0.0035,0.063875,-0.009948749,0.01326,0.0097045,1741898296.767394
0.03325,0.132375,0.00725,0.024002,0.041687,-0.02613825,0.057,0.000125,0.06475,-0.0076599997,0.009430001,0.0075682504,1741898296.780659
0.04,0.116625,0.00075,0.0263825,0.039367747,-0.0253295,0.05825,0.002,0.065,-0.004242,0.0030669998,0.00267025,1741898296.795153
0.049125,0.0905,-0.001,0.02516175,0.036987253,-0.022812,0.06275,0.002375,0.06475,-0.0026245,-0.000122000005,7.625e-05,1741898296.809686
0.05025,0.085375,-0.00175,0.019714251,0.03094475,-0.018219,0.06225,0.000625,0.071,-0.001236,-0.0034790002,-0.002472,1741898296.827353
0.051625,0.079375,-0.009625,0.0164795,0.02749625,-0.01637275,0.053375,-0.004125,0.09725,6.1000002e-05,-0.00842275,-0.0071409997,1741898296.838899
0.0535,0.07725,-0.013875,0.010788,0.020446751,-0.012542751,0.050125,-0.008,0.107,0.0004425,-0.00918575,-0.009155249,1741898296.853566
0.058375,0.0725,-0.018375,0.008636501,0.017028749,-0.010589501,0.049,-0.01225,0.1115,0.00163275,-0.0091095,-0.0128175,1741898296.868201
0.060375,0.069875,-0.019,0.0067445002,0.013549751,-0.00868225,0.0495,-0.020125,0.113375,0.0025787498,-0.0090485,-0.01440425,1741898296.8873641
0.061625,0.067625,-0.01975,0.00334175,0.0062712496,-0.0048217503,0.05025,-0.025,0.11325,0.0045777503,-0.008926501,-0.01705925,1741898296.897578
0.064375,0.064125,-0.022375,0.0020752498,0.00245675,-0.0028229998,0.049,-0.033375,0.113125,0.00543225,-0.009079001,-0.01835625,1741898296.912135
0.066125,0.06275,-0.021875,-7.625e-05,-0.0056609996,0.0013427499,0.046,-0.039625,0.115375,0.006775,-0.009140001,-0.0204925,1741898296.9274418
0.065125,0.064,-0.0145,-0.0013275,-0.009674,0.0036162501,0.048375,-0.033625,0.1125,0.0070342496,-0.0088805,-0.021225,1741898296.941321
0.06275,0.065875,-0.009,-0.00308225,-0.01693725,0.008316,0.052375,-0.0305,0.11025,0.0048065,-0.009094249,-0.0254365,1741898296.9559848
0.056375,0.072625,0.002375,-0.00393675,-0.02012625,0.0105742505,0.0275,-0.065875,0.10375,0.0031889998,-0.0100707505,-0.026947001,1741898296.970619
0.0535,0.0775,0.005375,-0.00671375,-0.025314251,0.014618,0.009375,-0.111875,0.113125,-0.001709,-0.008194,-0.01857,1741898296.9875891
0.050125,0.08975,0.003625,-0.0088805,-0.02749625,0.016327,0.0415,-0.08675,0.105625,-0.007782,-0.0039825,-0.01560975,1741898297.000142
0.04875,0.095,0.002125,-0.01142875,-0.02958675,0.0177155,0.044125,-0.0595,0.09375,-0.01652525,-0.0022735,-0.021636998,1741898297.014849
0.046625,0.098375,0.002625,-0.016143749,-0.034011748,0.019897498,0.01175,-0.038125,0.10075,-0.01570125,-0.0025634998,-0.021881001,1741898297.029631
0.0375,0.104,0.01275,-0.017455999,-0.035888746,0.0206145,0.01025,-0.04975,0.108,-0.00637825,-0.00054925,-0.015747,1741898297.048939
0.0305,0.108375,0.018125,-0.0183715,-0.0382995,0.021164,0.024625,-0.091,0.111875,-0.00184625,-0.00057975,-0.011764499,1741898297.059125
0.017,0.119125,0.027625,-0.01890575,-0.039276,0.021225,0.028375,-0.104625,0.114,0.00010675,-0.0012970001,-0.0085602505,1741898297.073846
0.011125,0.125375,0.034625,-0.0194855,-0.0392915,0.02076725,0.030125,-0.106875,0.125875,-0.00334175,-0.00019825,-0.0059205,1741898297.091659
0.008125,0.13125,0.043125,-0.019042999,-0.03775025,0.02000425,0.03375,-0.0995,0.126625,-0.006546,0.0021972498,-0.0053709997,1741898297.1060522
0.011375,0.131625,0.0415,-0.018448,-0.033691503,0.017700251,0.037875,-0.090125,0.120875,-0.009643501,0.00546275,-0.00279225,1741898297.11781
0.015,0.138,0.03225,-0.019042999,-0.03253175,0.0166015,0.039375,-0.07375,0.108875,-0.008514499,0.0048674997,-0.0008545,1741898297.132333
0.011625,0.144375,0.032,-0.019638,-0.03193675,0.01560975,0.037625,-0.07225,0.108,-0.0025940002,0.00242625,0.00317375,1741898297.1476889
0.00525,0.15075,0.037125,-0.018631,-0.03031925,0.013839751,0.031375,-0.081,0.11175,0.00045775,0.0017852499,0.005249,1741898297.1613472
-0.0075,0.160875,0.047875,-0.016723748,-0.02832025,0.012619001,0.028125,-0.08525,0.1125,0.0043944996,0.001648,0.009781,1741898297.175832
-0.010625,0.1635,0.049875,-0.011016751,-0.0226745,0.00889575,0.02525,-0.08575,0.112875,0.0057677496,0.0017395001,0.012420749,1741898297.190329
-0.013,0.16275,0.05325,-0.008377,-0.01968375,0.0067902496,0.025,-0.082125,0.114375,0.0097045,0.00231925,0.0177155,1741898297.2074308
-0.014125,0.161125,0.0595,-0.0038605002,-0.0133667495,0.0032195,0.0285,-0.075875,0.118125,0.012176501,0.00279225,0.020111,1741898297.219187
-0.017125,0.16175,0.072625,-0.00190725,-0.009781,0.00131225,0.032,-0.075,0.117875,0.014343251,0.00340275,0.02224725,1741898297.23363
-0.017,0.161125,0.073,0.00080875,-0.00216675,-0.00325,0.037375,-0.072625,0.111625,0.015915,0.004547,0.0257415,1741898297.2481
-0.014375,0.1575,0.062,0.00131225,0.001236,-0.00541675,0.03825,-0.07225,0.10975,0.0149535,0.00511175,0.02708425,1741898297.2687628
-0.013875,0.1555,0.060375,0.00157175,0.0043639997,-0.0073547503,0.039375,-0.07425,0.108625,0.010086001,0.00643925,0.029068,1741898297.277157
-0.014,0.155,0.063125,0.0041044997,0.011306751,-0.011383001,0.042875,-0.06825,0.104125,0.0068207504,0.007019,0.02946475,1741898297.291648
-0.0115,0.15875,0.065875,0.00672925,0.015304499,-0.0137635,0.042625,-0.06,0.10075,0.0007325,0.00811775,0.02882375,1741898297.307316
-0.00825,0.156625,0.067625,0.01322925,0.02401725,-0.01794425,0.0415,-0.04175,0.095875,-0.0019989999,0.0088195,0.028366,1741898297.3207529
-0.00175,0.146125,0.06175,0.0160675,0.0280915,-0.019455,0.0425,-0.031375,0.096625,-0.0063477503,0.010253999,0.027099501,1741898297.335237
-0.000375,0.14225,0.059375,0.01882925,0.03363025,-0.02165225,0.04475,-0.00975,0.10075,-0.0075835,0.0106965,0.0258025,1741898297.3497322
0.003375,0.13975,0.05675,0.018920999,0.03607175,-0.022583,0.044125,-0.003,0.101875,-0.0075835,0.010742251,0.02162175,1741898297.366524
0.00825,0.141,0.051,0.0208435,0.040039003,-0.024810748,0.041375,-0.00225,0.102875,-0.0065917503,0.0104065,0.019226,1741898297.380071
0.02175,0.134625,0.03425,0.0229645,0.0414275,-0.02601625,0.04125,-0.00725,0.09975,-0.00520325,0.009872501,0.01716625,1741898297.39392
0.026875,0.126375,0.02675,0.024932751,0.04234325,-0.02696225,0.047125,0.00075,0.089875,-0.0032195,0.0076599997,0.0136565,1741898297.4077199
0.0305,0.116875,0.019875,0.026397752,0.042328,-0.02763375,0.05075,0.014375,0.087375,-0.00308225,0.0061645,0.011123749,1741898297.427486
0.039375,0.101,0.006375,0.0264435,0.04116825,-0.0272065,0.05425,0.029375,0.08625,-0.00225825,0.00302125,0.0042725,1741898297.4366531
0.044375,0.095125,0.00125,0.02572625,0.036422748,-0.024765,0.0565,0.041625,0.0825,-0.00086975005,0.00108325,0.00035100002,1741898297.451107
0.05175,0.088625,-0.00525,0.0245515,0.03359975,-0.023346001,0.054625,0.036125,0.081,0.002533,-0.0034790002,-0.0067902496,1741898297.466926
0.05425,0.084,-0.007875,0.020904498,0.02845775,-0.0206605,0.04975,0.012875,0.08225,0.003769,-0.0056304997,-0.009658749,1741898297.480235
0.059375,0.070375,-0.01275,0.018631,0.025940001,-0.019226,0.049125,0.005,0.0855,0.0034637498,-0.0084379995,-0.01460275,1741898297.494758
0.063125,0.06225,-0.01375,0.01646425,0.023071252,-0.01747125,0.0485,-0.0015,0.099375,0.00238025,-0.008850001,-0.01708975,1741898297.5093398
0.066625,0.0565,-0.014125,0.012634249,0.01634225,-0.01260375,0.046125,-0.007125,0.104625,0.00057975,-0.00811775,-0.021606501,1741898297.523981
0.07075,0.052,-0.014875,0.010788,0.01295475,-0.009887749,0.040875,-0.0225,0.102,-0.00057975,-0.0075377496,-0.0233155,1741898297.538667
0.072,0.050875,-0.014875,0.0074004997,0.006363,-0.0046845004,0.038625,-0.027,0.098375,-0.0017395001,-0.00737,-0.02619925,1741898297.553379
0.075,0.04725,-0.012375,0.0054475004,0.0030365,-0.00228875,0.043,-0.032375,0.09125,-0.0016785001,-0.0078735,-0.027679501,1741898297.5711281
0.075875,0.045875,-0.009375,0.0003205,-0.0038605002,0.0025940002,0.04875,-0.037,0.088125,-0.0020905002,-0.00874325,-0.029251,1741898297.582842
0.073375,0.050875,-0.000375,-0.0020752498,-0.00712575,0.00546275,0.045625,-0.04925,0.0945,-0.004074,-0.010894749,-0.0314025,1741898297.597533
0.06975,0.056125,0.004875,-0.0051574996,-0.012802,0.011016751,0.037625,-0.055,0.097,-0.00444025,-0.011627249,-0.031540003,1741898297.612145
0.061375,0.06775,0.016375,-0.00614925,-0.015274,0.013275251,0.030375,-0.06075,0.097875,-0.0049590003,-0.0129700005,-0.030548,1741898297.62743
0.057875,0.074875,0.02025,-0.0070495,-0.017455999,0.015167249,0.0285,-0.073875,0.104375,-0.005539,-0.01324475,-0.029220501,1741898297.641637
0.0555,0.081125,0.021625,-0.00975025,-0.021286,0.018280001,0.03425,-0.078625,0.104875,-0.00715625,-0.01239025,-0.025970502,1741898297.6563761
0.055625,0.08625,0.018375,-0.012146,-0.0230865,0.0197295,0.03425,-0.0855,0.1115,-0.007965,-0.0123595,-0.024383498,1741898297.671135
0.05675,0.0855,0.0155,-0.018280001,-0.027160749,0.022461,0.0285,-0.0915,0.123,-0.0075682504,-0.010757499,-0.020324752,1741898297.6873631
0.053,0.086875,0.014625,-0.021225,-0.02943425,0.0239105,0.023875,-0.10925,0.13475,-0.00672925,-0.008941749,-0.0170745,1741898297.700682
0.0465,0.0945,0.014875,-0.025695749,-0.033325247,0.02645875,0.028375,-0.1105,0.13425,-0.005539,-0.0060425,-0.01004025,1741898297.7153401
0.03225,0.1165,0.015125,-0.02595525,-0.0345765,0.026855499,0.037625,-0.10575,0.138625,-0.0037995,-0.0052337497,-0.0072175004,1741898297.7300181
0.026625,0.1225,0.01825,-0.024643,-0.035324,0.0264435,0.03675,-0.1055,0.140625,0.0020905002,-0.0038299998,-0.001953,1741898297.747377
0.0215,0.124375,0.0235,-0.020049999,-0.0351105,0.02433775,0.022875,-0.105125,0.136375,0.0049895,-0.00279225,0.00108325,1741898297.759261
0.012875,0.124375,0.03575,-0.0182495,-0.034118753,0.0234375,0.015375,-0.104,0.133125,0.008590749,0.000412,0.008545,1741898297.7737842
0.008375,0.1285,0.040125,-0.018310498,-0.0315095,0.02250675,0.01225,-0.090875,0.1315,0.009734999,0.0021057501,0.012313751,1741898297.788148
0.00125,0.141125,0.040625,-0.020523,-0.03034975,0.02180475,0.0145,-0.082,0.13475,0.01316825,0.0049742498,0.017974751,1741898297.806636
-0.001625,0.148375,0.03825,-0.026657,-0.0290375,0.01905825,0.022125,-0.076125,0.137,0.01504525,0.00643925,0.01979075,1741898297.817152
-0.005,0.16,0.03975,-0.028244,-0.02822875,0.0172425,0.026375,-0.076375,0.133625,0.01622,0.00785825,0.0212555,1741898297.831608
-0.005625,0.16575,0.043375,-0.02449025,-0.02401725,0.01310725,0.031125,-0.07575,0.12675,0.015029999,0.010314999,0.02351375,1741898297.847328
-0.00425,0.173125,0.04225,-0.019775499,-0.020782499,0.0106355,0.038125,-0.074875,0.112125,0.01272575,0.011123749,0.02424625,1741898297.8605509
-0.0035,0.174,0.039625,-0.014221249,-0.017578252,0.008316,0.0375,-0.073625,0.105625,0.00614925,0.01251225,0.02519225,1741898297.874985
-0.006,0.175,0.040875,-0.00564575,-0.01216125,0.0042115003,0.0325,-0.060375,0.1,0.00292975,0.01326,0.025512751,1741898297.889475
-0.015125,0.174875,0.050625,-0.0037537501,-0.0091095,0.001709,0.031375,-0.051875,0.102875,-0.0010375,0.0150605,0.025589,1741898297.908309
-0.01775,0.17625,0.057,-0.00067150005,-0.0016785001,-0.004547,0.0325,-0.038375,0.1065,-0.001526,0.0158845,0.025115998,1741898297.918495
-0.014,0.172125,0.0665,0.0020752498,0.002365,-0.0079345,0.03225,-0.035375,0.104625,-0.001007,0.016693002,0.022949249,1741898297.9330041
-0.009125,0.166,0.064625,0.0102845,0.0105742505,-0.01361075,0.033875,-0.037375,0.09175,-0.0012970001,0.01652525,0.021560749,1741898297.9474611
0.00175,0.151125,0.048,0.014145001,0.013931249,-0.015533499,0.035625,-0.038625,0.085625,-0.00193775,0.015747,0.020446751,1741898297.962775
0.004,0.14575,0.04475,0.017547501,0.018463248,-0.0180665,0.03875,-0.03225,0.082,-0.0033875,0.01361075,0.01864625,1741898297.976487
0.005125,0.1355,0.045,0.01741025,0.020477248,-0.01918025,0.04825,-0.007,0.07975,-0.00396725,0.01289375,0.0170135,1741898297.991015
0.004875,0.13275,0.047,0.016876249,0.0227355,-0.019989,0.05325,0.004875,0.078875,-0.003891,0.011260999,0.012146,1741898298.0087528
0.005,0.129375,0.04675,0.01620475,0.027542,-0.021209748,0.05975,0.015875,0.069,-0.0036010002,0.009872501,0.009079001,1741898298.0201468
0.009625,0.126625,0.037,0.01670825,0.029266251,-0.02189625,0.061125,0.018125,0.063125,-0.00175475,0.004593,0.00276175,1741898298.0347672
0.014375,0.1255,0.033625,0.0194855,0.030731251,-0.0249175,0.06175,0.01925,0.055375,-0.0002595,0.001068,-0.00027475,1741898298.050923
0.026875,0.112625,0.02225,0.02050775,0.03164675,-0.026291,0.061875,0.01825,0.0555,0.0025940002,-0.0059510004,-0.0060272496,1741898298.063738
0.03275,0.10875,0.015625,0.019333,0.03167725,-0.027007999,0.05825,0.008375,0.06575,0.00372325,-0.00897225,-0.0088805,1741898298.078248
0.0395,0.1035,0.012625,0.017730748,0.03044125,-0.02696225,0.05375,-0.000875,0.07375,0.00411975,-0.013198749,-0.0142365,1741898298.0929039
0.040625,0.102,0.01225,0.016113251,0.02845775,-0.0265045,0.04225,-0.021875,0.09,0.00317375,-0.014206001,-0.01637275,1741898298.107486
0.042375,0.098625,0.009125,0.01501475,0.023956249,-0.025085501,0.038375,-0.029125,0.0985,0.0020295,-0.01445,-0.0179595,1741898298.127315
0.051375,0.082125,-0.002,0.0153655,0.02153025,-0.024063,0.04,-0.034375,0.10125,0.00051875,-0.013198749,-0.020446751,1741898298.1367822
0.056875,0.074375,-0.005125,0.01412975,0.01531975,-0.020324752,0.04125,-0.03775,0.103125,0.000183,-0.012802,-0.0219115,1741898298.151343
0.066125,0.06375,-0.005625,0.011901749,0.012130749,-0.017730748,0.03825,-0.046125,0.1115,0.0016632499,-0.0122985,-0.023773251,1741898298.1674418
0.07,0.059,-0.004875,0.00631725,0.00631725,-0.0119630005,0.034375,-0.05725,0.12925,0.00292975,-0.01145925,-0.023925751,1741898298.1805902
0.07675,0.047625,-0.000875,0.0036315,0.0037079998,-0.00874325,0.041625,-0.056375,0.1255,0.00036625,-0.008712751,-0.026062,1741898298.195271
0.078625,0.0455,0.002,-0.000122000005,-0.0013580001,-0.00157175,0.055125,-0.07175,0.106875,-0.00381475,-0.0077515002,-0.0273895,1741898298.209962
0.078625,0.043125,0.0085,-0.0009155,-0.0038299998,0.0020295,0.057,-0.082125,0.09825,-0.01245125,-0.0072937496,-0.0275115,1741898298.227427
0.077375,0.042625,0.011,-0.0013580001,-0.0061950004,0.0056915004,0.046625,-0.090125,0.09125,-0.0159455,-0.007904,-0.02604675,1741898298.239342
0.07525,0.044875,0.014375,-0.0023497501,-0.010452249,0.013153,0.033625,-0.08,0.0995,-0.019134501,-0.008026,-0.02079775,1741898298.254082
0.066,0.058875,0.02475,-0.00270075,-0.01216125,0.01652525,0.01825,-0.075,0.11625,-0.017303498,-0.0071105,-0.018219,1741898298.268739
0.05975,0.06725,0.03,-0.00302125,-0.01454175,0.022064252,0.01675,-0.07875,0.121125,-0.011673001,-0.0055085,-0.013443,1741898298.287573
0.046875,0.082875,0.039125,-0.00355525,-0.015442001,0.024261499,0.022375,-0.09125,0.1315,-0.008514499,-0.0048065,-0.01142875,1741898298.29817
0.041625,0.088875,0.04225,-0.00646975,-0.01737975,0.027771,0.0245,-0.101625,0.135875,-0.002365,-0.003296,-0.0065307496,1741898298.3128362
0.0355,0.09475,0.04525,-0.009430001,-0.018448,0.02952575,0.02725,-0.109375,0.1395,-0.00024425,-0.00239575,-0.00354,1741898298.3278341
0.0345,0.096125,0.04375,-0.013503999,-0.019394,0.0313415,0.026625,-0.107125,0.138875,0.00292975,0.00074775,0.00267025,1741898298.3465579
0.03475,0.09725,0.0395,-0.021408001,-0.01940925,0.033508252,0.026,-0.093375,0.12925,0.00413525,0.002655,0.00555425,1741898298.3566139
0.0355,0.095875,0.022625,-0.02409375,-0.0187835,0.033844,0.02625,-0.084875,0.123375,0.0053252503,0.0040435,0.008194,1741898298.371066
0.03375,0.097375,0.013625,-0.029266251,-0.020629998,0.03494275,0.027,-0.078125,0.11875,0.00817875,0.0050965,0.01307675,1741898298.387576
0.022125,0.115625,-0.00175,-0.032043498,-0.022521999,0.03512575,0.030625,-0.067125,0.11625,0.009811499,0.0052337497,0.015289251,1741898298.399937
0.0135,0.127375,-0.011875,-0.03686525,-0.02565,0.033584498,0.0325,-0.0625,0.119,0.013839751,0.00587475,0.01864625,1741898298.4143841
-0.006875,0.1565,-0.017625,-0.03756725,-0.026397752,0.0319825,0.035375,-0.055,0.124125,0.016235251,0.00646975,0.01979075,1741898298.428823
-0.01375,0.166,-0.013875,-0.035614,-0.025665252,0.026840251,0.037125,-0.05375,0.12275,0.01814275,0.00830075,0.02064525,1741898298.4469981
-0.019125,0.172875,-0.0065,-0.033325247,-0.024505502,0.02436825,0.04375,-0.062,0.110125,0.01622,0.009369001,0.02012625,1741898298.457799
-0.01975,0.177625,-0.00125,-0.02633675,-0.021698,0.01968375,0.045375,-0.064625,0.100125,0.008636501,0.01091,0.018890498,1741898298.4721751
-0.022,0.186875,0.00775,-0.021927001,-0.019989,0.016967751,0.042125,-0.061875,0.087,0.0048979996,0.01115425,0.018585252,1741898298.4899142
-0.0265,0.192875,0.0105,-0.013275251,-0.0166625,0.010452249,0.038,-0.063,0.0885,0.0021515,0.011123749,0.01879875,1741898298.501104
-0.028625,0.187625,0.0175,-0.0091095,-0.01454175,0.00665275,0.034375,-0.059875,0.095375,-3.0500001e-05,0.011139,0.02034,1741898298.515726
-0.0245,0.178625,0.02175,-0.00514225,-0.01206975,0.002884,0.0345,-0.05725,0.097,-7.625e-05,0.011123749,0.02067575,1741898298.530252
-0.020125,0.171375,0.0265,0.0010375,-0.0068207504,-0.0038605002,0.033875,-0.056875,0.096125,-0.00013725001,0.010528499,0.0203705,1741898298.5454788
-0.017875,0.16675,0.032375,0.00352475,-0.0041504996,-0.006775,0.040125,-0.044875,0.09025,-0.00064075,0.0099639995,0.01997375,1741898298.559415
-0.020625,0.169,0.03225,0.008377,0.00131225,-0.012267999,0.046125,-0.032,0.087875,-0.00184625,0.00862125,0.017578252,1741898298.574002
-0.025,0.1705,0.0315,0.01071175,0.0042115003,-0.015090999,0.052625,-0.00925,0.0845,-0.0021972498,0.008026,0.015686,1741898298.588492
-0.023125,0.165875,0.03225,0.01548775,0.01042175,-0.020523,0.054125,-0.00075,0.082375,-0.00096125,0.0065307496,0.011169501,1741898298.606733
-0.01375,0.14725,0.039375,0.0178985,0.013733,-0.022766002,0.056,0.006375,0.076875,0.00010675,0.005249,0.008667,1741898298.617429
-0.01175,0.14075,0.04325,0.02238475,0.0203705,-0.02598575,0.058,0.008375,0.07325,0.0019225,0.0012207499,0.00320425,1741898298.631878
-0.01,0.136375,0.041625,0.0241395,0.02333075,-0.027160749,0.064875,0.01325,0.06575,0.0028074998,-0.0015105,0.000122000005,1741898298.648266
-0.006625,0.134,0.038875,0.02534475,0.025848499,-0.027862499,0.065375,0.014125,0.0665,0.003769,-0.0045165,-0.00314325,1741898298.660906
-0.00125,0.13,0.038625,0.02613825,0.029907249,-0.0281525,0.060125,0.0075,0.07275,0.00543225,-0.009674,-0.0097045,1741898298.675412
0.007625,0.12625,0.0485,0.02636725,0.03190625,-0.028137252,0.058,0.002375,0.074625,0.0056915004,-0.0113525,-0.012832751,1741898298.6899998
0.0155,0.10625,0.042375,0.02595525,0.036132753,-0.02769475,0.055125,-0.0035,0.07725,0.0055847503,-0.013626001,-0.0184785,1741898298.70727
0.033625,0.067125,0.021625,0.02371225,0.0353545,-0.02323925,0.044375,-0.017375,0.091,0.00535575,-0.014282251,-0.02088925,1741898298.7193742
0.02975,0.095,0.026625,0.016723748,0.0331115,-0.018463248,0.03825,-0.025875,0.101,0.00399775,-0.0138855,-0.02442925,1741898298.73399
0.022375,0.1365,0.0235,0.0174865,0.03439325,-0.0206605,0.02975,-0.041375,0.111625,0.0036162501,-0.012924249,-0.025406,1741898298.748595
0.027375,0.134,0.01325,0.021453751,0.036239497,-0.0226745,0.030625,-0.047625,0.111875,0.0044250004,-0.0116425,-0.0270385,1741898298.767214
0.036625,0.119125,0.004,0.026474,0.037887502,-0.02230825,0.035125,-0.06225,0.119125,0.0059510004,-0.011627249,-0.027526751,1741898298.777875
