L-AccX,L-AccY,L-AccZ,L-GyrX,L-GyrY,L-GyrZ,R-AccX,R-AccY,R-AccZ,R-GyrX,R-GyrY,R-GyrZ,timestamp
-0.02225,0.01775,0.137875,0.0029755002,-0.0013275,0.00160225,-0.00575,-0.08925,0.0805,0.0020752498,-0.00292975,0.00193775,1741898523.505619
-0.013125,0.01575,0.129625,0.001419,-0.00071725,0.0015105,-0.00425,-0.0895,0.078375,0.0026854998,-0.003769,0.00231925,1741898523.506158
-0.009375,0.017,0.128,-0.0012970001,-0.00045775,0.00105275,-0.00225,-0.09,0.073875,0.0027160002,-0.0044250004,0.00239575,1741898523.5063648
-0.006375,0.021125,0.13,-0.00198375,-0.00048825,0.00057975,-0.001625,-0.088625,0.07225,0.0029145,-0.0062255003,0.0022735,1741898523.506559
-0.006125,0.02275,0.131125,-0.00193775,-0.000122000005,-0.00080875,-0.0,-0.08325,0.06825,0.0035095,-0.0074004997,0.0020599999,1741898523.511379
-0.005875,0.0205,0.129875,-0.0013580001,0.000183,-0.00146475,0.00075,-0.0805,0.0665,0.00579825,-0.010589501,0.00143425,1741898523.530011
-0.00575,0.017625,0.1275,-6.1000002e-05,0.00064075,-0.00213625,0.001,-0.074875,0.0715,0.0069274995,-0.012313751,0.0009155,1741898523.547742
-0.00525,0.013125,0.123125,0.00029,0.00064075,-0.0022277501,0.000625,-0.072625,0.076375,0.0084379995,-0.01474,-0.0007325,1741898523.557952
-0.004625,0.012625,0.122375,0.00033575002,0.00045775,-0.0023345,-0.003375,-0.076875,0.082375,0.00880425,-0.0154725,-0.0015105,1741898523.570613
-0.00375,0.0125,0.123375,9.15e-05,-7.625e-05,-0.0028074998,-0.007875,-0.08275,0.085,0.00764475,-0.016159,-0.0024414998,1741898523.587776
-0.003625,0.012125,0.12975,0.00010675,-0.00016775,-0.003128,-0.016125,-0.089125,0.098,0.0059205,-0.01576225,-0.0028229998,1741898523.604151
-0.004625,0.010375,0.132,0.0004425,0.00029,-0.0033722501,-0.017375,-0.087625,0.109875,0.00213625,-0.01248175,-0.0042725,1741898523.620212
-0.00725,0.007625,0.131125,0.00062550005,0.000763,-0.00308225,-0.01225,-0.08225,0.132375,0.001068,-0.009674,-0.00531,1741898523.6565518
-0.0075,0.0065,0.129,0.00065625,0.0017242499,-0.00225825,-0.009,-0.081875,0.139,0.0017242499,-0.0037995,-0.0072785,1741898523.657046
-0.004375,0.00525,0.125,0.0004425,0.00193775,-0.001892,-0.0055,-0.0795,0.138375,0.0027160002,-0.0013275,-0.00785825,1741898523.660119
-0.0025,0.005875,0.12475,9.15e-05,0.00193775,-0.00157175,-0.006,-0.07825,0.133125,0.0055085,0.00283825,-0.0089569995,1741898523.673541
-0.000125,0.00925,0.125375,-0.000534,0.0016175,-0.001175,-0.011125,-0.08325,0.124,0.00715625,0.0047607496,-0.009719751,1741898523.6881542
-0.00025,0.010125,0.12625,-0.00065625,0.00143425,-0.00105275,-0.01575,-0.0915,0.12175,0.008667,0.006607,-0.010437001,1741898523.702822
-0.001125,0.010875,0.126625,-0.00067150005,0.0012970001,-0.00083925005,-0.028,-0.116125,0.119,0.01026925,0.010299751,-0.010391249,1741898523.723519
-0.00225,0.011875,0.125,-0.00057975,0.00125125,-0.00080875,-0.0335,-0.125125,0.118125,0.009506251,0.012832751,-0.009597749,1741898523.732279
-0.0015,0.0115,0.1235,-0.00033575002,0.001068,-0.00086975005,-0.03775,-0.130125,0.11475,0.0055695,0.019622749,-0.00764475,1741898523.747027
0.001125,0.011375,0.121125,-0.0002595,0.00086975005,-0.000885,-0.043375,-0.126125,0.102125,0.003769,0.022873,-0.0066374997,1741898523.76233
0.00225,0.011125,0.120375,-1.5250001e-05,0.00019825,-0.000885,-0.046875,-0.125,0.09275,0.0025025,0.028747499,-0.0049285004,1741898523.77873
0.00275,0.010875,0.11975,0.000122000005,-0.00019825,-0.000763,-0.06475,-0.14375,0.06025,0.002884,0.03070075,-0.0030669998,1741898523.790935
0.001875,0.011375,0.12075,0.0002595,-0.0005645,-0.0005645,-0.073375,-0.150625,0.051375,0.00239575,0.02981575,0.00263975,1741898523.811719
0.000875,0.01025,0.12175,0.00036625,-0.00074775,0.0,-0.079125,-0.13975,0.05525,0.001587,0.0289765,0.00570675,1741898523.820075
0.00175,0.00675,0.1205,0.00013725001,-0.00077825,0.0003815,-0.077,-0.13075,0.056875,0.00177,0.0280915,0.011901749,1741898523.834555
0.0025,0.00725,0.119375,-0.00067150005,-0.00131225,0.0012055,-0.065,-0.1235,0.046375,0.0027312501,0.02711475,0.01498425,1741898523.8489978
0.00225,0.01125,0.119375,-0.00102225,-0.0016632499,0.00143425,-0.05575,-0.120375,0.0385,0.00320425,0.02339175,0.0204315,1741898523.869187
0.00175,0.01325,0.119625,-0.0012055,-0.00225825,0.00160225,-0.03725,-0.117125,0.02825,0.0022735,0.02095025,0.022461,1741898523.8779929
0.00225,0.014625,0.1185,-0.001068,-0.0025634998,0.00160225,-0.032375,-0.11975,0.022875,0.0004425,0.01893625,0.02424625,1741898523.892544
0.0025,0.01475,0.117875,-0.0009155,-0.0035704998,0.00157175,-0.024125,-0.11625,0.00725,-0.004303,0.0150605,0.027252251,1741898523.9115388
0.00075,0.016375,0.127875,-0.00112925,-0.004303,0.0016175,-0.019125,-0.106875,0.010125,-0.00494375,0.010162249,0.028427,1741898523.92175
-0.002375,0.016875,0.14225,-0.0013427499,-0.0046845004,0.00169375,-0.01375,-0.098125,0.01475,-0.0059967497,0.0028687501,0.0296325,1741898523.9364731
-0.008,0.01725,0.159625,-0.001526,-0.0021515,0.0019685,0.001375,-0.0885,0.01975,-0.00646975,0.00051875,0.029876752,1741898523.954912
-0.019625,0.02325,0.187125,-0.0020905002,0.000763,0.00198375,0.0095,-0.083625,0.025125,-0.00590525,-0.0048674997,0.029846251,1741898523.966155
-0.016,0.031875,0.176625,-0.0027312501,0.00708,0.00105275,0.019,-0.07875,0.038375,-0.004776,-0.0076295,0.02981575,1741898523.980475
-0.015625,0.039375,0.16425,-0.00245675,0.00930775,0.00045775,0.021875,-0.074375,0.046125,-0.0027312501,-0.012024,0.0293885,1741898523.9956229
-0.019625,0.046125,0.150625,-0.00225825,0.010879501,-0.00267025,0.033875,-0.0505,0.062125,-0.0025787498,-0.013382,0.028411752,1741898524.011328
-0.047125,0.055375,0.151875,-0.004547,0.010940501,-0.0060882503,0.040625,-0.0385,0.068875,-0.00154125,-0.01567075,0.024765,1741898524.024284
-0.066875,0.060875,0.17,-0.014160249,0.01374825,-0.016037,0.051375,-0.027625,0.069,-0.000473,-0.016845752,0.022491502,1741898524.074452
-0.0725,0.057,0.18825,-0.019470248,0.0168305,-0.0207215,0.055125,-0.026625,0.06425,0.00054925,-0.019317752,0.01725775,1741898524.074738
-0.059875,0.0595,0.181,-0.02943425,0.02297975,-0.026977502,0.055625,-0.033875,0.070625,0.0005035,-0.020462,0.014282251,1741898524.0749528
-0.032,0.0685,0.154,-0.03253175,0.025085501,-0.02981575,0.052,-0.04075,0.0815,-0.00019825,-0.021087749,0.008667,1741898524.0836968
-0.02,0.06675,0.141,-0.0331725,0.026596,-0.032776,0.0405,-0.047875,0.10775,-0.001175,-0.02006525,0.00621025,1741898524.0975559
-0.01025,0.06225,0.129,-0.028594999,0.0286255,-0.0379945,0.0355,-0.048375,0.117625,-0.0021972498,-0.018219,0.00378425,1741898524.111907
-0.001125,0.05925,0.10875,-0.025177,0.02919,-0.04025275,0.031625,-0.04325,0.127,-0.0029755002,-0.0136565,-0.00093075,1741898524.126668
0.00225,0.055125,0.09775,-0.01927175,0.02940375,-0.04447925,0.03225,-0.0405,0.126375,-0.002472,-0.01133725,-0.0033875,1741898524.1428008
0.0175,0.03525,0.067875,-0.017547501,0.028442498,-0.04568475,0.0325,-0.0395,0.123625,-0.00070200005,-0.007309,-0.008377,1741898524.156381
0.027,0.025125,0.0565,-0.0188445,0.02297975,-0.045761,0.02725,-0.047125,0.120375,0.00019825,-0.0056915004,-0.0105742505,1741898524.170629
0.045875,0.00225,0.043875,-0.021209748,0.018707251,-0.0450135,0.020625,-0.057625,0.11975,0.00115975,-0.0026245,-0.01368725,1741898524.185256
0.0535,-0.006875,0.040125,-0.0261535,0.008224499,-0.04202275,0.008125,-0.07775,0.11625,0.000763,-0.00093075,-0.014434749,1741898524.202603
0.057125,-0.014875,0.035625,-0.027709998,0.00292975,-0.04005425,0.006375,-0.0775,0.115625,-0.0017852499,0.0032655,-0.01567075,1741898524.2145312
0.06125,-0.016,0.0305,-0.029541,-0.00231925,-0.038345248,0.009875,-0.0665,0.111375,-0.0035095,0.0059205,-0.01690675,1741898524.229038
0.06275,-0.017,0.038125,-0.0273895,-0.01402275,-0.037613,0.0125,-0.06425,0.104875,-0.0064850003,0.01026925,-0.02015675,1741898524.2436638
0.055,-0.013875,0.080625,-0.01570125,-0.0157775,-0.037674,0.01325,-0.072875,0.08825,-0.00646975,0.011078,-0.021164,1741898524.262058
0.05825,-0.034375,0.071,0.01071175,-0.009277251,-0.03515625,0.0125,-0.078,0.081,-0.0033570002,0.0093995,-0.020934999,1741898524.279131
0.060375,-0.07025,0.043375,0.0002135,-0.01564025,-0.0266875,0.0125,-0.08175,0.075,-0.0013580001,0.0074920002,-0.02056875,1741898524.287793
0.059125,-0.05125,0.067625,-0.014557,-0.03161625,-0.009262,0.012375,-0.082125,0.075,0.0012970001,0.0043944996,-0.02073675,1741898524.302355
0.05625,-0.04025,0.089125,-0.011734,-0.03359975,-0.0042267498,0.007875,-0.08275,0.07925,0.0012207499,0.0038757501,-0.0212555,1741898524.317344
0.055,-0.0375,0.09475,-0.0052337497,-0.035049498,0.0045165,0.00275,-0.090875,0.0785,0.0005645,0.0041504996,-0.02171325,1741898524.33746
0.054625,-0.0165,0.094875,-0.00251775,-0.0361785,0.008667,-0.012125,-0.12275,0.071875,0.0002595,0.00413525,-0.01982125,1741898524.346366
0.048375,-0.001,0.105,0.00317375,-0.03878775,0.0139465,-0.0165,-0.13175,0.072375,0.00019825,0.0033264998,-0.017273001,1741898524.360925
0.02025,0.012,0.1525,0.00671375,-0.03842175,0.01498425,-0.01675,-0.1315,0.07675,-0.0012665,0.00225825,-0.0123595,1741898524.379049
0.006375,0.009625,0.18225,0.01020825,-0.0362855,0.01579275,-0.011625,-0.122,0.086125,-0.00228875,0.0025787498,-0.01062,1741898524.390729
-0.0025,0.007375,0.2075,0.01454175,-0.02658075,0.01893625,-0.009,-0.119625,0.087375,-0.00402825,0.0039215,-0.00744625,1741898524.405449
0.001375,0.0085,0.214875,0.017135499,-0.01965325,0.021576,-0.001875,-0.113875,0.083,-0.00402825,0.003952,-0.0056304997,1741898524.420369
0.008375,0.010625,0.20725,0.0262145,-0.0059967497,0.027359,0.002,-0.108,0.08075,-0.000534,0.00160225,-0.00193775,1741898524.442636
0.009,0.01625,0.19275,0.03105175,-0.00030525,0.029739501,0.00525,-0.099125,0.07875,0.0022277501,-0.00024425,-0.000473,1741898524.449737
0.0065,0.016125,0.184,0.0329895,0.0077667497,0.0321045,0.004625,-0.097,0.07925,0.00555425,-0.003128,0.0011445,1741898524.4692879
0.007375,0.001375,0.171875,0.02940375,0.0104065,0.03309625,0.003125,-0.094125,0.08175,0.0056609996,-0.0037537501,0.001526,1741898524.4788659
0.010125,-0.00375,0.16725,0.024383498,0.0127105,0.03477475,0.00275,-0.092,0.08275,0.0041044997,-0.0039215,0.001831,1741898524.493353
0.013125,-0.002875,0.161375,0.013031,0.016388,0.038558997,0.00075,-0.089375,0.084,0.0031127501,-0.00384525,0.0017852499,1741898524.507974
0.015,0.009625,0.14225,0.0079345,0.017425502,0.039810248,-0.0005,-0.08925,0.0845,0.001953,-0.00393675,0.0018005001,1741898524.522812
0.0075,0.028625,0.140375,-0.00019825,0.017685,0.03974925,-0.001875,-0.0875,0.084625,0.0017852499,-0.00408925,0.001831,1741898524.5407202
-0.024,0.084125,0.14625,-0.0029145,0.018158002,0.0366975,-0.001125,-0.08475,0.08425,0.0022125002,-0.00463875,0.0015565,1741898524.552202
-0.032125,0.08825,0.13775,-0.00393675,0.01937875,0.03144825,0.002,-0.079875,0.0785,0.00289925,-0.00511175,0.0012207499,1741898524.5666409
-0.030125,0.07625,0.124875,-0.001953,0.0214385,0.02227775,0.003375,-0.078875,0.07275,0.00372325,-0.0058135,0.000824,1741898524.584556
-0.01475,0.052125,0.10425,-0.00048825,0.02142325,0.020279,0.005875,-0.080625,0.063,0.0052947504,-0.00833125,4.575e-05,1741898524.595905
-0.00775,0.047375,0.0975,-3.0500001e-05,0.019897498,0.01800525,0.00575,-0.081625,0.064,0.00567625,-0.009948749,-0.00035100002,1741898524.6107168
0.002125,0.040875,0.091,0.0001525,0.0186615,0.01693725,0.004375,-0.083125,0.069,0.0048217503,-0.01228325,-0.001419,1741898524.6301188
0.00575,0.037875,0.09025,0.0003205,0.0153502505,0.01454175,-0.000125,-0.087375,0.079375,0.0036010002,-0.01257325,-0.001953,1741898524.64017
0.012875,0.034125,0.087,-0.00039675,0.013290499,0.013122501,-0.0015,-0.088,0.08075,0.0004425,-0.011917,-0.0027160002,1741898524.654921
0.016375,0.0325,0.085375,-0.001175,0.0109709995,0.011612001,-0.00275,-0.085375,0.080125,-0.000824,-0.01145925,-0.003006,1741898524.672746
0.019625,0.032625,0.085,-0.0012207499,0.00590525,0.0088805,-0.003625,-0.084125,0.081125,-0.00238025,-0.01062,-0.0037537501,1741898524.689303
0.02425,0.032625,0.08525,-0.00065625,0.0034484998,0.00770575,-0.00525,-0.0845,0.0845,-0.00270075,-0.01026925,-0.00408925,1741898524.699546
0.026875,0.031,0.085625,0.00024425,-0.0015105,0.0053709997,-0.006125,-0.08475,0.08825,-0.0024872501,-0.009643501,-0.0045777503,1741898524.714466
0.028875,0.028375,0.094,0.00045775,-0.0040587503,0.00434875,-0.0085,-0.084,0.10225,-0.00198375,-0.009002751,-0.004837,1741898524.729975
0.027125,0.027375,0.10025,-6.1000002e-05,-0.0076295,0.0027312501,-0.009,-0.083375,0.10975,-0.0003205,-0.006607,-0.0054780003,1741898524.749464
0.025625,0.022875,0.110625,-0.00048825,-0.008590749,0.0022277501,-0.0075,-0.081125,0.118875,0.0005035,-0.00485225,-0.00590525,1741898524.758933
0.025625,0.0225,0.115625,-0.00080875,-0.00912475,0.0021972498,-0.0065,-0.08,0.120375,0.0018615,-0.00086975005,-0.0070037497,1741898524.773773
0.026375,0.024875,0.119375,-0.00080875,-0.0088805,0.0031127501,-0.004,-0.079,0.11925,0.00239575,0.001114,-0.0076295,1741898524.7905788
0.028875,0.03125,0.12425,-0.00045775,-0.008346501,0.00343325,-0.00225,-0.079125,0.1165,0.003418,0.0045165,-0.009002751,1741898524.803088
0.02975,0.0325,0.12675,0.00013725001,-0.00708,0.00340275,0.001125,-0.0775,0.11025,0.00381475,0.0058899997,-0.009933501,1741898524.8175528
0.027125,0.0345,0.131,0.0001525,-0.00637825,0.0032195,0.00075,-0.0775,0.108375,0.0047455,0.0081025,-0.01210025,1741898524.8320909
0.025125,0.0355,0.130375,6.1000002e-05,-0.00511175,0.0023497501,-0.008,-0.092875,0.1035,0.0055085,0.0089569995,-0.0127105,1741898524.849185
0.023625,0.033375,0.1265,-7.625e-05,-0.0046845004,0.00177,-0.0165,-0.10875,0.098875,0.0065155,0.009933501,-0.0110625,1741898524.861811
0.024,0.03175,0.125375,-0.00039675,-0.0044250004,0.0012665,-0.03225,-0.13525,0.09,0.00587475,0.0106355,-0.009231499,1741898524.876436
0.0255,0.0305,0.127,-0.00163275,-0.00399775,0.0005645,-0.039,-0.146375,0.086125,0.00317375,0.01266475,-0.00463875,1741898524.891235
0.026125,0.031625,0.129625,-0.002243,-0.003769,0.00030525,-0.053625,-0.151375,0.08725,0.0015565,0.0138702495,-0.0019225,1741898524.911493
0.02625,0.033,0.13125,-0.0028074998,-0.0029145,-0.0002595,-0.0605,-0.14175,0.093875,-6.1000002e-05,0.0153655,0.00062550005,1741898524.920801
0.02625,0.033125,0.129125,-0.0025940002,-0.00238025,-0.00048825,-0.071,-0.140625,0.09725,0.00102225,0.01882925,0.006546,1741898524.935622
0.026125,0.032625,0.126375,-0.0015105,-0.0016175,-0.00067150005,-0.071625,-0.144875,0.08975,0.0039825,0.01982125,0.011184749,1741898524.953117
0.02525,0.03,0.122125,-0.001007,-0.00149525,-0.00074775,-0.06675,-0.143625,0.080125,0.009262,0.0186005,0.0209655,1741898524.964808
0.024125,0.027875,0.1225,-0.00070200005,-0.0016632499,-0.00090025004,-0.049625,-0.136375,0.0655,0.01142875,0.0170135,0.024765,1741898524.979489
0.021,0.025625,0.125875,-0.0008545,-0.001709,-0.000885,-0.044125,-0.135625,0.059375,0.014389,0.013351499,0.03097525,1741898524.994507
0.019875,0.025875,0.127,-0.0010375,-0.00160225,-0.00077825,-0.037875,-0.1335,0.044875,0.014221249,0.011321999,0.03373725,1741898525.0087712
0.019375,0.026375,0.125625,-0.0011445,-0.0009765,-0.00029,-0.0315,-0.128625,0.038875,0.01048275,0.0072632497,0.0379945,1741898525.023294
0.019375,0.026875,0.124125,-0.00109875,-0.00074775,7.625e-05,-0.009,-0.10975,0.0265,0.008377,0.005066,0.0392915,1741898525.037803
0.018875,0.027375,0.123125,-0.0013580001,-0.00061025,0.00059500005,0.0045,-0.0945,0.021375,0.0070495,-0.001114,0.0395965,1741898525.058628
0.015875,0.030875,0.12375,-0.001831,-0.00068675,0.00064075,0.024875,-0.069125,0.01925,0.0070647504,-0.004486,0.03854375,1741898525.06689
0.013375,0.034375,0.1255,-0.00314325,-0.00080875,4.575e-05,0.033,-0.0575,0.017,0.0060577504,-0.010666001,0.035141,1741898525.081365
0.008375,0.042375,0.131,-0.0036162501,-0.00062550005,-0.00054925,0.04725,-0.0265,0.015,0.00665275,-0.01531975,0.0325775,1741898525.095967
0.0065,0.0465,0.133125,-0.0037385002,0.00051875,-0.002243,0.050875,-0.015,0.016875,0.010314999,-0.0249635,0.02497875,1741898525.110739
0.006125,0.04625,0.132625,-0.0034942501,0.00131225,-0.0033264998,0.050875,-0.003625,0.02625,0.012146,-0.028885,0.020202748,1741898525.12958
0.00775,0.042375,0.131375,-0.00328075,0.0020752498,-0.004303,0.049,-0.00125,0.03525,0.0128632495,-0.032013,0.015029999,1741898525.13985
0.00975,0.0405,0.130375,-0.00381475,0.00305175,-0.0055085,0.041375,-0.006125,0.059875,0.011688249,-0.03556825,0.00393675,1741898525.154379
0.011625,0.045875,0.13025,-0.0045625,0.0033570002,-0.00614925,0.035125,-0.01475,0.073875,0.0100555,-0.035949748,-0.0015105,1741898525.16992
0.010625,0.049125,0.1305,-0.0058899997,0.0039825,-0.008361749,0.02875,-0.021875,0.08925,0.002472,-0.03297425,-0.01171875,1741898525.189782
0.006625,0.053,0.134125,-0.0061950004,0.00444025,-0.009734999,0.02075,-0.03225,0.128875,-0.0034942501,-0.029007,-0.01681525,1741898525.198655
0.004375,0.056375,0.135375,-0.00646975,0.0058899997,-0.01272575,0.020625,-0.034875,0.14925,-0.014862,-0.016983,-0.02619925,1741898525.213429
-0.0005,0.0655,0.135125,-0.0066374997,0.0065917503,-0.014495751,0.020875,-0.038,0.17975,-0.018402,-0.01048275,-0.0300445,1741898525.230001
-0.00525,0.070625,0.13875,-0.0075072497,0.008133001,-0.018737748,0.017625,-0.042375,0.184875,-0.020904498,0.0012970001,-0.03556825,1741898525.24419
-0.012875,0.0755,0.14975,-0.0078735,0.009597749,-0.021209748,0.003125,-0.066625,0.181,-0.020934999,0.00671375,-0.0372925,1741898525.257764
-0.009875,0.06875,0.148375,-0.0081025,0.011673001,-0.0237275,-0.004875,-0.082625,0.169625,-0.0202485,0.01589975,-0.037887502,1741898525.272442
-0.002,0.061375,0.143625,-0.01048275,0.015579251,-0.027587999,-0.015,-0.102,0.146625,-0.018982,0.019775499,-0.037048247,1741898525.288933
0.020875,0.046875,0.119625,-0.0128175,0.01634225,-0.029144252,-0.018,-0.110875,0.13575,-0.014679,0.027526751,-0.03541575,1741898525.3019478
0.032625,0.041375,0.1045,-0.019348249,0.0138245,-0.03179925,-0.02975,-0.14625,0.112625,-0.0116425,0.02943425,-0.0338745,1741898525.31694
0.048,0.041,0.083125,-0.02238475,0.011031999,-0.03309625,-0.040125,-0.164,0.10875,-0.00184625,0.02766425,-0.02589425,1741898525.3319192
0.05225,0.038,0.069375,-0.025833251,0.0036162501,-0.035278253,-0.05575,-0.1795,0.105625,0.0036010002,0.026764,-0.02012625,1741898525.3517509
0.0565,0.03475,0.057,-0.0276185,-0.0007935,-0.0359955,-0.056625,-0.177125,0.101375,0.01200875,0.0266875,-0.00852975,1741898525.36137
0.056625,0.027625,0.056375,-0.02870175,-0.0053709997,-0.03668225,-0.0575,-0.160125,0.0955,0.014160249,0.0273285,-0.00378425,1741898525.376309
0.0545,0.017375,0.05775,-0.0272065,-0.014343251,-0.03648375,-0.061,-0.152625,0.092,0.01445,0.029220501,0.0048217503,1741898525.390902
0.047375,-0.003,0.06175,-0.02497875,-0.01826475,-0.034911998,-0.058125,-0.150375,0.058125,0.0138245,0.02949525,0.010253999,1741898525.412533
0.04525,-0.01,0.06475,-0.01744075,-0.02500925,-0.0295105,-0.04675,-0.14625,0.037125,0.013214,0.02548225,0.02159125,1741898525.420034
0.0435,-0.023,0.07925,-0.013488751,-0.02793875,-0.026474,-0.0155,-0.1255,0.01725,0.01339725,0.02149975,0.025268499,1741898525.434552
0.041375,-0.03125,0.08925,-0.00408925,-0.03179925,-0.01956175,-0.005125,-0.1185,0.016625,0.0138855,0.0168915,0.02749625,1741898525.453967
0.04625,-0.050625,0.0965,0.001068,-0.032196,-0.01481625,0.0065,-0.0985,0.01825,0.0143737495,0.007599,0.0296325,1741898525.463764
0.050875,-0.047375,0.097625,0.00897225,-0.033249002,-0.00305175,0.01075,-0.088625,0.01575,0.013214,0.00334175,0.029419001,1741898525.478325
0.044125,-0.038375,0.124875,0.01228325,-0.0335235,0.0020599999,0.01675,-0.07975,0.01025,0.010589501,-0.0045625,0.027832001,1741898525.495577
0.038875,-0.0505,0.14475,0.0189515,-0.029907249,0.011550999,0.033375,-0.057375,0.008625,0.0110932505,-0.0093995,0.0266265,1741898525.5075672
0.039125,-0.075625,0.15525,0.02197275,-0.0264435,0.0177765,0.039,-0.048625,0.012,0.014846751,-0.019439751,0.0220795,1741898525.522141
0.036375,-0.0655,0.155125,0.0248565,-0.023376498,0.025085501,0.040625,-0.038875,0.02825,0.0168305,-0.02351375,0.01924125,1741898525.537201
0.024125,-0.040625,0.170125,0.030014,-0.01800525,0.03787225,0.0395,-0.034375,0.0375,0.01667775,-0.02793875,0.01260375,1741898525.552674
-0.01325,0.014125,0.21225,0.0314635,-0.0135345,0.0403595,0.036125,-0.02675,0.058375,0.015518251,-0.029266251,0.008667,1741898525.568692
-0.024,0.018125,0.22,0.03025825,-0.0021515,0.03958125,0.03625,-0.025375,0.0645,0.01330575,-0.029541,0.00042725,1741898525.580696
-0.025875,0.00675,0.2345,0.0279235,0.004074,0.040924,0.03875,-0.0325,0.06225,0.0114440005,-0.029022248,-0.0038299998,1741898525.595447
-0.028375,0.016625,0.245,0.018707251,0.01708975,0.046524,0.03825,-0.039625,0.063625,0.0047455,-0.028411752,-0.011535751,1741898525.6120682
-0.061125,0.08375,0.257625,0.009842,0.02313225,0.04667675,0.026125,-0.06075,0.083625,0.0005035,-0.0276185,-0.0148925,1741898525.632051
-0.079375,0.117125,0.249125,-0.0013580001,0.0290375,0.042923,0.01625,-0.071375,0.0995,-0.0080415,-0.02288825,-0.02050775,1741898525.639356
-0.086625,0.13525,0.227625,-0.02197275,0.040237498,0.02737425,0.0005,-0.083125,0.139,-0.01150525,-0.018890498,-0.022521999,1741898525.654131
-0.062,0.12075,0.163375,-0.0280915,0.04489125,0.019439751,-0.003625,-0.08725,0.157125,-0.01460275,-0.013839751,-0.02409375,1741898525.670979
-0.042875,0.107875,0.1305,-0.035492,0.050171003,0.0085602505,-0.004625,-0.1005,0.17125,-0.0199585,-0.001953,-0.025787251,1741898525.6902888
-0.01675,0.1125,0.077875,-0.03848275,0.0502015,0.0038757501,-0.003375,-0.106125,0.16775,-0.02215575,0.0038757501,-0.02560425,1741898525.6984892
-0.01225,0.11925,0.061,-0.040634252,0.045944247,-0.009094249,-0.002625,-0.1055,0.16325,-0.0257415,0.014800999,-0.0249175,1741898525.713144
-0.0065,0.1145,0.03475,-0.03778075,0.0428925,-0.01640325,0.00175,-0.0905,0.149125,-0.02648925,0.020462,-0.02534475,1741898525.729633
0.004375,0.10225,0.02025,-0.031845,0.04008475,-0.022812,0.005625,-0.08225,0.136,-0.020996,0.027679501,-0.026275748,1741898525.742387
0.03475,0.066625,-0.004625,-0.020782499,0.032135,-0.0315095,-0.0005,-0.094875,0.11025,-0.014160249,0.027542,-0.025528,1741898525.757257
0.04625,0.046875,-0.01075,-0.020782499,0.025299,-0.03385925,-0.010375,-0.1155,0.101375,0.00163275,0.02336125,-0.02023325,1741898525.7718499
0.05375,0.030125,-0.008625,-0.0223235,0.00930775,-0.0334015,-0.0295,-0.161,0.08825,0.0076905,0.02105725,-0.01593025,1741898525.789855
0.06,0.014625,0.001625,-0.02101125,0.0021515,-0.0314635,-0.034125,-0.170125,0.08475,0.0129395,0.01876825,-0.00671375,1741898525.801182
0.059125,0.011375,0.005625,-0.021026501,-0.01272575,-0.02970875,-0.037125,-0.159875,0.084,0.012405501,0.019348249,-0.0029907501,1741898525.816
0.0625,0.00125,0.01275,-0.022949249,-0.020782499,-0.02940375,-0.0375,-0.148,0.08275,0.008712751,0.02259825,0.002365,1741898525.830766
0.063875,-0.001,0.0255,-0.021759002,-0.03657525,-0.02787775,-0.041125,-0.124375,0.076875,0.0073242504,0.02357475,0.0047455,1741898525.8504572
0.052625,-0.01325,0.057125,-0.01622,-0.04110725,-0.02677925,-0.040875,-0.123125,0.0645,0.0086975,0.02171325,0.012741,1741898525.8598661
0.05375,-0.02475,0.068375,-0.00671375,-0.04515075,-0.01908875,-0.02575,-0.125,0.04075,0.01092525,0.0187225,0.0174865,1741898525.874507
0.0585,-0.03375,0.096125,-0.0034637498,-0.046051,-0.013488751,-0.01425,-0.121875,0.03325,0.015274,0.01065075,0.02354425,1741898525.891813
0.058625,-0.03175,0.114625,-0.0005035,-0.045761,-0.0077515002,0.00125,-0.113,0.026625,0.017105,0.00621025,0.024932751,1741898525.903491
0.058625,-0.02925,0.12925,0.0074004997,-0.040924,0.00263975,0.005375,-0.105625,0.025875,0.018219,0.0019989999,0.0256805,1741898525.917985
0.05625,-0.02825,0.15125,0.011749251,-0.037735,0.0074615004,0.009625,-0.095875,0.023375,0.016540501,-0.00469975,0.02525325,1741898525.934321
0.0525,-0.02775,0.172,0.01728825,-0.0309905,0.016448999,0.022875,-0.076,0.016125,0.0155030005,-0.00801075,0.02439875,1741898525.947094
0.04025,-0.03725,0.202625,0.019439751,-0.026245002,0.02079775,0.029375,-0.07075,0.015125,0.016570998,-0.016098,0.0219575,1741898525.961591
0.03325,-0.032,0.21075,0.02363575,-0.015029999,0.030609248,0.037375,-0.06725,0.021375,0.017151,-0.0194245,0.02041625,1741898525.976141
0.01625,-0.004875,0.213,0.0261535,-0.0085602505,0.03506475,0.0405,-0.061125,0.028375,0.015564,-0.024292,0.01637275,1741898525.9968169
0.005625,0.018125,0.204875,0.031021,0.004013,0.04116825,0.042875,-0.0495,0.0435,0.01419075,-0.026122998,0.013717749,1741898526.005306
-0.014625,0.07775,0.207,0.03297425,0.00962825,0.040710498,0.04225,-0.044125,0.0475,0.0114440005,-0.0281525,0.0072175004,1741898526.019922
-0.022125,0.080375,0.210125,0.03515625,0.01513675,0.03775025,0.0405,-0.037375,0.060375,0.0099639995,-0.028594999,0.0032655,1741898526.0382028
-0.023375,0.06725,0.21625,0.03082275,0.02565,0.03182975,0.040125,-0.038,0.07,0.00587475,-0.027649,-0.00517275,1741898526.0492969
-0.010375,0.02525,0.216375,0.0278015,0.03155525,0.031479,0.036,-0.05525,0.080875,0.0029145,-0.026550248,-0.0090485,1741898526.0689878
-0.00375,0.021,0.205125,0.014587499,0.041092,0.035659753,0.03,-0.06975,0.086875,-0.001587,-0.025085501,-0.012313751,1741898526.0786612
0.004,0.049375,0.160625,0.00434875,0.04353325,0.0368195,0.014375,-0.079875,0.114,-0.01496875,-0.0196075,-0.01744075,1741898526.093371
0.003,0.066375,0.13775,-0.01513675,0.04356375,0.0328065,0.008375,-0.073625,0.132875,-0.021576,-0.015152001,-0.019744748,1741898526.1106
-0.00675,0.100625,0.100375,-0.0230865,0.041961752,0.027542,0.0055,-0.062,0.1635,-0.031158501,-0.0035095,-0.02471925,1741898526.122968
-0.001,0.10375,0.078125,-0.02876275,0.0398865,0.020477248,0.005,-0.064125,0.169,-0.033981252,0.0026854998,-0.02699275,1741898526.137604
0.0115,0.097375,0.056,-0.03227225,0.0327605,0.007431,0.0045,-0.0705,0.167625,-0.035476748,0.0141145,-0.02920525,1741898526.152249
0.031125,0.095375,0.049125,-0.0312195,0.027587999,0.00289925,0.008,-0.083625,0.15275,-0.0343475,0.018982,-0.029449498,1741898526.170315
0.03075,0.101125,0.0535,-0.028427,0.02034,-0.0056304997,0.0085,-0.08675,0.1425,-0.0266875,0.0238495,-0.028686501,1741898526.181685
0.024125,0.088375,0.062625,-0.031723,0.016861,-0.0102845,-0.00725,-0.113125,0.119625,-0.02041625,0.02449025,-0.027435249,1741898526.1964202
0.026,0.071,0.06425,-0.034484748,0.01248175,-0.016983,-0.018375,-0.13475,0.10725,-0.0077515002,0.0227355,-0.02212525,1741898526.211334
0.042125,0.049375,0.048125,-0.03601075,0.009384249,-0.018859752,-0.037875,-0.16075,0.102125,-0.002655,0.020934999,-0.0178375,1741898526.2307148
0.05125,0.044,0.038625,-0.037384,0.0050812503,-0.02012625,-0.04275,-0.16225,0.105125,0.0067445002,0.019927999,-0.0078125,1741898526.240565
0.067375,0.03775,0.020125,-0.0349885,-0.004837,-0.020218,-0.043125,-0.15,0.107375,0.0111085,0.0207215,-0.0027312501,1741898526.25526
0.07425,0.03625,0.0155,-0.0325775,-0.010437001,-0.01956175,-0.03825,-0.138875,0.103625,0.018188499,0.022354,0.0056304997,1741898526.269995
0.075875,0.035625,0.016,-0.02796925,-0.022812,-0.018310498,-0.025625,-0.125125,0.079125,0.02127075,0.02200325,0.009491,1741898526.289769
0.071,0.02675,0.031625,-0.02507025,-0.028594999,-0.017654499,-0.0205,-0.124,0.063125,0.025879,0.017624,0.0178375,1741898526.29928
0.068125,0.01825,0.043875,-0.01879875,-0.03816225,-0.014618,-0.01475,-0.128625,0.040375,0.0266265,0.014267,0.02165225,1741898526.313919
0.0625,-0.00025,0.073125,-0.015442001,-0.041320752,-0.011612001,-0.01125,-0.12825,0.033,0.024688749,0.0072175004,0.02708425,1741898526.3305862
0.06125,-0.006625,0.0915,-0.0064545004,-0.04290775,-0.00354,0.006125,-0.104125,0.027125,0.0224305,0.00399775,0.028,1741898526.343425
0.0605,-0.000625,0.13125,-0.000885,-0.04119875,0.00042725,0.0145,-0.09275,0.0265,0.019516,0.0012207499,0.027557248,1741898526.3577542
0.06025,0.007625,0.1475,0.0047150003,-0.03778075,0.0037995,0.0235,-0.082375,0.019125,0.01431275,-0.003891,0.02548225,1741898526.372254
0.062875,0.008125,0.155875,0.0135345,-0.027954001,0.0099945,0.0265,-0.077375,0.018,0.013198749,-0.0075835,0.0247955,1741898526.392832
0.061,0.00125,0.1575,0.016296498,-0.023407,0.013626001,0.030875,-0.069375,0.019,0.0134735005,-0.01548775,0.02238475,1741898526.401621
0.054375,-0.007125,0.164875,0.0194245,-0.01501475,0.022064252,0.039,-0.056375,0.025875,0.0141145,-0.0186615,0.0201875,1741898526.41636
0.02625,-0.003875,0.193375,0.0205535,-0.009887749,0.026840251,0.042,-0.050625,0.030375,0.01361075,-0.02351375,0.01446525,1741898526.434769
0.010125,0.022875,0.201375,0.02563475,0.0028535,0.0344695,0.0445,-0.03825,0.042125,0.012847999,-0.025314251,0.0111085,1741898526.445756
-0.00425,0.09275,0.186875,0.030029248,0.0094604995,0.0355225,0.04325,-0.034875,0.047625,0.010803251,-0.02722175,0.0033264998,1741898526.460282
0.00325,0.110125,0.172875,0.039093,0.0203705,0.0332795,0.037625,-0.034125,0.060375,0.009582501,-0.02763375,-0.00077825,1741898526.476083
0.02975,0.107125,0.151875,0.040145747,0.02424625,0.03120425,0.03575,-0.035875,0.070875,0.0056609996,-0.026840251,-0.009002751,1741898526.489571
0.033625,0.09625,0.149,0.03752125,0.02708425,0.028885,0.033875,-0.0455,0.0855,0.0025634998,-0.025299,-0.013198749,1741898526.5042582
0.023625,0.072375,0.15275,0.025543248,0.0298615,0.02357475,0.030625,-0.0565,0.08925,-0.0056609996,-0.021408001,-0.02026375,1741898526.519042
0.015625,0.062625,0.151875,0.0158385,0.02970875,0.020782499,0.01625,-0.0805,0.108,-0.010879501,-0.019012501,-0.02253725,1741898526.538829
0.00525,0.063375,0.146875,-0.0060425,0.028137252,0.01737975,0.008375,-0.084,0.12575,-0.02275075,-0.011078,-0.025665252,1741898526.549845
-0.005125,0.097,0.124375,-0.015396,0.02749625,0.015029999,-0.0065,-0.087625,0.151875,-0.02873225,-0.0055237496,-0.0271455,1741898526.570163
-0.001625,0.109375,0.1085,-0.02981575,0.025665252,0.00561525,-0.013375,-0.095125,0.157125,-0.03869625,0.0061645,-0.02870175,1741898526.5779269
0.01525,0.11975,0.07425,-0.035675,0.02357475,0.000122000005,-0.014625,-0.103625,0.161125,-0.041610748,0.01187125,-0.02848825,1741898526.5926652
0.020375,0.12075,0.062125,-0.044067502,0.016113251,-0.01086425,-0.00575,-0.098125,0.159625,-0.041961752,0.017730748,-0.0280305,1741898526.610264
0.022,0.11525,0.059,-0.044098,0.0125885,-0.016113251,0.013875,-0.08325,0.14775,-0.03268425,0.02595525,-0.027007999,1741898526.6222851
0.026,0.105875,0.056875,-0.04072575,0.0106965,-0.021103,0.01525,-0.080625,0.141875,-0.02388,0.0263825,-0.02636725,1741898526.636873
0.031875,0.093125,0.050125,-0.03173825,0.0076142503,-0.028427,0.00875,-0.085125,0.136,-0.0033722501,0.0235595,-0.0241395,1741898526.651489
0.042125,0.06475,0.03325,-0.03005975,0.0041044997,-0.03031925,-0.02075,-0.137875,0.1125,0.0059205,0.02224725,-0.02130125,1741898526.670683
0.047625,0.05075,0.031,-0.02882375,-0.0055237496,-0.030746501,-0.038125,-0.176875,0.098875,0.018219,0.019455,-0.009017999,1741898526.680682
0.0595,0.02675,0.038875,-0.026596,-0.01020825,-0.029541,-0.0525,-0.211,0.0885,0.01988225,0.0186005,-0.00149525,1741898526.695294
0.064375,0.019625,0.044875,-0.0206605,-0.018753,-0.025695749,-0.046375,-0.196375,0.089375,0.0158385,0.02124025,0.00997925,1741898526.712896
0.0665,0.01075,0.056625,-0.0183715,-0.022918751,-0.023528999,-0.0305,-0.149125,0.08275,0.01266475,0.023834249,0.013290499,1741898526.7244039
0.066,0.0085,0.063625,-0.01652525,-0.026672252,-0.0211945,-0.031625,-0.137375,0.07375,0.0100555,0.0260315,0.019455,1741898526.739084
0.066875,0.006875,0.08425,-0.0110015,-0.03158575,-0.01513675,-0.035625,-0.134125,0.049875,0.011810251,0.02421575,0.024688749,1741898526.753587
0.068,0.006625,0.09775,-0.006546,-0.032364,-0.011673001,-0.02675,-0.128625,0.03975,0.0159455,0.01675425,0.03500375,1741898526.770331
0.0695,0.0065,0.11,0.004547,-0.029739501,-0.0043944996,0.001875,-0.11225,0.02775,0.0170745,0.012619001,0.03804025,1741898526.782733
0.070125,0.010875,0.11775,0.00953675,-0.02705375,-0.00024425,0.01225,-0.10375,0.024625,0.01731875,0.0042572496,0.040039003,1741898526.797339
0.06925,0.011375,0.117125,0.015335,-0.0221405,0.0081025,0.026,-0.083875,0.009125,0.0157775,0.00024425,0.0397645,1741898526.81185
0.062,0.01025,0.123375,0.016418502,-0.020904498,0.011245751,0.03275,-0.0695,0.00075,0.01412975,-0.004074,0.039245497,1741898526.831379
0.054,0.01,0.134375,0.019027751,-0.01826475,0.015090999,0.0405,-0.051375,-0.004,0.012680001,-0.0141145,0.036209,1741898526.841255
0.03925,0.018375,0.170625,0.02323925,-0.0144805005,0.01693725,0.05175,-0.02275,-0.00275,0.013564999,-0.020324752,0.03306575,1741898526.85589
0.03375,0.025125,0.181875,0.0296325,-0.008667,0.018982,0.054,-0.01425,0.00075,0.0185395,-0.033508252,0.02507025,1741898526.87302
0.03025,0.032125,0.18375,0.044967752,0.0046234997,0.02537525,0.053625,-0.002125,0.01225,0.021041749,-0.039382998,0.020279,1741898526.885065
0.036875,0.0435,0.167,0.050827,0.010147001,0.029068,0.05175,0.001875,0.02525,0.0223235,-0.04745475,0.008941749,1741898526.899503
0.041,0.056375,0.159125,0.051284753,0.017501751,0.033249002,0.045875,0.003125,0.0495,0.0206145,-0.0494995,0.0026092501,1741898526.9148521
0.0375,0.087,0.15275,0.04660025,0.019592252,0.03227225,0.04175,-0.0075,0.0615,0.012115501,-0.049942,-0.009384249,1741898526.9352388
0.03,0.103125,0.159,0.03677375,0.022827249,0.0246125,0.029375,-0.040375,0.096875,0.0051880004,-0.048141498,-0.014419501,1741898526.943306
0.018875,0.09375,0.17025,0.03347775,0.0249635,0.01968375,0.0165,-0.0615,0.129125,-0.011825499,-0.039566003,-0.022461,1741898526.95796
0.015375,0.07875,0.17925,0.02832025,0.02711475,0.01608275,-0.00025,-0.07675,0.191125,-0.02050775,-0.03211975,-0.024993999,1741898526.97701
0.011625,0.0575,0.184875,0.01646425,0.0335235,0.01326,0.00025,-0.067375,0.209625,-0.0355835,-0.012146,-0.02993775,1741898526.98751
0.0085,0.0245,0.164,0.0072175004,0.036376998,0.013992251,0.0075,-0.050125,0.209875,-0.04100025,-0.0021972498,-0.032547,1741898527.0022058
0.009375,0.028375,0.143375,-0.01474,0.038085997,0.0149995005,0.01,-0.04825,0.198375,-0.04682925,0.0117035,-0.036331248,1741898527.0189922
0.015125,0.06675,0.094875,-0.02333075,0.036987253,0.0137635,0.006,-0.07,0.17625,-0.049057,0.0159455,-0.0372925,1741898527.031376
0.018125,0.09375,0.076375,-0.03479,0.03167725,0.00546275,0.001625,-0.07675,0.1735,-0.051880002,0.020172002,-0.037917998,1741898527.049921
0.025875,0.121625,0.046375,-0.0370025,0.028839001,-0.0017242499,-0.001125,-0.0695,0.1725,-0.05570975,0.03141775,-0.041031,1741898527.060765
0.033125,0.1155,0.027375,-0.03933725,0.024765,-0.00924675,0.00875,-0.023,0.17,-0.05125425,0.03474425,-0.04341125,1741898527.075391
0.04375,0.1075,0.018375,-0.047699,0.01127625,-0.021209748,0.002375,-0.03975,0.166125,-0.0208435,0.033325247,-0.043289248,1741898527.0902998
0.063,0.088,0.01275,-0.049682498,0.004486,-0.0256195,-0.068625,-0.1845,0.15,-0.00372325,0.030151252,-0.03695675,1741898527.113025
0.065,0.076375,0.010375,-0.0487975,-0.007904,-0.0308685,-0.093625,-0.229875,0.146875,0.01156625,0.02766425,-0.0169525,1741898527.1196458
0.066875,0.046,0.01025,-0.048172,-0.013916001,-0.0318755,-0.07975,-0.209625,0.141875,0.013092,0.0306245,-0.008194,1741898527.134333
0.06925,0.033875,0.00875,-0.04417425,-0.025421249,-0.030151252,-0.0645,-0.18275,0.13275,0.015594499,0.0391235,0.0038299998,1741898527.151556
0.07025,0.02025,0.005,-0.042465247,-0.0321045,-0.0286255,-0.044375,-0.139125,0.10425,0.017105,0.042221002,0.0086975,1741898527.170444
0.06675,0.017625,0.012875,-0.040161252,-0.047577,-0.02462775,-0.03475,-0.12775,0.079625,0.024780251,0.040420502,0.01988225,1741898527.1780548
0.061375,0.0165,0.055125,-0.0366515,-0.054580748,-0.02326975,-0.028,-0.11375,0.048375,0.030365,0.0346985,0.0263825,1741898527.192595
0.0505,0.00925,0.0805,-0.029007,-0.05906675,-0.0224,-0.025875,-0.10875,0.034875,0.03538525,0.0227355,0.0382385,1741898527.210219
0.04525,0.002,0.095,-0.0105742505,-0.0585785,-0.016113251,0.00325,-0.086,-0.00325,0.03575125,0.0164795,0.042389,1741898527.222255
0.044875,-0.003125,0.10275,-0.0040587503,-0.056961,-0.0110625,0.0235,-0.069625,-0.018375,0.03710925,0.00108325,0.045166,1741898527.236882
0.041125,0.00125,0.114625,0.0072785,-0.053756747,-0.000473,0.050875,-0.039125,-0.037125,0.037368752,-0.0076142503,0.0439605,1741898527.251503
0.03825,0.009875,0.15,0.014419501,-0.0505065,0.00331125,0.056375,-0.0275,-0.03875,0.03660575,-0.016388,0.04125975,1741898527.270932
0.04075,0.008125,0.164,0.028656,-0.0412445,0.0076142503,0.04825,-0.004875,-0.0285,0.03312675,-0.0326995,0.032776,1741898527.2806988
0.041875,-0.010875,0.1895,0.0331725,-0.036148,0.0102845,0.038625,0.001125,-0.011875,0.030639749,-0.040069498,0.0274505,1741898527.295275
0.040875,-0.023,0.197875,0.0373535,-0.0247955,0.020111,0.035875,0.008125,-0.00125,0.027007999,-0.04685975,0.01719675,1741898527.311527
0.028875,-0.0375,0.216125,0.03898625,-0.018692,0.026184,0.040375,0.02175,0.011125,0.0265655,-0.04983525,0.011260999,1741898527.3254578
0.013625,-0.019875,0.228375,0.04208375,-0.011810251,0.0327605,0.039875,0.023625,0.028375,0.0236665,-0.05703725,-0.0023497501,1741898527.3391821
-0.004125,0.02025,0.23475,0.048706003,0.0033875,0.040985,0.03775,0.004875,0.064125,0.020477248,-0.058486998,-0.009140001,1741898527.355289
-0.0205,0.102875,0.22675,0.04818725,0.00976575,0.03910825,0.033,-0.0125,0.07975,0.0090485,-0.05662525,-0.02111825,1741898527.3760982
-0.02,0.11225,0.223875,0.04100025,0.02067575,0.029129,0.0005,-0.0615,0.1605,0.001175,-0.052887,-0.0258025,1741898527.383039
-0.010125,0.07725,0.223625,0.038498,0.027526751,0.025940001,-0.01375,-0.079375,0.2125,-0.01646425,-0.035659753,-0.03179925,1741898527.3981261
-0.0015,0.06125,0.215,0.035202,0.04245,0.026291,-0.003625,-0.071625,0.267875,-0.023285,-0.02354425,-0.03363025,1741898527.415471
0.013125,0.0505,0.17575,0.0305175,0.047958247,0.027435249,0.006625,-0.06675,0.26725,-0.029571502,-0.00045775,-0.0373535,1741898527.428031
0.011,0.046625,0.151375,0.022369498,0.051025502,0.027832001,0.004875,-0.06925,0.229,-0.030777,0.0081635,-0.03860475,1741898527.442679
0.00325,0.0485,0.1305,0.001068,0.04982,0.0255585,-0.006875,-0.077375,0.203625,-0.03344725,0.01852425,-0.03926075,1741898527.457406
-0.00675,0.06425,0.09575,-0.009140001,0.04730225,0.022369498,-0.029875,-0.10625,0.1775,-0.0361175,0.021225,-0.038330004,1741898527.477751
-0.005,0.073125,0.081625,-0.02592475,0.041275002,0.013412501,-0.031375,-0.105875,0.181125,-0.04451,0.032043498,-0.0384675,1741898527.487051
0.001875,0.09775,0.0525,-0.03259275,0.03800975,0.008514499,-0.00325,-0.056,0.17125,-0.0450745,0.04002375,-0.040954497,1741898527.501764
0.008375,0.112625,0.03625,-0.041336,0.029174749,-0.0034942501,0.001625,-0.049,0.15975,-0.02301025,0.04422,-0.041931253,1741898527.5200691
0.0245,0.126125,0.01275,-0.04234325,0.023940999,-0.01036075,-0.0405,-0.12275,0.132125,-0.0042725,0.041153,-0.03710925,1741898527.5313349
0.03475,0.120125,0.000375,-0.04090875,0.0187835,-0.0170135,-0.066375,-0.177375,0.118,0.023773251,0.0326995,-0.01882925,1741898527.5508218
0.0535,0.073375,-0.00625,-0.04055775,0.0057372497,-0.02804575,-0.0895,-0.230875,0.098875,0.028854249,0.03041075,-0.0087585,1741898527.560807
0.05725,0.046875,0.007625,-0.04302975,-0.002121,-0.03094475,-0.083875,-0.222,0.09025,0.029144252,0.03129575,-6.1000002e-05,1741898527.575454
0.0575,0.030625,0.023875,-0.04258725,-0.01345825,-0.0317535,-0.047125,-0.1515,0.069625,0.023956249,0.038558997,0.01228325,1741898527.590842
0.055375,0.011875,0.041875,-0.040512,-0.01725775,-0.031997748,-0.034875,-0.12075,0.061625,0.02348325,0.039382998,0.016388,1741898527.6110668
0.056875,0.001375,0.0445,-0.03996275,-0.026550248,-0.02996825,-0.031,-0.106875,0.049375,0.02719125,0.03331,0.02500925,1741898527.6189818
0.068375,-0.006375,0.049125,-0.038772497,-0.032043498,-0.026733499,-0.025375,-0.111125,0.000125,0.03022775,0.0262145,0.0314025,1741898527.6336849
0.075125,-0.014125,0.058625,-0.025772,-0.043273997,-0.020172002,-0.013875,-0.109875,-0.021,0.03562925,0.0057525,0.04319775,1741898527.650789
0.0725,-0.035,0.079375,-0.014510999,-0.045929,-0.01637275,0.01825,-0.082375,-0.0355,0.036300752,-0.00514225,0.045868002,1741898527.663179
0.073,-0.041875,0.0845,-0.0026245,-0.04830925,-0.0069274995,0.029625,-0.05975,-0.02925,0.03274525,-0.02339175,0.04429625,1741898527.6778061
0.0635,-0.037875,0.11275,-0.00083925005,-0.04927075,-0.0014037499,0.041625,-0.02375,-0.016125,0.02955625,-0.029449498,0.040634252,1741898527.692425
0.059125,-0.035125,0.136875,0.00163275,-0.04916375,0.004303,0.045625,-0.008,-0.015375,0.029129,-0.04391475,0.031845,1741898527.7110689
0.057,-0.025875,0.152375,0.01289375,-0.04435725,0.014297499,0.039,0.00375,-0.002625,0.025787251,-0.048568748,0.025466999,1741898527.721856
0.0445,0.009375,0.1605,0.02015675,-0.041137747,0.0170745,0.047375,0.018875,-0.00775,0.01582325,-0.05084225,0.01257325,1741898527.736341
0.036375,0.010375,0.173,0.030029248,-0.033249002,0.02180475,0.0435,0.048625,0.012875,0.0177155,-0.056091253,0.00585925,1741898527.7510002
0.025375,-0.02675,0.210375,0.034729,-0.026733499,0.026000999,0.027375,0.038875,0.04025,0.020691,-0.06457525,-0.008514499,1741898527.770825
0.019125,-0.035375,0.223875,0.04727175,-0.00975025,0.03891,-0.00425,0.002875,0.11,0.017135499,-0.064026,-0.0155030005,1741898527.77999
-0.001625,0.002875,0.232,0.05270375,-0.00160225,0.0446015,-0.016375,-0.020625,0.155375,0.011886501,-0.0604095,-0.02212525,1741898527.794813
-0.009375,0.032625,0.2275,0.05570975,0.0052642496,0.04756175,-0.017375,-0.059125,0.222875,-0.002243,-0.044235248,-0.033203,1741898527.811768
-0.0135,0.053875,0.225625,0.050491247,0.015228249,0.04550175,-0.00975,-0.073,0.226875,-0.010894749,-0.032852247,-0.0372925,1741898527.826077
-0.020375,0.06975,0.227375,0.042831503,0.019927999,0.042755,-0.0075,-0.088875,0.216,-0.028061,-0.0128175,-0.04090875,1741898527.839385
-0.025375,0.067125,0.23375,0.025512751,0.03067025,0.03677375,-0.0205,-0.1025,0.221875,-0.03724675,-0.0052337497,-0.040756248,1741898527.8541892
-0.040875,0.057875,0.234625,0.01548775,0.036743253,0.034484748,-0.024875,-0.094375,0.23425,-0.0554505,0.012054499,-0.041977,1741898527.8741918
-0.044125,0.059125,0.212,-0.0075225,0.046737753,0.03056325,-0.017625,-0.060875,0.23725,-0.061615,0.02197275,-0.04408275,1741898527.883735
-0.03225,0.08575,0.13825,-0.019317752,0.048584,0.027679501,-0.0025,-0.026875,0.231875,-0.051513746,0.034606997,-0.048477247,1741898527.898429
-0.021,0.1095,0.102625,-0.030655,0.04792775,0.022873,-0.011625,-0.039625,0.21025,-0.03224175,0.035446253,-0.04869075,1741898527.916276
-0.00125,0.135625,0.056125,-0.0484315,0.04176325,0.0068207504,-0.042625,-0.10225,0.1915,0.00953675,0.031601,-0.03901675,1741898527.9281092
0.002,0.13575,0.0505,-0.052856497,0.037704498,-0.002243,-0.085375,-0.20275,0.158,0.02056875,0.030746501,-0.030716,1741898527.942709
0.001375,0.125625,0.048625,-0.05201725,0.032714747,-0.017517,-0.084625,-0.21875,0.14125,0.0266265,0.03598025,-0.0136565,1741898527.957819
0.01325,0.09625,0.020375,-0.048278753,0.031433,-0.02301025,-0.0735,-0.20375,0.11,0.0256805,0.03970325,-0.006546,1741898527.978812
0.03175,0.08525,-0.000375,-0.037857,0.02528375,-0.0306855,-0.0725,-0.18225,0.0985,0.02064525,0.045837503,0.0048979996,1741898527.986582
0.059125,0.06575,-0.022625,-0.0325775,0.0196685,-0.03329475,-0.069875,-0.1335,0.078875,0.0172425,0.048019502,0.009017999,1741898528.001235
0.064,0.052625,-0.01975,-0.0275115,0.00543225,-0.036499,-0.064,-0.12625,0.047125,0.012680001,0.047104,0.019714251,1741898528.015711
0.064875,0.020875,0.0005,-0.026840251,-0.0020905002,-0.03663625,-0.035875,-0.12375,-0.017,0.0141755,0.040268,0.027298,1741898528.031224
0.063375,0.009625,0.01225,-0.026122998,-0.009491,-0.03598025,-0.016375,-0.119125,-0.031,0.01914975,0.02174375,0.037857,1741898528.051382
0.063125,0.000875,0.02325,-0.023528999,-0.024108998,-0.034057498,0.006,-0.107625,-0.02825,0.02034,0.012313751,0.040466253,1741898528.059524
0.06825,-0.016875,0.04625,-0.021484248,-0.03097525,-0.03262325,0.007,-0.098125,-0.02225,0.01985175,0.00378425,0.04211425,1741898528.074249
0.071625,-0.027625,0.0555,-0.0166625,-0.042282,-0.026428249,0.00725,-0.08375,-0.01925,0.01510625,-0.0090637505,0.043045,1741898528.0906172
0.06975,-0.0415,0.068,-0.013854999,-0.046752997,-0.02111825,0.015375,-0.044375,-0.01975,0.013214,-0.014663749,0.04208375,1741898528.111406
0.063875,-0.043625,0.08125,-0.0053709997,-0.05184925,-0.009903,0.021125,-0.03,-0.019375,0.014297499,-0.0270385,0.0375825,1741898528.118459
0.057125,-0.04325,0.117875,0.00062550005,-0.05201725,-0.0051880004,0.030125,-0.009,-0.01425,0.01911925,-0.03686525,0.03494275,1741898528.133091
0.05825,-0.03925,0.14125,0.013702501,-0.04756175,0.0032347501,0.014125,-0.0155,0.0135,0.016098,-0.050964247,0.028259251,1741898528.151149
0.06575,-0.048375,0.192375,0.01857,-0.042724498,0.0077210004,0.029,0.020375,0.034875,0.00845325,-0.046264753,0.023376498,1741898528.162196
0.075,-0.054625,0.19675,0.026062,-0.03132625,0.0207215,0.038125,0.0465,0.04125,0.010101249,-0.048339747,0.009552,1741898528.1766222
0.081375,-0.048625,0.18375,0.028900249,-0.027649,0.0275115,0.026375,0.032625,0.074875,0.0152435,-0.053115748,0.00239575,1741898528.191345
0.067875,-0.045875,0.1885,0.0317535,-0.024643,0.033493,0.019625,0.009875,0.08825,0.012634249,-0.05570975,-0.00968925,1741898528.210646
0.05,-0.04725,0.19375,0.04240425,-0.01475525,0.044067502,0.0065,-0.0325,0.122375,0.0065307496,-0.053421002,-0.01481625,1741898528.220855
0.015625,-0.041125,0.2115,0.045898497,-0.009002751,0.048766997,-0.00325,-0.042625,0.152125,-0.010238751,-0.0428925,-0.023956249,1741898528.235583
0.003875,-0.031875,0.221125,0.040802,0.001526,0.0557555,-0.019625,-0.03825,0.20775,-0.019714251,-0.034256,-0.0283355,1741898528.251261
-0.028,0.044875,0.22975,0.035049498,0.0065765,0.057983503,-0.017375,-0.022875,0.220875,-0.032043498,-0.01454175,-0.036239497,1741898528.271848
-0.04725,0.113875,0.235875,0.0228425,0.016388,0.050918497,-0.01175,-0.013125,0.237,-0.03300475,-0.0067597497,-0.03974925,1741898528.281434
-0.075375,0.16275,0.260625,0.01554875,0.0227355,0.04122925,-0.0195,-0.026375,0.247875,-0.02993775,0.00355525,-0.044051997,1741898528.296084
-0.076375,0.140375,0.24975,0.0066374997,0.03067025,0.03179925,-0.041375,-0.060625,0.251375,-0.02772525,0.00845325,-0.044555753,1741898528.313847
-0.06625,0.1145,0.22,-0.01440425,0.044189498,0.020874001,-0.044875,-0.069375,0.231875,-0.022338752,0.020401,-0.043716498,1741898528.3272378
-0.02625,0.095375,0.133875,-0.02648925,0.046402,0.0170745,-0.033,-0.06825,0.173375,-0.01968375,0.02563475,-0.043335,1741898528.3404422
-0.0115,0.1,0.095625,-0.052383497,0.04176325,0.00463875,-0.02925,-0.063875,0.161625,-0.013382,0.029831,-0.042511,1741898528.355913
-0.002125,0.113375,0.0485,-0.0605315,0.03778075,-0.0039825,-0.039375,-0.073625,0.153,-0.007553,0.03056325,-0.04190075,1741898528.370092
-0.00125,0.12225,0.02925,-0.061432,0.029998751,-0.0228425,-0.054,-0.100125,0.148875,0.0078735,0.031723,-0.036422748,1741898528.3848882
0.004375,0.1175,-0.008125,-0.0572815,0.025528,-0.03125,-0.07225,-0.15375,0.152,0.014572251,0.03291325,-0.030426001,1741898528.401624
0.018875,0.096,-0.022375,-0.05229175,0.0202485,-0.03756725,-0.06675,-0.15875,0.15075,0.02200325,0.03762825,-0.01728825,1741898528.419871
0.035125,0.071625,-0.02575,-0.037277248,0.009582501,-0.040847752,-0.05025,-0.153,0.124875,0.02389525,0.03996275,-0.012054499,1741898528.429117
0.04625,0.038875,-0.008875,-0.028686501,0.00543225,-0.039215,-0.048375,-0.155,0.104,0.02503975,0.0415955,-0.00723275,1741898528.4439738
0.049875,0.024375,0.0055,-0.020782499,-0.00570675,-0.036560003,-0.050125,-0.14775,0.065,0.023834249,0.043075502,0.00317375,1741898528.458679
0.0565,0.0065,0.03075,-0.019455,-0.012436,-0.035492,-0.0485,-0.137875,0.051375,0.02182,0.042984,0.00811775,1741898528.4795609
0.060625,-0.004875,0.032,-0.01820375,-0.0257415,-0.0329895,-0.0455,-0.1325,0.0395,0.0193635,0.03862,0.01794425,1741898528.487595
0.069375,-0.028625,0.038,-0.017852752,-0.0328065,-0.030029248,-0.034125,-0.13725,0.009375,0.019470248,0.034149252,0.0239105,1741898528.502207
0.071,-0.037125,0.048875,-0.0115967505,-0.044860747,-0.021484248,-0.02225,-0.134,-0.001,0.020172002,0.021514999,0.035461497,1741898528.516842
0.06925,-0.039375,0.06275,-0.0073242504,-0.048660252,-0.016540501,0.004875,-0.114125,-0.005,0.019439751,0.015029999,0.03891,1741898528.531322
0.066375,-0.028625,0.065875,0.00184625,-0.052063,-0.00737,0.014625,-0.102125,-0.006,0.0170135,0.002411,0.041869998,1741898528.551701
0.0645,-0.028125,0.088375,0.0061645,-0.05264275,-0.0036010002,0.0255,-0.0735,-0.009875,0.01670825,-0.00444025,0.042572,1741898528.56054
0.06075,-0.028625,0.108375,0.0101165,-0.05334475,0.00039675,0.0285,-0.056375,-0.00825,0.019195499,-0.01918025,0.041931253,1741898528.575316
0.05425,-0.029375,0.12525,0.01779175,-0.053009,0.0078735,0.03,-0.030875,0.00375,0.021514999,-0.026413,0.040283248,1741898528.591358
0.032375,-0.043,0.181,0.020523,-0.051941004,0.012542751,0.02875,-0.0235,0.014875,0.024841249,-0.03800975,0.03474425,1741898528.611448
0.024625,-0.051,0.22,0.025879,-0.042099,0.02442925,0.027875,-0.01025,0.038875,0.02452075,-0.04151925,0.03117375,1741898528.6189299
0.02625,-0.064625,0.263,0.0276185,-0.0332795,0.03096,0.02925,0.000125,0.047375,0.0229035,-0.044235248,0.027007999,1741898528.633423
0.025125,-0.05525,0.265,0.0305175,-0.01419075,0.04464725,0.032375,0.020375,0.048375,0.0185395,-0.04872125,0.01651,1741898528.651455
0.01425,-0.027375,0.240375,0.033325247,-0.00543225,0.05007925,0.03,0.017625,0.048,0.01617425,-0.05043025,0.0102235,1741898528.662427
0.002125,-0.016125,0.228375,0.0342865,0.00193775,0.054077253,0.023375,0.007875,0.05875,0.00874325,-0.0517425,-0.00198375,1741898528.676991
-0.019625,0.01075,0.225625,0.0235595,0.0122985,0.057494998,-0.0005,-0.02,0.12775,0.00364675,-0.05007925,-0.0075682504,1741898528.691781
-0.067875,0.097375,0.22375,0.0164795,0.0168,0.05488575,-0.010625,-0.02825,0.176375,-0.009430001,-0.03810125,-0.017181499,1741898528.7113621
-0.0775,0.11975,0.2215,0.0060272496,0.0267945,0.04287725,-0.008875,-0.014125,0.240375,-0.015274,-0.028183,-0.021514999,1741898528.721442
-0.073375,0.1325,0.20625,0.00048825,0.0321045,0.03695675,-0.002,-0.002875,0.250125,-0.0180665,-0.008255,-0.0303955,1741898528.736232
-0.0625,0.13025,0.18775,-0.0139770005,0.041336,0.026397752,-0.00275,-0.01175,0.2505,-0.015915,-0.00013725001,-0.034652747,1741898528.751185
-0.037125,0.120125,0.130375,-0.022643998,0.04356375,0.02085875,-0.005625,-0.0315,0.230875,-0.01200875,0.012039251,-0.0405885,1741898528.771477
-0.024,0.1145,0.098,-0.0314635,0.043518003,0.014679,-0.005625,-0.0755,0.17275,-0.012771499,0.01531975,-0.04176325,1741898528.780542
-0.013125,0.114625,0.070625,-0.045272753,0.037323,0.00080875,-0.008875,-0.09,0.1605,-0.01835625,0.020477248,-0.04176325,1741898528.7952871
-0.005125,0.12175,0.05225,-0.048477247,0.032776,-0.0069580004,-0.01725,-0.09975,0.15325,-0.0215455,0.0247955,-0.0417785,1741898528.8127859
-0.00825,0.114,0.062375,-0.044540502,0.027298,-0.021759002,-0.016375,-0.10025,0.148875,-0.0200805,0.03274525,-0.040969748,1741898528.825186
-0.013375,0.08575,0.0755,-0.0386505,0.0276185,-0.027007999,-0.031625,-0.132375,0.138625,-0.013793999,0.03367625,-0.03837575,1741898528.839912
-0.004875,0.069125,0.06775,-0.026397752,0.030655,-0.031021,-0.049,-0.165875,0.13625,0.00181575,0.030731251,-0.02645875,1741898528.855069
0.0285,0.050625,0.026875,-0.0219575,0.030655,-0.030365,-0.0675,-0.209125,0.12975,0.0072175004,0.030731251,-0.018097,1741898528.8757381
0.046875,0.04575,0.010625,-0.01622,0.022766002,-0.029007,-0.063375,-0.20375,0.119875,0.0097045,0.03462225,-0.0038299998,1741898528.884011
0.067,0.039375,0.010875,-0.013626001,0.015625,-0.02911375,-0.046875,-0.1575,0.10075,0.009521499,0.03683475,0.0016632499,1741898528.898628
0.067,0.032625,0.021125,-0.01454175,0.00054925,-0.030487,-0.03725,-0.131375,0.091625,0.01412975,0.038955748,0.011139,1741898528.921045
0.06925,0.0,0.039875,-0.01741025,-0.0058899997,-0.030075,-0.02325,-0.114625,0.05825,0.019027751,0.03762825,0.016021749,1741898528.929106
0.071625,-0.011125,0.047125,-0.02009575,-0.011810251,-0.02810675,-0.02025,-0.128125,0.03575,0.0256805,0.028686501,0.027862499,1741898528.94381
0.073,-0.01325,0.052625,-0.0218505,-0.02162175,-0.0213165,-0.007625,-0.14,0.009625,0.02490225,0.02288825,0.03341675,1741898528.9597309
0.072,-0.011875,0.060375,-0.02091975,-0.02537525,-0.0174865,-0.000375,-0.13025,0.005125,0.01719675,0.011749251,0.040069498,1741898528.980234
0.070125,-0.011375,0.06825,-0.01531975,-0.03038025,-0.00880425,0.015,-0.0895,-0.00075,0.0141145,0.0061339997,0.0415955,1741898528.9906318
0.077125,-0.01675,0.078625,-0.010727,-0.031356752,-0.00413525,0.02225,-0.068125,-0.00375,0.01289375,0.00035100002,0.0420075,1741898529.002337
0.084,-0.01725,0.078625,-0.00184625,-0.033798248,0.00617975,0.028125,-0.051125,-0.005375,0.013733,-0.01156625,0.03996275,1741898529.0170429
0.09275,-0.004625,0.086625,0.0016785001,-0.035827752,0.011031999,0.037,-0.02975,-0.0045,0.01496875,-0.01782225,0.037979253,1741898529.031878
0.089875,0.00725,0.099875,0.0070495,-0.03939825,0.01708975,0.03975,-0.022,-0.004875,0.01864625,-0.03038025,0.03306575,1741898529.0535412
0.067,0.0325,0.1355,0.00975025,-0.039779752,0.01763925,0.04225,-0.009625,0.0,0.020202748,-0.036438,0.030075,1741898529.061027
0.052,0.031875,0.157625,0.013046251,-0.03869625,0.01670825,0.0425,-0.002,0.009125,0.0201875,-0.045898497,0.022491502,1741898529.075544
0.039,0.0105,0.1845,0.022369498,-0.028427,0.01782225,0.036125,0.01125,0.047625,0.01914975,-0.04910275,0.017395,1741898529.091507
0.035375,-0.044125,0.222625,0.029663,-0.01893625,0.023285,0.03225,0.0115,0.069625,0.013382,-0.05131525,0.00570675,1741898529.1114528
0.0395,-0.05175,0.2245,0.043701246,0.00013725001,0.0399475,0.03,-0.000625,0.093625,0.008361749,-0.05039975,1.5250001e-05,1741898529.119335
0.022,0.015625,0.214875,0.04776,0.0067597497,0.04751575,0.025375,-0.012625,0.106375,-0.0040587503,-0.04650875,-0.010559,1741898529.134138
0.00325,0.069625,0.211,0.04635625,0.0156555,0.0494995,-0.00175,-0.04375,0.172,-0.01104725,-0.042663503,-0.0151215,1741898529.151531
-0.017625,0.11275,0.20675,0.04379275,0.0204925,0.044632,-0.012,-0.04625,0.20725,-0.02630625,-0.027832001,-0.02200325,1741898529.170753
-0.01775,0.113625,0.2085,0.04249575,0.026397752,0.03974925,-0.010875,-0.022875,0.2585,-0.032669,-0.018035999,-0.02537525,1741898529.178835
-0.01475,0.108875,0.2085,0.03984075,0.03878775,0.03262325,-0.003875,-0.01025,0.2705,-0.03718575,0.00125125,-0.0329285,1741898529.193532
-0.020125,0.086875,0.199375,0.0356445,0.0436555,0.029876752,0.007125,-0.006875,0.25825,-0.0355835,0.009277251,-0.036758497,1741898529.2126021
-0.02725,0.078875,0.188875,0.02034,0.0494385,0.025238002,0.005125,-0.019125,0.23475,-0.0318145,0.01985175,-0.042648252,1741898529.2230022
-0.03325,0.0715,0.146875,0.00962825,0.050277747,0.022873,-0.014,-0.048,0.203625,-0.03173825,0.02336125,-0.043945253,1741898529.237679
-0.028,0.076,0.11825,-0.0152435,0.0474395,0.0158385,-0.02,-0.049375,0.195,-0.032409754,0.0280305,-0.0449065,1741898529.252366
-0.00225,0.092625,0.067375,-0.026657,0.04379275,0.0106355,-0.01625,-0.064875,0.165375,-0.027862499,0.03816225,-0.0480805,1741898529.271765
0.0055,0.102125,0.055625,-0.043396,0.0341645,-0.001953,-0.024375,-0.098625,0.15175,-0.019042999,0.040328998,-0.047057997,1741898529.28196
0.012875,0.115625,0.039,-0.04704275,0.0308075,-0.008636501,-0.046,-0.1435,0.145875,-9.15e-05,0.03842175,-0.03553775,1741898529.296591
0.02125,0.1065,0.028125,-0.04733275,0.0283355,-0.015289251,-0.082625,-0.20675,0.1465,0.00393675,0.038849,-0.027587999,1741898529.313257
0.032625,0.08625,0.02325,-0.04721075,0.020584,-0.02616875,-0.08625,-0.212,0.14275,0.0054475004,0.04585275,-0.011612001,1741898529.327466
0.05525,0.04925,0.022625,-0.047881998,0.0155030005,-0.028946,-0.068875,-0.1705,0.117125,0.0065307496,0.04957575,-0.004303,1741898529.3407192
0.060625,0.036625,0.022,-0.0475005,0.00541675,-0.029358,-0.051,-0.135,0.095125,0.013549751,0.052795503,0.00737,1741898529.35531
0.068625,0.016875,0.02225,-0.04653925,0.0002595,-0.027954001,-0.00975,-0.087,0.039875,0.020599252,0.050583,0.012115501,1741898529.375943
0.075375,0.00725,0.025125,-0.04072575,-0.01020825,-0.023773251,0.002375,-0.094625,0.016125,0.03768925,0.03666675,0.02500925,1741898529.3848162
0.085375,-0.00325,0.03225,-0.0361175,-0.01573175,-0.021347,0.008125,-0.131125,-0.015875,0.04202275,0.02763375,0.033584498,1741898529.399348
0.089875,-0.008625,0.037375,-0.0285035,-0.026947001,-0.015747,0.012375,-0.128,-0.021375,0.03862,0.01077275,0.04585275,1741898529.4179819
0.08725,-0.012125,0.04125,-0.025879,-0.0321045,-0.011673001,0.032,-0.081125,-0.028625,0.035431,0.002884,0.048034754,1741898529.428446
0.08075,-0.009125,0.038875,-0.02360525,-0.03668225,-0.0070495,0.042,-0.054625,-0.030125,0.03125,-0.01177975,0.047805753,1741898529.443012
0.07325,-0.00875,0.0375,-0.017685,-0.044693,0.00308225,0.051,-0.018,-0.01625,0.03022775,-0.018158002,0.045761,1741898529.4593868
0.05525,-0.00825,0.051625,-0.012207,-0.0480805,0.008484,0.05025,-0.012375,-0.0065,0.027832001,-0.0290985,0.038513247,1741898529.472327
0.05025,-0.004125,0.068125,1.5250001e-05,-0.051956248,0.017273001,0.05725,0.010625,0.006375,0.0266265,-0.0341645,0.0344695,1741898529.4910169
0.045125,0.01325,0.11125,0.0056,-0.05207825,0.020172002,0.061875,0.02975,0.018625,0.02626025,-0.0395965,0.029876752,1741898529.501568
0.044625,0.023625,0.136125,0.015564,-0.0477295,0.02333075,0.056875,0.055,0.071,0.0246125,-0.0486755,0.01756275,1741898529.516276
0.0495,0.045875,0.17625,0.019699,-0.04353325,0.0240325,0.052375,0.058125,0.094375,0.021881001,-0.049942,0.01036075,1741898529.531876
0.04725,0.0555,0.192875,0.029907249,-0.0325775,0.02442925,0.04875,0.050875,0.0985,0.013641249,-0.047821,-0.003769,1741898529.551837
0.028,0.0665,0.221,0.039093,-0.025055,0.0248565,0.0245,-0.000875,0.09975,0.008316,-0.046630748,-0.00953675,1741898529.560027
0.0205,0.057375,0.225625,0.0505675,-0.016128499,0.0256195,0.01175,-0.018125,0.124125,-0.0067902496,-0.0395355,-0.019744748,1741898529.5747259
0.02025,0.03825,0.22275,0.065307505,0.0016785001,0.0290375,0.00625,0.00025,0.17225,-0.013931249,-0.0331115,-0.0252075,1741898529.590471
0.0355,0.000125,0.21375,0.064331,0.008484,0.032180753,0.00725,0.0115,0.194625,-0.021225,-0.019226,-0.037475497,1741898529.611074
0.03925,0.001,0.213125,0.05160525,0.017028749,0.038025003,0.010875,0.010375,0.240625,-0.022094749,-0.012054499,-0.04344175,1741898529.618717
0.0115,0.03575,0.220375,0.04768375,0.020813,0.03952025,0.0145,0.004625,0.25375,-0.02174375,0.002777,-0.052688498,1741898529.633247
-0.013375,0.073,0.222875,0.038757253,0.03094475,0.037841752,0.017625,-0.02725,0.24625,-0.020584,0.0091705,-0.05552675,1741898529.651464
-0.053375,0.119375,0.22225,0.0285035,0.0361785,0.032333247,0.018375,-0.053875,0.232,-0.0170745,0.01814275,-0.05688475,1741898529.662444
-0.054,0.111375,0.2135,0.017654499,0.04148875,0.025589,0.0115,-0.105875,0.196625,-0.01631175,0.02029425,-0.05549625,1741898529.6770382
-0.049375,0.089875,0.193375,-0.000534,0.051513746,0.0166625,-0.00075,-0.126,0.179,-0.017547501,0.023254499,-0.050063998,1741898529.691817
-0.021375,0.07025,0.117,-0.0075377496,0.05488575,0.015213001,-0.048875,-0.210625,0.145125,-0.0190735,0.025268499,-0.04574575,1741898529.7113988
-0.003625,0.083,0.078875,-0.021698,0.053329498,0.009933501,-0.068375,-0.239125,0.139,-0.022873,0.02769475,-0.0390625,1741898529.7213461
0.01875,0.111,0.05,-0.03009025,0.0486755,0.0031585,-0.06175,-0.184625,0.153625,-0.033783,0.03607175,-0.02336125,1741898529.73613
0.022875,0.097125,0.040375,-0.0411225,0.03948975,-0.0127105,-0.050375,-0.147125,0.160375,-0.034073003,0.041275002,-0.01782225,1741898529.7515242
0.03775,0.06225,0.01775,-0.047485247,0.03370675,-0.0174865,-0.0425,-0.1245,0.16075,-0.0168305,0.04641725,-0.007309,1741898529.772038
0.0455,0.04875,0.014125,-0.05979925,0.020934999,-0.024108998,-0.033125,-0.104625,0.136875,-0.00279225,0.04556275,-0.00033575002,1741898529.780496
0.0585,0.029125,0.010875,-0.060852002,0.01501475,-0.0251465,-0.0255,-0.1015,0.11275,0.0232085,0.03923025,0.0137635,1741898529.7949529
0.065375,0.030875,0.013875,-0.0588685,0.00924675,-0.0250245,-0.006125,-0.106125,0.064,0.03259275,0.035141,0.0198365,1741898529.81428
0.07,0.027375,0.01775,-0.05210875,-0.0027465,-0.0252075,0.0025,-0.1145,0.042125,0.0429535,0.026550248,0.03125,1741898529.823838
0.068,0.00575,0.03,-0.049621496,-0.0095672505,-0.02462775,0.017875,-0.112,0.0095,0.042648252,0.021881001,0.0368195,1741898529.8385742
0.0705,-0.00125,0.038125,-0.0410155,-0.021636998,-0.01950075,0.024375,-0.094625,-0.000375,0.037368752,0.009582501,0.04502875,1741898529.855642
0.08925,-0.01175,0.04,-0.0329285,-0.026062,-0.015808,0.03,-0.0575,-0.01175,0.03657525,0.00177,0.046554502,1741898529.867894
0.09275,-0.02075,0.037875,-0.01576225,-0.033798248,-0.0075377496,0.032375,-0.047875,-0.012,0.03627025,-0.013793999,0.045272753,1741898529.882567
0.09425,-0.036625,0.042,-0.0097045,-0.037490748,-0.002472,0.036375,-0.031875,0.003375,0.03367625,-0.01965325,0.043075502,1741898529.897366
0.09025,-0.028875,0.048375,0.0003815,-0.044662498,0.008865249,0.038875,-0.01925,0.010125,0.026886,-0.0283355,0.037277248,1741898529.918656
0.075875,0.001125,0.0695,0.0054932497,-0.0470885,0.013214,0.04525,0.008,0.015625,0.02507025,-0.03300475,0.033584498,1741898529.9263449
0.069625,0.01625,0.0855,0.010376001,-0.048462003,0.01634225,0.050625,0.023125,0.016,0.023940999,-0.037857,0.029296748,1741898529.940812
0.065,0.0335,0.099625,0.019134501,-0.0477905,0.01857,0.060625,0.05925,0.030375,0.02224725,-0.04733275,0.0177155,1741898529.960106
0.05875,0.045375,0.12675,0.023940999,-0.046402,0.017685,0.05925,0.067,0.04875,0.0212555,-0.0507965,0.009903,1741898529.970598
0.052,0.033625,0.1525,0.042678747,-0.03952025,0.01693725,0.0545,0.062875,0.067125,0.016967751,-0.05334475,-0.00671375,1741898529.990609
0.039875,-0.013375,0.2035,0.056518503,-0.032196,0.0193635,0.030375,0.013,0.106375,0.013000499,-0.052780252,-0.013626001,1741898529.998942
0.04375,-0.036375,0.21525,0.070282,-0.016113251,0.03117375,0.017125,-0.020625,0.131125,-0.001892,-0.045761,-0.02360525,1741898530.01362
0.05075,-0.027875,0.2425,0.0650025,-0.010009751,0.037857,0.00625,-0.056,0.170625,-0.012771499,-0.039306752,-0.02722175,1741898530.031949
0.038625,-0.011375,0.2575,0.05859375,-0.00399775,0.041504003,0.001375,-0.05875,0.187875,-0.038849,-0.02241525,-0.03329475,1741898530.050698
-0.013,0.016875,0.279125,0.04331975,0.010009751,0.04208375,0.00425,-0.0305,0.220125,-0.0519105,-0.0124665005,-0.0362855,1741898530.057857
-0.039875,0.052625,0.29225,0.033966,0.018432502,0.042282,0.016,-0.0035,0.23075,-0.06593325,0.0059510004,-0.04306025,1741898530.073335
-0.060375,0.088125,0.294625,0.020691,0.038452253,0.03822325,0.036625,0.03025,0.243875,-0.06254575,0.01210025,-0.04623425,1741898530.092756
-0.07925,0.11675,0.263875,0.013793999,0.048049998,0.0338135,0.033875,0.02025,0.24525,-0.038940497,0.01646425,-0.05055225,1741898530.101978
-0.079125,0.10975,0.233375,0.00488275,0.065384,0.027007999,0.000125,-0.0545,0.225375,-0.026245002,0.0169525,-0.050536998,1741898530.116529
-0.04225,0.073,0.156375,0.0038299998,0.07286075,0.025512751,-0.024125,-0.103,0.2065,-0.01469425,0.01896675,-0.044326752,1741898530.1314209
-0.01675,0.058625,0.10075,-0.013626001,0.07722475,0.019226,-0.063,-0.171625,0.183,-0.01655575,0.022232,-0.03886425,1741898530.151795
0.0075,0.05375,0.024375,-0.030365,0.07023625,0.01469425,-0.070125,-0.16825,0.185125,-0.0214385,0.03456125,-0.028716998,1741898530.161023
0.01525,0.0785,0.01075,-0.043686002,0.0609895,0.0095672505,-0.067625,-0.121625,0.193375,-0.019027751,0.0418395,-0.0245515,1741898530.175722
0.024625,0.09,-0.006125,-0.0542145,0.04470825,-0.0068055,-0.0615,-0.108875,0.182125,-0.012267999,0.048034754,-0.01968375,1741898530.191128
0.054375,0.073125,-0.030625,-0.0576325,0.03622425,-0.014007499,-0.0455,-0.105375,0.134,0.0085602505,0.050674498,-0.00662225,1741898530.2112582
0.068375,0.057875,-0.029,-0.06130975,0.020202748,-0.021179251,-0.03375,-0.109625,0.10625,0.019195499,0.047805753,0.00054925,1741898530.219626
0.0795,0.0415,-0.021375,-0.060287498,0.013443,-0.021560749,-0.0205,-0.115875,0.080125,0.034118753,0.0395355,0.01396175,1741898530.234265
0.0795,0.046375,-0.017375,-0.0544585,0.0003815,-0.023101749,-0.00275,-0.120875,0.046625,0.037674,0.03506475,0.020019501,1741898530.2520509
0.079875,0.03775,-0.000875,-0.0503235,-0.0068665,-0.0249635,-0.000625,-0.109625,0.0415,0.0397645,0.0267945,0.029892,1741898530.2634811
0.079375,0.025875,0.0115,-0.04122925,-0.021881001,-0.025940001,0.00125,-0.081,0.034,0.0382385,0.0236665,0.033432,1741898530.27795
0.081625,-0.00075,0.02225,-0.0359345,-0.02804575,-0.024108998,0.010125,-0.06625,0.020125,0.033584498,0.015533499,0.03952025,1741898530.2937531
0.0865,-0.0145,0.018625,-0.02977,-0.0332795,-0.020904498,0.03575,-0.038375,-0.015125,0.03302,0.008850001,0.04122925,1741898530.314301
0.09175,-0.03175,0.020125,-0.01725775,-0.044235248,-0.01194775,0.04425,-0.027125,-0.02025,0.03211975,-0.00637825,0.040466253,1741898530.32182
0.08775,-0.032875,0.030875,-0.01077275,-0.049652,-0.0072175004,0.051125,-0.007125,-0.00075,0.03009025,-0.01257325,0.03793325,1741898530.336576
0.083125,-0.03225,0.040875,0.0014037499,-0.056259252,0.0008545,0.05275,0.000375,0.01225,0.02734375,-0.023117,0.031662002,1741898530.356033
0.0735,-0.01975,0.05275,0.006836,-0.05836475,0.0045777503,0.050625,0.008125,0.042625,0.02760325,-0.02819825,0.02838125,1741898530.365838
0.067,-0.003125,0.063125,0.01841725,-0.06198125,0.009201,0.0495,0.01475,0.059375,0.0283355,-0.03515625,0.020218,1741898530.380269
0.0565,0.01125,0.11125,0.022643998,-0.06185925,0.0094604995,0.053125,0.033,0.078875,0.028015248,-0.03660575,0.0147705,1741898530.397641
0.054,0.008625,0.136875,0.028839001,-0.05708325,0.0101775,0.0575,0.035875,0.07725,0.02702325,-0.036972,0.008545,1741898530.409406
0.05375,-0.01825,0.189,0.032852247,-0.052795503,0.011734,0.0615,0.033375,0.0715,0.02301025,-0.03660575,-0.0048065,1741898530.4241679
0.05575,-0.03275,0.21225,0.0377655,-0.047012247,0.015029999,0.06475,0.021875,0.069375,0.0206605,-0.03701775,-0.011398249,1741898530.439389
0.050375,-0.041875,0.245125,0.048477247,-0.03161625,0.02525325,0.0615,0.009625,0.07875,0.014206001,-0.037475497,-0.02388,1741898530.453242
0.04375,-0.04625,0.253375,0.050171003,-0.023117,0.030151252,0.03725,-0.048375,0.096625,0.00794975,-0.036620997,-0.02879325,1741898530.471227
0.034875,-0.038125,0.26,0.043762248,-0.00662225,0.0396575,0.021625,-0.080875,0.11075,-0.01475525,-0.032470748,-0.031692497,1741898530.482744
0.006875,0.008875,0.25875,0.042419497,0.0019989999,0.042801,0.011,-0.077625,0.156875,-0.03025825,-0.02781675,-0.0309905,1741898530.497529
-0.015,0.044875,0.259875,0.0283965,0.016693002,0.04261775,0.0095,-0.04775,0.18425,-0.060592752,-0.012375,-0.035202,1741898530.512347
-0.047125,0.08525,0.266875,0.024505502,0.02519225,0.038925253,0.017875,0.00825,0.218875,-0.07144175,-0.0030365,-0.0398255,1741898530.530957
-0.051875,0.087875,0.263375,0.014145001,0.04167175,0.03152475,0.030875,0.031875,0.226,-0.07124325,0.01368725,-0.047530998,1741898530.5417159
-0.069125,0.09525,0.234125,0.0065155,0.04898075,0.02854925,0.048,0.04025,0.225,-0.0576935,0.01800525,-0.050125,1741898530.55634
-0.062875,0.0945,0.195625,0.00045775,0.056427,0.025879,0.04125,0.006,0.22375,-0.0193635,0.014663749,-0.048874002,1741898530.5710201
-0.049,0.086875,0.14775,-0.014510999,0.064926244,0.01879875,-0.00125,-0.075375,0.215375,-0.0054932497,0.011734,-0.045227002,1741898530.590828
-0.008375,0.0855,0.06125,-0.0226745,0.065918,0.01351925,-0.01775,-0.10225,0.20575,0.0026245,0.01525875,-0.03819275,1741898530.600479
0.016375,0.07475,0.016,-0.04544075,0.0542145,0.00054925,-0.032125,-0.12225,0.181125,0.00109875,0.02067575,-0.0355835,1741898530.615166
0.029625,0.08075,-0.002375,-0.05789175,0.0432435,-0.0047302498,-0.038125,-0.126,0.172875,0.002243,0.029846251,-0.02896125,1741898530.6319308
0.032,0.087875,0.001125,-0.074356005,0.025848499,-0.01820375,-0.057375,-0.14,0.164375,0.0055237496,0.032959,-0.02275075,1741898530.651365
0.04625,0.067625,-0.002375,-0.074844256,0.0204925,-0.02445975,-0.05775,-0.1365,0.15625,0.0094604995,0.034973253,-0.01496875,1741898530.659266
0.0545,0.055875,-0.003,-0.07197575,0.016037,-0.02796925,-0.04825,-0.126375,0.143,0.018814,0.034911998,-0.000412,1741898530.673963
0.063,0.04375,-0.005375,-0.06451425,0.0064239996,-0.02793875,-0.017375,-0.102875,0.10725,0.0237275,0.03329475,0.00488275,1741898530.690728
0.072125,0.035625,-0.007875,-0.059600748,-0.0003815,-0.025528,-0.005625,-0.097625,0.08775,0.03331,0.027862499,0.013626001,1741898530.711126
0.07475,0.03525,-0.006625,-0.047165003,-0.01652525,-0.0211945,0.006625,-0.099125,0.050875,0.03800975,0.024108998,0.01829525,1741898530.71774
0.073875,0.02425,-0.00375,-0.041031,-0.0250245,-0.019897498,0.01,-0.0995,0.03625,0.045456,0.014572251,0.02708425,1741898530.732262
0.073625,0.011,-0.00075,-0.028778,-0.04025275,-0.01655575,0.01325,-0.090875,0.0225,0.04727175,0.008651749,0.030746501,1741898530.752073
0.076,-0.015375,0.019,-0.02262875,-0.046584997,-0.0135955,0.01825,-0.084625,0.01475,0.044555753,-0.00216675,0.035827752,1741898530.761406
0.077625,-0.024625,0.03375,-0.00982675,-0.05537425,-0.0053709997,0.030625,-0.067,0.006625,0.0408325,-0.00738525,0.03677375,1741898530.7760582
0.076,-0.02325,0.059,-0.00372325,-0.057846002,-0.00027475,0.03475,-0.05625,0.009875,0.0328675,-0.01664725,0.034546003,1741898530.794176
0.0705,-0.010625,0.076125,0.0074615004,-0.06056225,0.00852975,0.036625,-0.036125,0.0215,0.02893075,-0.0205535,0.032013,1741898530.8052711
0.0515,0.021375,0.117,0.013153,-0.06011975,0.010849,0.037375,-0.02625,0.025125,0.023040751,-0.027740499,0.026672252,1741898530.8198369
0.044625,0.032875,0.13325,0.018707251,-0.058136,0.0119630005,0.04225,-0.008375,0.026625,0.021927001,-0.03170775,0.02354425,1741898530.835776
0.0385,0.041625,0.1535,0.032470748,-0.050644003,0.011901749,0.043,-0.0005,0.02925,0.02142325,-0.035888746,0.019592252,1741898530.8566542
0.027375,0.04175,0.19825,0.04393,-0.04403675,0.011383001,0.044875,0.013,0.04125,0.0179595,-0.04158025,0.009872501,1741898530.863563
0.027625,0.030375,0.21025,0.0749055,-0.0254365,0.014068499,0.047375,0.020125,0.051625,0.01469425,-0.042846747,0.00453175,1741898530.8781812
0.040625,0.002875,0.20375,0.08442675,-0.0168,0.01753225,0.050875,0.0245,0.0645,0.0091705,-0.04379275,-0.0072480002,1741898530.8982139
0.04525,0.008125,0.200875,0.07972725,-0.00665275,0.02186575,0.056,0.01,0.089,0.00697325,-0.043518003,-0.013443,1741898530.907565
0.03025,0.006,0.236125,0.06808475,-0.0021515,0.0227355,0.0515,-0.009,0.101125,-0.000763,-0.04145825,-0.024536248,1741898530.922358
0.016875,0.058375,0.266625,0.05897525,0.0057220003,0.0256805,0.02275,-0.05725,0.125625,-0.00801075,-0.03952025,-0.028534,1741898530.940137
0.012875,0.07275,0.26975,0.07646175,0.031570498,0.01930225,0.004875,-0.074375,0.14375,-0.0321045,-0.032394502,-0.031967252,1741898530.951966
0.007,-0.04175,0.268375,0.089202754,0.04293825,0.01705925,-0.014375,-0.064875,0.19025,-0.04724125,-0.02592475,-0.032547,1741898530.9711082
-0.001,-0.081375,0.27975,0.0588685,0.05897525,0.029251,-0.01125,-0.04325,0.209375,-0.0752715,-0.0074004997,-0.036728002,1741898530.9815848
-0.037125,-0.061125,0.253625,0.027771,0.065032996,0.03701775,0.00625,0.006,0.23175,-0.08491525,0.00239575,-0.040099997,1741898530.9963388
-0.041375,-0.03675,0.21875,0.00213625,0.074005246,0.0466155,0.0165,0.036875,0.238,-0.085907,0.018707251,-0.047577,1741898531.011035
-0.014625,-0.004375,0.1205,-0.0072937496,0.07554625,0.047805753,0.03725,0.072875,0.237375,-0.072357245,0.022064252,-0.0520935,1741898531.0325062
-0.005625,0.02425,0.06975,-0.018463248,0.074935995,0.046584997,0.02525,0.052,0.2355,-0.025390498,0.018020751,-0.05447375,1741898531.040368
0.008125,0.043625,0.028,-0.040863,0.06274425,0.033493,-0.029125,-0.021625,0.232625,-0.0042725,0.01519775,-0.052047748,1741898531.0550342
0.027375,0.054875,-0.002875,-0.04733275,0.05210875,0.025772,-0.05375,-0.0675,0.227375,0.02180475,0.016540501,-0.04312125,1741898531.07182
0.031125,0.054625,-0.005,-0.0470885,0.03575125,0.014618,-0.0845,-0.14075,0.203125,0.028594999,0.019897498,-0.03663625,1741898531.091866
0.045625,0.0625,-0.039375,-0.05078125,0.02993775,0.010879501,-0.088875,-0.159125,0.186625,0.035873502,0.028244,-0.02159125,1741898531.099374
0.05875,0.0715,-0.04625,-0.04939275,0.016570998,0.00193775,-0.09625,-0.188375,0.14975,0.0372925,0.032333247,-0.013733,1741898531.1140008
0.07625,0.066125,-0.03225,-0.03521725,0.01412975,-0.003952,-0.09725,-0.18475,0.13325,0.03710925,0.03572075,-0.00570675,1741898531.132294
0.087875,0.02825,-0.039625,-0.017120251,0.014145001,-0.007965,-0.068375,-0.144125,0.093625,0.03500375,0.03964225,0.009842,1741898531.143324
0.097375,0.0145,-0.06475,-0.0237885,0.0002135,-0.0041044997,-0.046625,-0.133,0.067125,0.034546003,0.0394745,0.016418502,1741898531.157923
0.096875,0.05275,-0.039125,-0.05245975,-0.0183715,-0.0045625,-0.029625,-0.131375,0.0435,0.0344695,0.03262325,0.02854925,1741898531.17246
0.091625,0.05825,-0.01175,-0.072357245,-0.042755,-0.01136775,-0.011625,-0.116875,0.024625,0.0343475,0.027542,0.034027,1741898531.192018
0.078375,0.058875,0.013625,-0.061798,-0.04841625,-0.013503999,-0.005375,-0.102375,0.02175,0.032943748,0.0178985,0.042221002,1741898531.2016718
0.071,0.048,0.013625,-0.040649503,-0.0573425,-0.014800999,0.00375,-0.077,0.0105,0.031021,0.012176501,0.045410253,1741898531.2161632
0.058375,0.031,0.033,-0.03970325,-0.06416325,-0.01322925,0.009875,-0.064375,0.00125,0.0243225,0.00093075,0.047943,1741898531.2337248
0.0525,0.03175,0.054875,-0.02418525,-0.0703125,-0.009140001,0.02575,-0.0335,-0.010375,0.02053825,-0.00434875,0.04692075,1741898531.253797
0.046375,0.02975,0.083875,-0.00985725,-0.069107,-0.0080872495,0.03125,-0.017875,-0.008375,0.017120251,-0.016021749,0.041977,1741898531.2599318
0.045375,0.02525,0.093625,0.0033570002,-0.06710825,-0.00764475,0.031625,-0.008375,0.006625,0.015304499,-0.021087749,0.038498,1741898531.275285
0.048125,-0.008875,0.11825,0.0203705,-0.062973,-0.00662225,0.030625,-0.007875,0.01375,0.009002751,-0.02822875,0.03202825,1741898531.295703
0.051,-0.027875,0.137,0.0257415,-0.06074525,-0.0043182503,0.029375,0.001125,0.036,0.0072937496,-0.03164675,0.029068,1741898531.303586
0.05375,-0.042,0.159125,0.03176875,-0.0550995,0.00289925,0.0265,0.003,0.05475,0.0065917503,-0.03492725,0.0259095,1741898531.31835
0.058875,-0.054125,0.21175,0.032547,-0.051239,0.00694275,0.024125,0.005375,0.082125,0.0012817499,-0.03756725,0.018875,1741898531.3375192
0.057625,-0.05525,0.226,0.027679501,-0.040573,0.0157165,0.029125,0.00475,0.0845,-0.00428775,-0.03668225,0.01490775,1741898531.3476648
0.02925,-0.0325,0.24325,0.020202748,-0.03515625,0.020218,0.038375,0.00125,0.081375,-0.01634225,-0.03433225,0.007019,1741898531.36228
0.014375,-0.016375,0.25525,0.0194245,-0.019333,0.028015248,0.059875,-0.00225,0.071875,-0.021286,-0.03433225,0.00334175,1741898531.380074
0.00525,-0.020375,0.263375,0.02690125,-0.0085755,0.03059375,0.062625,-0.00125,0.081375,-0.02949525,-0.036422748,-0.0040587503,1741898531.399821
0.006625,-0.03325,0.2585,0.0313415,0.00238025,0.034011748,0.051,0.006,0.12925,-0.033462502,-0.0364685,-0.007431,1741898531.406358
-0.009,0.017625,0.251125,0.024780251,0.018875,0.04270925,0.0465,0.019625,0.153375,-0.03933725,-0.033325247,-0.01351925,1741898531.421309
-0.02175,0.043125,0.2455,0.018463248,0.024810748,0.042801,0.049375,0.054125,0.19625,-0.04011525,-0.030761749,-0.01705925,1741898531.4360719
-0.032875,0.063125,0.23625,0.0095672505,0.036255002,0.038437,0.051375,0.063,0.209125,-0.0391235,-0.02462775,-0.024947999,1741898531.451224
-0.038375,0.106,0.201625,0.0068207504,0.041977,0.03607175,0.045875,0.071625,0.2185,-0.0385285,-0.021606501,-0.028747499,1741898531.4721391
-0.039875,0.129125,0.179125,-0.00163275,0.050888002,0.0264435,0.040375,0.0755,0.222,-0.03575125,-0.0151215,-0.03752125,1741898531.479979
-0.03925,0.12825,0.1345,-0.0060272496,0.0541535,0.019104,0.015,0.052375,0.234,-0.03408825,-0.0113525,-0.042358503,1741898531.494565
-0.023,0.11625,0.101625,-0.012695249,0.057907,0.0058899997,-0.002125,0.032375,0.242875,-0.035492,0.00175475,-0.04933175,1741898531.511343
0.010125,0.094625,0.041625,-0.018585252,0.054565497,7.625e-05,-0.033875,-0.026125,0.248625,-0.037979253,0.0105742505,-0.050766,1741898531.5309281
0.012125,0.10375,0.028625,-0.02500925,0.048294,-0.0051574996,-0.0525,-0.069875,0.243625,-0.045837503,0.026702998,-0.048034754,1741898531.538893
0.011375,0.11325,0.023,-0.031479,0.035293497,-0.0178985,-0.074,-0.13025,0.229875,-0.05336,0.034195,-0.0451965,1741898531.553782
0.01975,0.09775,0.02,-0.03059375,0.03012075,-0.02456675,-0.075125,-0.12375,0.228875,-0.073593244,0.0506135,-0.04173275,1741898531.574065
0.027,0.08225,0.020875,-0.02565,0.021347,-0.033432,-0.05525,-0.046625,0.22775,-0.080184996,0.06044,-0.042251498,1741898531.584655
0.042375,0.051625,0.03,-0.016876249,0.019333,-0.036193747,-0.03725,-0.000125,0.223375,-0.070343,0.0756225,-0.04556275,1741898531.598208
0.0515,0.02,0.011125,-0.0052185003,0.016159,-0.0376435,-0.028,0.045375,0.2035,-0.05581675,0.077133246,-0.0466155,1741898531.612868
0.063125,-0.000375,0.006875,-0.0166625,0.00579825,-0.03601075,-0.02625,0.05625,0.19475,-0.0394135,0.075805746,-0.046692003,1741898531.63125
0.063375,-0.00275,0.016625,-0.027954001,-0.0040435,-0.035461497,-0.027125,0.057,0.1675,-0.004547,0.0724945,-0.04420475,1741898531.6420531
0.06175,-0.00375,0.02225,-0.03512575,-0.01849375,-0.03509525,-0.03325,0.0425,0.145125,0.0114744995,0.0716095,-0.043090753,1741898531.6567261
0.05925,-0.011125,0.040125,-0.03329475,-0.024643,-0.03477475,-0.037875,0.0155,0.114875,0.03508,0.07133475,-0.04037475,1741898531.671977
0.059875,-0.018375,0.056,-0.025299,-0.034423754,-0.03256225,-0.03725,-0.076625,0.031,0.04240425,0.06929025,-0.035293497,1741898531.691624
0.067875,-0.04,0.081625,-0.01794425,-0.03663625,-0.03038025,-0.026375,-0.11975,-0.0045,0.04562375,0.06039425,-0.01454175,1741898531.7009962
0.07525,-0.049875,0.07925,-0.0072785,-0.04055775,-0.0213165,0.022625,-0.13875,-0.0615,0.042251498,0.054138247,-0.00254825,1741898531.71557
0.08025,-0.038875,0.0755,-0.00460825,-0.043396,-0.01643375,0.044125,-0.124125,-0.070625,0.029266251,0.03262325,0.018432502,1741898531.732503
0.075,-0.033125,0.08025,0.0016785001,-0.047668498,-0.0090637505,0.056125,-0.0605,-0.038875,0.02244575,0.023285,0.0254975,1741898531.744965
0.0625,-0.04475,0.10325,0.0053252503,-0.048584,-0.0058287503,0.058,-0.025875,-0.016875,0.01519775,0.0134735005,0.0314635,1741898531.759485
0.061375,-0.058,0.115125,0.0114744995,-0.049179003,0.00245675,0.0655,0.026625,0.006375,0.017425502,0.010437001,0.03341675,1741898531.7748952
0.065875,-0.074375,0.137375,0.012832751,-0.049209498,0.0074920002,0.073625,0.0365,0.00525,0.02787775,-0.00146475,0.037033,1741898531.795576
0.065375,-0.071,0.15025,0.013382,-0.0489045,0.012619001,0.07525,0.039625,0.003125,0.03202825,-0.0095672505,0.03987125,1741898531.803052
0.062,-0.06575,0.1695,0.0141755,-0.045516998,0.020691,0.075625,0.034875,-0.002125,0.0454865,-0.02401725,0.041320752,1741898531.8176708
0.043,-0.066875,0.2095,0.015625,-0.0412445,0.02439875,0.08725,0.026625,-0.006625,0.05134575,-0.033462502,0.03857425,1741898531.837425
0.02875,-0.070375,0.222375,0.017852752,-0.028,0.034256,0.084625,0.03,-0.002125,0.05451975,-0.042724498,0.03575125,1741898531.846663
0.002375,-0.055375,0.24575,0.01690675,-0.01988225,0.040268,0.080125,0.036625,0.01025,0.0572815,-0.057006747,0.030151252,1741898531.861175
-0.0115,-0.0345,0.25275,0.020172002,-0.00119025,0.04924,0.071125,0.0485,0.0485,0.05799875,-0.06210325,0.02630625,1741898531.878946
-0.03425,0.039875,0.243375,0.02412425,0.0081635,0.051513746,0.069625,0.0515,0.064,0.055724997,-0.06941225,0.016845752,1741898531.890102
-0.0335,0.057375,0.22925,0.025665252,0.01628125,0.051025502,0.0715,0.052625,0.090875,0.052185003,-0.07193,0.01133725,1741898531.904566
-0.02825,0.066125,0.22325,0.02006525,0.0282135,0.046325747,0.07425,0.056375,0.107375,0.039505,-0.069122255,0.000534,1741898531.920835
-0.023875,0.077,0.21275,0.021026501,0.03456125,0.043289248,0.087625,0.083125,0.129625,0.0314025,-0.06596375,-0.00520325,1741898531.933917
-0.0335,0.088625,0.2095,0.019287001,0.04623425,0.03775025,0.08875,0.085125,0.12025,0.017044,-0.062088,-0.01747125,1741898531.9510741
-0.06025,0.097375,0.209875,0.014343251,0.05169675,0.033141997,0.065625,0.082,0.11225,0.009903,-0.0616455,-0.02363575,1741898531.964331
-0.056875,0.080375,0.1955,0.0028229998,0.06393425,0.024383498,0.047375,0.09025,0.126375,-0.0020752498,-0.0602265,-0.0360565,1741898531.97774
-0.017,0.039,0.13,-0.00694275,0.067123495,0.021362249,0.014875,0.10425,0.172375,-0.0053252503,-0.057189997,-0.04214475,1741898531.992374
-0.00575,0.044,0.098625,-0.0168305,0.06732175,0.02012625,0.00575,0.099625,0.198,-0.0072632497,-0.0516205,-0.04806525,1741898532.011795
-0.00225,0.068,0.070625,-0.032135,0.062713504,0.01564025,-0.028625,0.0465,0.26225,-0.009796251,-0.03645325,-0.058792,1741898532.0218801
0.006,0.107,0.018375,-0.03752125,0.05833425,0.0085602505,-0.0485,0.002125,0.284125,-0.01071175,-0.0272065,-0.06118775,1741898532.036594
0.019625,0.105125,-0.00025,-0.04167175,0.045654252,-0.009719751,-0.053875,-0.036125,0.289625,-0.012756251,-0.00593575,-0.059021,1741898532.05312
0.05,0.0815,-0.01625,-0.04037475,0.03854375,-0.01678475,-0.033875,-0.060875,0.263375,-0.0135345,0.003296,-0.05717475,1741898532.074795
0.06175,0.07025,-0.014625,-0.030716,0.02626025,-0.02449025,-0.027625,-0.05475,0.25275,-0.01187125,0.0149535,-0.055007998,1741898532.08115
0.0795,0.0385,-0.00025,-0.019455,0.02224725,-0.026550248,-0.055375,-0.05775,0.248875,-0.00842275,0.019516,-0.0536195,1741898532.096048
0.08275,0.01175,-0.011125,-0.00579825,0.015457249,-0.027130252,-0.075875,-0.07,0.2445,0.0014495,0.029663,-0.04707325,1741898532.1115782
0.077125,0.003875,0.0045,-0.0180665,0.0057525,-0.02680975,-0.097125,-0.092625,0.233,0.006668,0.034546003,-0.041366503,1741898532.130667
0.073625,0.001625,0.026125,-0.0285035,-0.0029145,-0.027526751,-0.09825,-0.092125,0.22775,0.019455,0.04373175,-0.028411752,1741898532.140395
0.069,-0.006125,0.065125,-0.031021,-0.01289375,-0.02781675,-0.08525,-0.080125,0.190125,0.027252251,0.049087502,-0.02388,1741898532.154986
0.06625,-0.01675,0.08525,-0.02742,-0.015289251,-0.027252251,-0.073625,-0.078375,0.157875,0.0410155,0.056762747,-0.01643375,1741898532.1710951
0.065375,-0.02575,0.099625,-0.01814275,-0.015747,-0.023254499,-0.062,-0.099625,0.09775,0.04600525,0.0577545,-0.0115205,1741898532.1917472
0.0695,-0.02175,0.10225,-0.014282251,-0.014846751,-0.01994325,-0.06125,-0.120875,0.067125,0.0499725,0.055724997,0.00216675,1741898532.199102
0.075375,-0.018,0.092625,-0.0064239996,-0.013626001,-0.0135345,-0.045125,-0.155,0.00275,0.047057997,0.0524445,0.0102845,1741898532.213685
0.091125,-0.023375,0.066,-0.003128,-0.014557,-0.01071175,-0.030375,-0.160875,-0.016125,0.03259275,0.040573,0.02708425,1741898532.233578
0.095875,-0.0285,0.054375,0.00016775,-0.02056875,-0.00520325,-0.0015,-0.13125,-0.0045,0.024643,0.033462502,0.0341645,1741898532.242987
0.101125,-0.04,0.053125,0.0001525,-0.02522275,-0.0028535,0.002375,-0.10225,0.00975,0.0154115,0.023056,0.041977,1741898532.2574148
0.10075,-0.04675,0.06,-0.00163275,-0.034484748,0.00163275,-0.004875,-0.052125,0.034125,0.014862,0.01864625,0.044051997,1741898532.275002
0.097125,-0.056875,0.0845,-0.0021819999,-0.037902746,0.00463875,-0.009,-0.03875,0.0375,0.015289251,0.0149995005,0.04599,1741898532.28671
0.095375,-0.058125,0.10125,-0.00169375,-0.0397645,0.0085602505,0.00925,-0.01225,0.018,0.015594499,0.009017999,0.05131525,1741898532.301281
0.093,-0.052625,0.118125,0.00416575,-0.0381165,0.018158002,0.025,-0.001375,0.00625,0.0155030005,0.00411975,0.05281075,1741898532.316889
0.0885,-0.02975,0.151125,0.008788999,-0.0352325,0.022216748,0.03825,0.0095,-0.002875,0.016998248,-0.009582501,0.051925752,1741898532.337791
0.0825,-0.02275,0.165375,0.015533499,-0.0272065,0.02796925,0.051875,0.023875,-0.004,0.02009575,-0.0174865,0.04982,1741898532.3448792
0.075,-0.00575,0.182125,0.018753,-0.022049,0.03034975,0.04975,0.020875,0.004375,0.0246125,-0.031372,0.045181252,1741898532.3594398
0.0765,0.001,0.19025,0.024826,-0.011306751,0.033370998,0.0475,0.0205,0.024875,0.0255585,-0.036331248,0.043105997,1741898532.379436
0.06975,0.020375,0.208,0.02563475,-0.00555425,0.03408825,0.048125,0.022125,0.043875,0.02418525,-0.04335025,0.036148,1741898532.38843
0.061125,0.04425,0.21375,0.0275115,0.0063934997,0.0321045,0.0565,0.044125,0.094875,0.02041625,-0.043899503,0.0315095,1741898532.406992
0.047875,0.054,0.205875,0.031036502,0.0118407495,0.02940375,0.068125,0.065125,0.1215,0.0112305,-0.0430145,0.019042999,1741898532.4173
0.04275,0.050875,0.2075,0.0324555,0.01675425,0.02719125,0.097375,0.078625,0.12975,0.009140001,-0.042175252,0.012054499,1741898532.43179
0.038625,0.052125,0.206875,0.03208925,0.02702325,0.02442925,0.102875,0.067875,0.103875,0.0072937496,-0.043472253,0.00027475,1741898532.4510632
0.036875,0.046375,0.1805,0.027099501,0.03125,0.02345275,0.078875,0.043875,0.083875,0.0039215,-0.045730498,-0.0046234997,1741898532.460991
0.035375,0.064,0.180625,0.01358025,0.037262,0.02091975,0.06325,0.045125,0.108875,-0.0018615,-0.047012247,-0.009796251,1741898532.475564
0.0315,0.058625,0.1535,0.01222225,0.04055775,0.017883249,0.052125,0.057625,0.1395,-0.01582325,-0.0417785,-0.021988,1741898532.491449
0.02875,0.06425,0.14225,0.0072632497,0.044540502,0.012375,0.046625,0.097125,0.173125,-0.02101125,-0.03654475,-0.0295105,1741898532.511513
0.03475,0.0585,0.1155,0.004593,0.046463,0.009002751,0.04925,0.1095,0.179875,-0.022354,-0.02742,-0.0453645,1741898532.5194838
0.045,0.055375,0.097875,0.00083925005,0.047973752,0.0060272496,0.048875,0.09975,0.2035,-0.0187225,-0.024658252,-0.05169675,1741898532.534076
0.04975,0.05525,0.081125,-0.008026,0.046981752,0.00148,0.036,0.071125,0.22375,-0.009933501,-0.017608749,-0.0589295,1741898532.55116
0.046125,0.067125,0.05675,-0.010009751,0.045456,-0.00045775,-0.014,-0.01975,0.264125,-0.00862125,-0.012085,-0.0590515,1741898532.571428
0.043875,0.072625,0.04825,-0.01148975,0.0417175,-0.00668325,-0.02375,-0.052875,0.2705,-0.011917,0.0033875,-0.05473325,1741898532.578302
0.041,0.0705,0.03425,-0.01260375,0.039154,-0.010727,0.005625,-0.056875,0.24175,-0.014038,0.01206975,-0.053482,1741898532.593021
0.043,0.06225,0.02475,-0.01390075,0.03237925,-0.018448,0.02025,-0.046625,0.214125,-0.018859752,0.025421249,-0.056076,1741898532.612841
0.0545,0.04025,0.003875,-0.01440425,0.0278015,-0.02162175,-0.004375,-0.071875,0.172375,-0.021560749,0.02796925,-0.05662525,1741898532.622398
0.060375,0.031,-0.004125,-0.01658625,0.0164795,-0.026596,-0.035375,-0.09775,0.174,-0.022171,0.02822875,-0.048095748,1741898532.63709
0.07375,0.0115,-0.0165,-0.01835625,0.010024999,-0.02870175,-0.071625,-0.10625,0.200875,-0.01956175,0.029373249,-0.041137747,1741898532.651984
0.0775,0.002125,-0.018625,-0.021164,0.0028687501,-0.030578502,-0.0655,-0.088,0.20475,-0.0091095,0.03733825,-0.03070075,1741898532.6723
0.07925,-0.0085,-0.016875,-0.027176,-0.011917,-0.03300475,-0.037125,-0.0755,0.181125,-0.00067150005,0.04164125,-0.0271455,1741898532.68142
0.0815,-0.0265,-0.005,-0.03019725,-0.01899725,-0.032959,-0.032625,-0.08825,0.163375,0.016570998,0.0438385,-0.018280001,1741898532.695953
0.08125,-0.032875,0.002875,-0.032318,-0.03114325,-0.03012075,-0.03925,-0.125875,0.127625,0.0231475,0.04258725,-0.011734,1741898532.713272
0.075875,-0.03675,0.025625,-0.033615,-0.03657525,-0.0273895,-0.035875,-0.13075,0.108625,0.0275115,0.04129025,-0.00413525,1741898532.733731
0.07425,-0.03575,0.04225,-0.0177155,-0.03955075,-0.022232,-0.014625,-0.114875,0.0725,0.02861025,0.03898625,0.009643501,1741898532.739864
0.071375,-0.043625,0.0345,-0.0180665,-0.0421295,-0.018920999,-0.010625,-0.110125,0.062125,0.02661125,0.037170503,0.015075751,1741898532.75491
0.071625,-0.04025,0.05325,-0.03205875,-0.054535,-0.010940501,-0.010125,-0.10725,0.054375,0.021988,0.0338135,0.025177,1741898532.777622
0.074375,-0.04675,0.083875,-0.03009025,-0.057235748,-0.0067902496,-0.0015,-0.085,0.032375,0.02085875,0.0314635,0.029876752,1741898532.783448
0.07425,-0.051375,0.100375,-0.018402,-0.05838,0.001236,0.00325,-0.073625,0.01875,0.02490225,0.020629998,0.039199747,1741898532.800461
0.073375,-0.060625,0.137,-0.012634249,-0.05738825,0.0052947504,0.024,-0.054125,-0.01075,0.02911375,0.012909001,0.043457,1741898532.820724
0.075375,-0.059875,0.150625,-0.0076295,-0.055297747,0.0097045,0.03425,-0.042625,-0.012,0.03575125,-0.0053405,0.04806525,1741898532.8272939
0.0795,-0.054375,0.157125,0.0010375,-0.049057,0.018035999,0.048125,-0.005125,0.0,0.03768925,-0.013839751,0.04869075,1741898532.84189
0.087625,-0.043625,0.173125,0.0044555003,-0.045807,0.0207215,0.05225,0.013375,0.005,0.045868002,-0.03034975,0.046630748,1741898532.859722
0.086875,-0.050625,0.182,0.0099639995,-0.037841752,0.02500925,0.051,0.018125,0.007,0.04971325,-0.037613,0.044128504,1741898532.870802
0.0655,-0.079625,0.208,0.01245125,-0.032852247,0.02893075,0.050625,0.014125,0.003,0.051437248,-0.04353325,0.04141225,1741898532.891434
0.039,-0.063625,0.23425,0.0206145,-0.01776125,0.041076753,0.051875,0.020125,0.015,0.053512502,-0.0549165,0.035049498,1741898532.900003
-0.004375,0.037,0.2625,0.02664175,-0.00744625,0.043457,0.04775,0.021875,0.04,0.053222753,-0.05912775,0.03041075,1741898532.914625
-0.005125,0.06175,0.252375,0.04129025,0.013092,0.038925253,0.044125,0.033875,0.070375,0.041808996,-0.0611725,0.01737975,1741898532.931475
0.038875,0.016625,0.227125,0.0379485,0.02139275,0.04011525,0.045625,0.066125,0.1185,0.033798248,-0.06015025,0.0091705,1741898532.9516768
0.05675,0.03025,0.223125,0.032943748,0.029266251,0.04331975,0.052,0.067375,0.114375,0.02339175,-0.055359002,-0.0062865,1741898532.958533
0.06125,0.011,0.218875,0.039276,0.043945253,0.04306025,0.05725,0.04275,0.117,0.019577,-0.053680502,-0.013626001,1741898532.973115
0.023875,0.025,0.233375,0.037231497,0.04954525,0.043747,0.047875,0.02275,0.1325,0.01136775,-0.0502625,-0.026291,1741898532.991862
0.00275,0.05225,0.228375,0.02417,0.05921925,0.041564997,0.0235,-0.004375,0.151,0.0075835,-0.0485535,-0.03056325,1741898533.002623
-0.015375,0.069625,0.182875,0.01731875,0.063324004,0.0381775,0.0095,-0.01225,0.1725,-0.0030669998,-0.042465247,-0.037735,1741898533.017452
-0.002625,0.06025,0.152125,0.0043944996,0.06958,0.03189075,-0.025125,-0.036625,0.215375,-0.011825499,-0.036193747,-0.040512,1741898533.0322099
0.023625,0.034625,0.09375,-0.0046234997,0.0691375,0.02946475,-0.03175,-0.041875,0.23025,-0.03274525,-0.0216675,-0.041977,1741898533.051881
0.023125,0.037,0.07075,-0.0125885,0.066208,0.027847249,-0.029375,-0.009875,0.262875,-0.041153,-0.01326,-0.0427705,1741898533.0617652
0.02025,0.048125,0.050125,-0.025360001,0.0575715,0.0222015,-0.030125,0.01025,0.2735,-0.04721075,0.00982675,-0.05055225,1741898533.0765078
0.01775,0.067625,0.019625,-0.030838,0.05281075,0.01725775,-0.021125,0.013375,0.256375,-0.040145747,0.018859752,-0.05447375,1741898533.0916631
0.020625,0.07525,0.00625,-0.0361785,0.044098,0.0064850003,-0.021,-0.0135,0.2415,-0.009323,0.022461,-0.0538025,1741898533.111425
0.03675,0.089625,-0.014125,-0.03645325,0.03987125,0.0008545,-0.03975,-0.085125,0.21525,0.0050965,0.02159125,-0.049850497,1741898533.120717
0.044375,0.092,-0.02225,-0.034438998,0.029601999,-0.011825499,-0.047,-0.102,0.206375,0.021103,0.02360525,-0.04049675,1741898533.1353788
0.0615,0.076,-0.036,-0.031601,0.02336125,-0.01814275,-0.071375,-0.14075,0.18475,0.02548225,0.02622975,-0.035446253,1741898533.15115
0.0725,0.058,-0.039,-0.02687075,0.01643375,-0.023407,-0.090875,-0.170625,0.17025,0.028427,0.02940375,-0.0290375,1741898533.171875
0.081,0.05075,-0.030875,-0.02082825,0.00238025,-0.030853251,-0.11375,-0.196625,0.1355,0.029739501,0.03707875,-0.012085,1741898533.179258
0.087875,0.0195,-0.02725,-0.019622749,-0.00390625,-0.0345,-0.105125,-0.18225,0.1165,0.02851875,0.040863,-0.003296,1741898533.194626
0.08775,0.0065,-0.018,-0.025695749,-0.018402,-0.038147,-0.083625,-0.15425,0.100375,0.026092501,0.04562375,0.010742251,1741898533.2135
0.086375,-0.007625,0.026875,-0.022232,-0.0226745,-0.038818248,-0.03675,-0.107625,0.071375,0.025528,0.04682925,0.014800999,1741898533.223249
0.086125,-0.031125,0.0065,-0.0247955,-0.029907249,-0.0361175,-0.025625,-0.1065,0.053125,0.02607725,0.04322825,0.022766002,1741898533.237803
0.088,-0.023625,0.041625,-0.03559875,-0.036499,-0.0341035,-0.0355,-0.114125,0.036125,0.02696225,0.0387115,0.0289155,1741898533.255179
0.088625,-0.028625,0.05025,-0.042358503,-0.04464725,-0.02993775,-0.034,-0.11075,0.02375,0.022796748,0.032180753,0.04040525,1741898533.267145
0.089625,-0.031625,0.062,-0.03866575,-0.047592252,-0.02671825,-0.00875,-0.08575,-0.01375,0.02034,0.0272065,0.044159,1741898533.28176
0.0915,-0.04,0.064875,-0.0270385,-0.0515595,-0.020462,0.0045,-0.0695,-0.028375,0.022232,0.011856,0.04837025,1741898533.296721
0.0915,-0.046375,0.063625,-0.021636998,-0.0532075,-0.01661675,0.022125,-0.056,-0.0455,0.023040751,0.0029449998,0.048782248,1741898533.317742
0.090125,-0.044,0.066875,-0.01690675,-0.0547485,-0.01278675,0.02675,-0.04825,-0.0465,0.018432502,-0.012436,0.0468445,1741898533.3255098
0.087,-0.045375,0.078875,-0.009658749,-0.056686502,-0.0065917503,0.031875,-0.023,-0.028125,0.01675425,-0.020629998,0.04473875,1741898533.340222
0.075125,-0.058875,0.111375,-0.0070037497,-0.05653375,-0.0034790002,0.02725,-0.0175,-0.009125,0.014206001,-0.03538525,0.03913875,1741898533.359112
0.071125,-0.066,0.123,-0.0022735,-0.05426025,0.0048979996,0.0265,-0.004375,0.02225,0.01206975,-0.04011525,0.036300752,1741898533.369437
0.07025,-0.07225,0.1425,-0.00013725001,-0.05233775,0.009948749,0.0265,0.007875,0.042125,0.01071175,-0.044403,0.0332795,1741898533.3903842
0.072,-0.071625,0.1545,0.00419625,-0.04679875,0.019516,0.026,0.019,0.062,0.00985725,-0.05001825,0.025665252,1741898533.398432
0.070375,-0.071875,0.183625,0.00688175,-0.042648252,0.02401725,0.033125,0.033,0.085875,0.009201,-0.050888002,0.0207215,1741898533.4128058
0.066,-0.068,0.19575,0.013290499,-0.0314025,0.0334015,0.0385,0.036375,0.094375,0.006256,-0.050964247,0.008727999,1741898533.4318862
0.0485,-0.023125,0.22275,0.01589975,-0.02456675,0.037094,0.037625,0.025,0.124125,0.0042572496,-0.05024725,0.002472,1741898533.441756
0.044,-0.003375,0.229375,0.018509,-0.016922,0.03878775,0.032125,0.020375,0.147375,-0.00149525,-0.0464325,-0.008926501,1741898533.4563851
0.045125,0.002625,0.23075,0.02592475,-0.00083925005,0.03945925,0.009875,0.020625,0.224375,-0.00511175,-0.042572,-0.014297499,1741898533.471429
0.053625,-0.001625,0.22075,0.028778,0.0066985004,0.04151925,0.00025,0.0195,0.25875,-0.010147001,-0.0280305,-0.02439875,1741898533.491199
0.05725,0.0105,0.212,0.030639749,0.019699,0.045837503,0.011875,0.018875,0.25675,-0.010742251,-0.018753,-0.02940375,1741898533.5003881
0.017125,0.07475,0.218375,0.026535,0.02351375,0.045303248,0.023125,0.015,0.219875,-0.0133667495,-0.0043335,-0.0400085,1741898533.515007
0.003375,0.087125,0.21725,0.02313225,0.0331115,0.0359955,0.016375,-0.03475,0.172625,-0.018859752,-0.00086975005,-0.04350275,1741898533.533389
-0.0035,0.068625,0.201,0.02073675,0.038085997,0.0308685,0.002875,-0.0525,0.183875,-0.0386505,0.00614925,-0.04464725,1741898533.551543
-0.007,0.063625,0.190375,0.017212,0.042297248,0.0272065,-0.018625,-0.03025,0.223125,-0.04936225,0.012847999,-0.046752997,1741898533.559181
-0.0055,0.065625,0.174875,0.0080872495,0.049987752,0.02182,-0.007625,-0.009125,0.22575,-0.05635075,0.022949249,-0.051422,1741898533.5739279
0.013125,0.0425,0.1215,-0.001236,0.051925752,0.01799,0.0405,0.015625,0.197375,-0.04331975,0.04190075,-0.05912775,1741898533.591329
0.014875,0.038875,0.095375,-0.020218,0.048935,0.0125275,0.03625,-0.000125,0.18975,-0.02436825,0.040649503,-0.0592345,1741898533.603005
0.0235,0.06575,0.05075,-0.0265045,0.045837503,0.009002751,0.007875,-0.043375,0.184875,0.00852975,0.03067025,-0.05337525,1741898533.6175208
0.032125,0.076375,0.0355,-0.03082275,0.03840625,-0.0021819999,-0.049875,-0.151875,0.15925,0.0156555,0.02996825,-0.0468445,1741898533.632297
0.046875,0.075125,0.00175,-0.031066999,0.033935502,-0.0078735,-0.06725,-0.1915,0.14925,0.0137635,0.033981252,-0.030181998,1741898533.6513689
0.052125,0.069375,-0.005,-0.032013,0.028366,-0.0126495,-0.074125,-0.186125,0.148125,0.010009751,0.03756725,-0.022171,1741898533.6617222
0.0585,0.048375,-0.012625,-0.02680975,0.018219,-0.0204925,-0.06575,-0.157,0.14475,0.010742251,0.04721075,-0.010498,1741898533.6764271
0.059625,0.037875,-0.003625,-0.026672252,0.01248175,-0.023407,-0.046,-0.130375,0.0975,0.0161895,0.049591,-0.005539,1741898533.692926
0.0635,0.02125,0.0115,-0.033889752,0.0007935,-0.02734375,-0.03525,-0.132125,0.06375,0.028839001,0.04167175,0.00842275,1741898533.713652
0.066625,-0.0025,0.029875,-0.03878775,-0.0046845004,-0.027526751,-0.01425,-0.121625,0.04925,0.0332795,0.03421025,0.01640325,1741898533.720292
0.065875,0.000125,0.039,-0.0427705,-0.014785751,-0.0263215,-0.01175,-0.113125,0.059125,0.031036502,0.026535,0.0273285,1741898533.734972
0.071,0.003375,0.04425,-0.0405885,-0.01882925,-0.0259095,-0.001125,-0.103125,0.028375,0.02487175,0.0253295,0.03129575,1741898533.755865
0.075,0.004125,0.043,-0.03053275,-0.0261535,-0.024887,0.00975,-0.0895,0.004625,0.016327,0.01542675,0.03958125,1741898533.764276
0.082625,0.004125,0.040625,-0.02197275,-0.0293885,-0.024536248,0.037125,-0.049,-0.030875,0.01667775,0.00785825,0.042251498,1741898533.7789152
0.0865,-0.0155,0.033375,-0.00177,-0.034057498,-0.02288825,0.0435,-0.036,-0.03625,0.0185395,-0.00045775,0.043105997,1741898533.797109
0.090375,-0.038,0.04075,-0.00036625,-0.0385895,-0.020172002,0.039625,-0.017875,-0.0185,0.01849375,-0.01646425,0.0415955,1741898533.808495
0.086375,-0.046375,0.056125,-0.00228875,-0.0432435,-0.017303498,0.038875,-0.006625,-0.007875,0.01867675,-0.023528999,0.03993225,1741898533.823125
0.0825,-0.0485,0.0725,-0.0037995,-0.049377497,-0.01086425,0.03625,-0.00175,0.001625,0.0225525,-0.0377655,0.034073003,1741898533.8392699
0.080875,-0.050625,0.0935,-0.0028074998,-0.05052175,-0.008194,0.02725,-0.0005,0.020875,0.02500925,-0.04435725,0.03111275,1741898533.8599622
0.079625,-0.05675,0.10625,-0.00057975,-0.05207825,-0.00251775,0.0215,0.004,0.036875,0.0273895,-0.054550253,0.023803748,1741898533.870605
0.07025,-0.07875,0.14825,0.00204475,-0.051651,0.0016175,0.013125,0.020625,0.081875,0.0261535,-0.05635075,0.01882925,1741898533.881419
0.06475,-0.088,0.173375,0.011749251,-0.0448455,0.0135345,0.014125,0.029375,0.09775,0.01817325,-0.053894002,0.006836,1741898533.895908
0.063625,-0.09375,0.212,0.017181499,-0.03860475,0.020584,0.022375,0.045875,0.122,0.013717749,-0.052368253,0.00013725001,1741898533.910681
0.067625,-0.0885,0.2225,0.02256775,-0.02389525,0.035034247,0.025,0.04825,0.141,0.008026,-0.047577,-0.013702501,1741898533.931506
0.06625,-0.055625,0.23225,0.021789499,-0.016327,0.04104625,0.0265,0.028875,0.2085,0.0061950004,-0.043518003,-0.020172002,1741898533.939726
0.05725,-0.035375,0.234,0.020111,-0.00889575,0.045761,0.03275,0.011,0.231125,0.00242625,-0.0314635,-0.029998751,1741898533.9543302
0.04375,-0.014625,0.234625,0.017028749,0.00538625,0.051651,0.036875,-0.039,0.1955,-0.00146475,-0.025940001,-0.03300475,1741898533.972033
0.015125,0.045125,0.210875,0.016983,0.01245125,0.05284125,0.024,-0.059375,0.182125,-0.0187225,-0.017883249,-0.0348815,1741898533.993022
-0.0015,0.0765,0.198625,0.0258025,0.024582,0.04837025,0.0065,-0.0315,0.20775,-0.029876752,-0.0129700005,-0.03636175,1741898533.998809
-0.020625,0.11925,0.177,0.029022248,0.028946,0.04287725,-0.007375,0.000625,0.239,-0.046569753,0.0026092501,-0.047989,1741898534.014338
-0.023125,0.117625,0.178,0.0167695,0.032714747,0.027160749,0.00475,0.035,0.257375,-0.04499825,0.0154115,-0.05564875,1741898534.0353248
-0.0245,0.094375,0.177375,0.01177975,0.03538525,0.021606501,0.022125,0.02625,0.238875,-0.034225497,0.026092501,-0.0602265,1741898534.042856
-0.016125,0.076625,0.168125,0.0074004997,0.038849,0.017273001,0.020375,-0.00225,0.22425,7.625e-05,0.027679501,-0.05799875,1741898534.057454
-0.004875,0.060125,0.15275,-0.0070037497,0.043578997,0.011260999,-0.04675,-0.143875,0.209125,0.01316825,0.02586375,-0.05264275,1741898534.077481
0.010875,0.06,0.11075,-0.01519775,0.04403675,0.009323,-0.071,-0.205,0.1935,0.016128499,0.030655,-0.035965,1741898534.086773
0.01125,0.0755,0.088875,-0.029068,0.041626,0.00187675,-0.07075,-0.21425,0.166,0.010604749,0.03601075,-0.0272065,1741898534.101452
0.0095,0.104,0.054875,-0.034134,0.038940497,-0.00485225,-0.06,-0.18025,0.15525,0.00030525,0.049682498,-0.01564025,1741898534.123244
0.018375,0.09525,0.035875,-0.036316004,0.032470748,-0.019317752,-0.051625,-0.128,0.127875,-0.00149525,0.054123,-0.0128632495,1741898534.1310651
0.048375,0.057625,0.00675,-0.03556825,0.02749625,-0.023803748,-0.05375,-0.1175,0.109,0.00941475,0.0529785,-0.0033722501,1741898534.1514828
0.060125,0.0445,0.002875,-0.03538525,0.02153025,-0.026397752,-0.042625,-0.10975,0.055,0.01924125,0.0477905,0.00384525,1741898534.160347
0.075625,0.0255,0.012,-0.039794996,0.00874325,-0.030304002,-0.029875,-0.111,0.03675,0.0345155,0.034484748,0.0173645,1741898534.1749701
0.0745,0.019125,0.020625,-0.041626,0.00251775,-0.032287497,-0.016,-0.119,0.034375,0.0362855,0.03012075,0.02250675,1741898534.193984
0.07,0.01625,0.028125,-0.03990175,-0.008255,-0.035888746,-0.0145,-0.1205,0.03075,0.027282748,0.02412425,0.03019725,1741898534.204351
0.0765,-0.005625,0.03875,-0.035797,-0.012405501,-0.036987253,-0.010375,-0.095875,0.009875,0.020629998,0.019470248,0.03363025,1741898534.2189178
0.0905,-0.02375,0.03625,-0.023224002,-0.019287001,-0.03408825,-0.004125,-0.08075,-0.004875,0.012146,0.0088805,0.039154,1741898534.235405
0.1065,-0.0525,0.028375,-0.018402,-0.02401725,-0.03005975,0.017875,-0.05175,-0.024875,0.01142875,0.00279225,0.040664747,1741898534.256187
0.1065,-0.056,0.040125,-0.012802,-0.03453075,-0.021927001,0.0275,-0.032375,-0.025,0.01295475,-0.004303,0.04119875,1741898534.262791
0.091125,-0.0705,0.049,-0.01194775,-0.0387115,-0.0172425,0.03125,-0.007375,-0.00875,0.019516,-0.0208435,0.038269002,1741898534.277408
0.082125,-0.063125,0.057625,-0.012985251,-0.046402,-0.0045625,0.030375,-0.001375,-0.00175,0.02326975,-0.02870175,0.0358125,1741898534.2977011
0.074375,-0.04475,0.0735,-0.0115815,-0.0482635,0.0003205,0.0315,0.0025,0.0025,0.0288085,-0.041824248,0.029739501,1741898534.3066251
0.073375,-0.041,0.085625,-0.009658749,-0.0503845,0.0037079998,0.040875,0.013875,0.01425,0.031158501,-0.04789725,0.025970502,1741898534.321145
0.072125,-0.03625,0.10525,-0.00054925,-0.052948,0.0089569995,0.041875,0.01825,0.033625,0.034851003,-0.0587615,0.0152435,1741898534.340053
0.067875,-0.043375,0.139875,0.0061035,-0.051528998,0.011627249,0.0335,0.012625,0.085875,0.033844,-0.06027225,0.0088195,1741898534.350116
0.065,-0.05725,0.15975,0.0194855,-0.0457915,0.0203705,0.034,0.011,0.095625,0.02503975,-0.056259252,-0.003296,1741898534.370435
0.0595,-0.078375,0.2035,0.025299,-0.040893503,0.02674875,0.03675,0.01025,0.102625,0.01911925,-0.054718,-0.009002751,1741898534.379185
0.055375,-0.075875,0.220875,0.030716,-0.02664175,0.04141225,0.02875,-0.001375,0.119125,0.0056,-0.050277747,-0.020401,1741898534.3938198
0.0355,-0.038125,0.251375,0.029663,-0.01876825,0.049057,-0.005625,-0.040875,0.173625,-0.00193775,-0.046112,-0.02490225,1741898534.411513
0.025,0.021,0.254125,0.033661,0.000885,0.05526725,-0.015875,-0.044,0.19825,-0.017044,-0.032776,-0.0309295,1741898534.423438
0.021125,0.04075,0.222,0.034958,0.008667,0.051071253,-0.015375,-0.02575,0.23975,-0.02278125,-0.02456675,-0.033996496,1741898534.438256
0.00975,0.050375,0.22475,0.033554003,0.013778751,0.048141498,-0.01675,-0.024625,0.261,-0.028442498,-0.008209251,-0.040099997,1741898534.4531121
-0.00925,0.067,0.23,0.02749625,0.02371225,0.04293825,-0.024375,-0.045,0.27575,-0.02946475,-6.1000002e-05,-0.04226675,1741898534.470867
-0.0505,0.09325,0.252375,0.022232,0.029907249,0.03860475,-0.019875,-0.053625,0.262125,-0.03189075,0.016922,-0.04537975,1741898534.483049
-0.061625,0.092625,0.253125,0.010742251,0.04452525,0.0296325,-0.00375,-0.056375,0.219875,-0.03208925,0.025268499,-0.04635625,1741898534.497819
-0.05225,0.07025,0.205,0.00416575,0.05159,0.02658075,0.0025,-0.044,0.1995,-0.02534475,0.034911998,-0.048462003,1741898534.512429
-0.036125,0.066125,0.16075,-0.010162249,0.059814498,0.022338752,-0.001375,-0.019625,0.173125,-0.0174865,0.0355835,-0.04954525,1741898534.531164
-0.00575,0.075875,0.079375,-0.017746,0.059372,0.019104,-0.023625,-0.049125,0.16425,-0.0063477503,0.03462225,-0.049621496,1741898534.5420349
0.000125,0.087625,0.0585,-0.025528,0.056137,0.01460275,-0.080375,-0.17575,0.15275,0.016388,0.0312805,-0.03926075,1741898534.556733
0.00075,0.096125,0.046,-0.04002375,0.046875,0.0012055,-0.089375,-0.21225,0.150375,0.02182,0.030029248,-0.02873225,1741898534.571473
0.013,0.093,0.0255,-0.04524225,0.04237375,-0.0063934997,-0.08375,-0.214625,0.146875,0.02262875,0.0338135,-0.01104725,1741898534.591605
0.02625,0.086,0.00725,-0.04603575,0.03347775,-0.01899725,-0.058625,-0.1725,0.12575,0.01800525,0.04290775,-0.0029755002,1741898534.602648
0.055125,0.06775,-0.02125,-0.048049998,0.02598575,-0.023773251,-0.046875,-0.133,0.083875,0.016876249,0.045272753,0.000824,1741898534.617219
0.064875,0.0545,-0.005875,-0.05349725,0.009216251,-0.030716,-0.03925,-0.11575,0.059625,0.017501751,0.04533375,0.005539,1741898534.632535
0.072,0.035375,0.01575,-0.053650003,0.00416575,-0.032608002,-0.0175,-0.096,0.0235,0.020584,0.04031375,0.015533499,1741898534.653276
0.069,0.028625,0.006375,-0.05381775,-0.00019825,-0.03373725,-0.011125,-0.100125,0.017875,0.0214385,0.035675,0.020584,1741898534.660823
0.06775,0.016875,0.021875,-0.061798,-0.0177155,-0.034835752,-0.010625,-0.108625,0.011125,0.018310498,0.02664175,0.0310975,1741898534.6754198
0.07225,0.02,0.036375,-0.05426025,-0.0239105,-0.03462225,-0.005,-0.1115,-0.002,0.01593025,0.01876825,0.0355225,1741898534.69438
0.079,0.0085,0.0265,-0.029541,-0.029953,-0.033462502,0.000875,-0.098875,-0.000875,0.0123442495,0.00305175,0.041031,1741898534.7046552
0.082625,-0.01775,0.033,-0.0247345,-0.037048247,-0.03158575,0.01175,-0.067375,0.0025,0.0104674995,-0.0018005001,0.042099,1741898534.7192872
0.0855,-0.025875,0.041375,-0.018707251,-0.04922475,-0.026092501,0.01725,-0.050375,0.0045,0.0071105,-0.0100555,0.040573,1741898534.736382
0.074875,-0.031,0.05525,-0.015152001,-0.05281075,-0.02227775,0.02725,-0.023875,0.008875,0.00764475,-0.01498425,0.03886425,1741898534.7568629
0.0665,-0.0395,0.067125,-0.0070037497,-0.05555725,-0.013214,0.031375,-0.015375,0.008625,0.01425175,-0.027007999,0.03492725,1741898534.7628002
0.062625,-0.06075,0.102,-0.0033570002,-0.054977503,-0.0068055,0.036125,0.00075,0.008375,0.0183715,-0.033508252,0.032470748,1741898534.777835
0.067875,-0.0635,0.12225,0.001892,-0.0521545,0.0078125,0.038125,0.00975,0.007875,0.02459725,-0.04609675,0.025833251,1741898534.7984798
0.077875,-0.04525,0.152125,0.00419625,-0.04995725,0.01380925,0.034875,0.020375,0.0145,0.02693175,-0.052474998,0.021331752,1741898534.806186
0.074875,-0.0325,0.1635,0.0066985004,-0.04747,0.0185395,0.025,0.014,0.0375,0.02882375,-0.05821225,0.01628125,1741898534.820659
0.065375,-0.020375,0.17825,0.01446525,-0.04019175,0.02626025,0.011125,0.001625,0.073625,0.028442498,-0.060852002,0.00596625,1741898534.840371
0.04825,-0.027875,0.207625,0.020172002,-0.0345,0.02961725,0.00475,0.008375,0.11675,0.02528375,-0.05894475,0.00035100002,1741898534.851327
0.039,-0.030625,0.22375,0.0314635,-0.020202748,0.038971,0.0105,0.0205,0.112375,0.011184749,-0.05216975,-0.014557,1741898534.870972
0.0165,0.0235,0.247,0.035553,-0.0119934995,0.0437775,0.0045,0.016,0.15025,0.0020905002,-0.047577,-0.022934001,1741898534.878607
0.014375,0.063,0.247625,0.043396,0.0058287503,0.043335,-0.001,0.013875,0.192,-0.0138855,-0.03300475,-0.0373535,1741898534.8933382
0.02275,0.076375,0.239625,0.041610748,0.013321,0.03878775,-0.00575,0.013875,0.2415,-0.0182495,-0.023925751,-0.04281625,1741898534.912339
0.023625,0.05675,0.2335,0.04060375,0.0205535,0.0346375,-0.0095,-0.00075,0.246125,-0.018219,-0.009094249,-0.048355,1741898534.922957
0.02025,0.036625,0.224875,0.040954497,0.03297425,0.03439325,-0.030375,-0.056125,0.24275,-0.01646425,-0.00408925,-0.048462003,1741898534.937716
-0.003625,0.035875,0.222875,0.034073003,0.03768925,0.036316004,-0.0395,-0.0815,0.239875,-0.0148772495,0.00531,-0.0467835,1741898534.9524102
-0.020375,0.054625,0.222125,0.010879501,0.04609675,0.035339247,-0.0305,-0.09525,0.23375,-0.013564999,0.011749251,-0.045929,1741898534.985965
-0.03775,0.09325,0.1915,-6.1000002e-05,0.049591,0.03105175,-0.01925,-0.09275,0.224,-0.0054015,0.02398675,-0.044113252,1741898534.9977689
-0.032625,0.096625,0.159875,-0.014618,0.05422975,0.019775499,-0.0315,-0.112625,0.198375,0.001587,0.02633675,-0.041687,1741898534.998934
-0.004125,0.090125,0.089375,-0.019775499,0.05447375,0.01498425,-0.05325,-0.1485,0.183625,0.009674,0.0273285,-0.037155252,1741898535.0243258
0.007125,0.089125,0.064,-0.0310975,0.04901125,0.0063325,-0.08425,-0.221875,0.15,0.0222015,0.03041075,-0.02056875,1741898535.026109
0.012375,0.098625,0.038375,-0.0318755,0.04600525,0.0013427499,-0.080125,-0.2215,0.137875,0.0225525,0.0329285,-0.011078,1741898535.044999
0.0125,0.09175,0.0025,-0.0309905,0.043167,-0.0042572496,-0.06675,-0.20075,0.12875,0.01576225,0.041183498,0.0026854998,1741898535.055236
0.02025,0.08725,-0.00825,-0.037506,0.030014,-0.01576225,-0.03825,-0.142625,0.101875,0.01251225,0.045700002,0.006607,1741898535.072643
0.044875,0.063125,-0.009125,-0.039367747,0.0232085,-0.02101125,-0.031625,-0.1195,0.085125,0.01065075,0.0490265,0.01197825,1741898535.092543
0.054125,0.045625,-0.003,-0.04043575,0.010437001,-0.026764,-0.034125,-0.099125,0.05125,0.011901749,0.04800425,0.0149995005,1741898535.098859
0.06175,0.020875,-0.0005,-0.0403595,0.0050812503,-0.026886,-0.034875,-0.098,0.031625,0.01490775,0.04302975,0.022705,1741898535.1134238
0.066375,0.013375,-0.000875,-0.0431365,-0.00723275,-0.02565,-0.0225,-0.097625,-0.00675,0.015564,0.0390015,0.02690125,1741898535.1331258
0.07225,0.002,0.010875,-0.044051997,-0.014709501,-0.0246735,-0.0105,-0.091,-0.01525,0.013916001,0.028656,0.03268425,1741898535.142966
0.07375,-0.001875,0.02425,-0.0417175,-0.029007,-0.02153025,0.012125,-0.084625,-0.023875,0.012909001,0.02200325,0.033493,1741898535.1574678
0.081,-0.016,0.039625,-0.038971,-0.035141,-0.01893625,0.01825,-0.078125,-0.019875,0.013153,0.00411975,0.033889752,1741898535.17428
0.083875,-0.01075,0.04375,-0.035431,-0.04078675,-0.015304499,0.0225,-0.053125,-0.012,0.012847999,-0.003296,0.0332185,1741898535.187791
0.08275,-0.001875,0.0465,-0.01678475,-0.047378503,-0.010498,0.02475,-0.041,-0.0075,0.01316825,-0.0160065,0.030075,1741898535.2014441
0.07125,-0.019125,0.055,-0.00788875,-0.047912497,-0.0091095,0.030625,-0.018375,-0.001,0.01525875,-0.022293,0.027954001,1741898535.2160451
0.0655,-0.0225,0.06375,-0.00712575,-0.0521545,0.00036625,0.03275,-0.009125,0.000875,0.01855475,-0.02879325,0.025177,1741898535.2360692
0.05975,-0.003125,0.11725,-0.0062712496,-0.052597,0.0054015,0.0335,-0.00025,0.01,0.025238002,-0.041702252,0.017685,1741898535.2452369
0.0605,0.001625,0.14,0.00384525,-0.046463,0.011550999,0.03175,0.001,0.02225,0.027176,-0.047409,0.013275251,1741898535.25964
0.07025,-0.002375,0.163375,0.00903325,-0.042251498,0.01380925,0.0285,0.00225,0.04025,0.024826,-0.05255125,0.0025940002,1741898535.277761
0.07475,0.005,0.168,0.016448999,-0.03521725,0.021041749,0.023,0.0035,0.081875,0.021209748,-0.052245997,-0.00369275,1741898535.288636
0.083,0.019125,0.1785,0.0209655,-0.03161625,0.0235595,0.022,0.000625,0.107125,0.012039251,-0.048401,-0.016143749,1741898535.303157
0.08,0.014,0.183375,0.02626025,-0.02778625,0.025085501,0.028,-0.017875,0.145875,0.006363,-0.04435725,-0.02180475,1741898535.319299
0.069875,0.004625,0.192375,0.0346985,-0.018707251,0.028656,0.0275,-0.033,0.162,-0.0062255003,-0.034118753,-0.030487,1741898535.33272
0.048375,-0.01975,0.21075,0.03268425,-0.01310725,0.03161625,0.003875,-0.0615,0.192875,-0.012375,-0.027893,-0.033493,1741898535.350976
0.033,0.001,0.22825,0.030548,-7.625e-05,0.041687,-0.011875,-0.07525,0.194125,-0.026291,-0.01440425,-0.035903998,1741898535.362248
0.023125,0.08425,0.232625,0.035659753,0.008850001,0.0401765,-0.03925,-0.123,0.207875,-0.03489675,-0.00830075,-0.034423754,1741898535.3771899
0.023125,0.076875,0.22575,0.039032,0.02510075,0.029571502,-0.0495,-0.13,0.228875,-0.053085253,0.008255,-0.030304002,1741898535.3920891
0.018625,0.067,0.206625,0.03822325,0.031479,0.028061,-0.04775,-0.0685,0.253375,-0.05729675,0.0196075,-0.032348752,1741898535.4117608
0.014,0.064375,0.19975,0.03508,0.03657525,0.027740499,-0.031,-0.03875,0.248,-0.044189498,0.037796002,-0.04129025,1741898535.4214652
0.005,0.063625,0.190875,0.0204925,0.04452525,0.02619925,-0.001625,-0.022625,0.211375,-0.029663,0.040573,-0.04270925,1741898535.4361432
-0.008625,0.0665,0.162125,0.0117035,0.04736325,0.024414,-0.005375,-0.036125,0.1905,0.0040435,0.035553,-0.037445,1741898535.451175
-0.008125,0.07,0.143625,-0.00369275,0.050277747,0.01953125,-0.038,-0.121375,0.14475,0.01965325,0.0321045,-0.031479,1741898535.4716852
-0.001625,0.081625,0.098375,-0.01086425,0.04992675,0.016265752,-0.0525,-0.162,0.127,0.03094475,0.02948,-0.02388,1741898535.4800582
0.000375,0.0855,0.084125,-0.0220795,0.04600525,0.008712751,-0.058,-0.180125,0.11475,0.036849998,0.03038025,-0.009277251,1741898535.494678
0.000125,0.08825,0.055625,-0.02560425,0.044128504,0.0050202496,-0.052625,-0.163125,0.099625,0.03462225,0.033462502,-0.0039825,1741898535.51091
0.0035,0.085,0.03525,-0.032547,0.037552,-0.002365,-0.0475,-0.14225,0.09275,0.031433,0.03793325,0.0031585,1741898535.524503
0.024875,0.083625,-0.00075,-0.03408825,0.032409754,-0.0063934997,-0.03325,-0.094875,0.071,0.03404225,0.03756725,0.0063325,1741898535.538473
0.036625,0.074375,-0.00075,-0.03639225,0.025695749,-0.011184749,-0.02625,-0.07875,0.048625,0.047165003,0.03170775,0.013626001,1741898535.553121
0.046375,0.06275,0.0175,-0.048172,0.00941475,-0.020629998,-0.0075,-0.074375,-0.012875,0.05252075,0.026733499,0.017273001,1741898535.5712168
0.0565,0.057375,0.039,-0.05078125,0.00367725,-0.024292,0.006125,-0.08075,-0.034125,0.0521545,0.0139770005,0.022827249,1741898535.582356
0.056625,0.0595,0.030375,-0.04452525,-0.004837,-0.029251,0.016125,-0.108625,-0.0315,0.0467225,0.0070495,0.024658252,1741898535.596829
0.059,0.040625,0.007125,-0.0382385,-0.009231499,-0.03070075,0.010375,-0.1225,-0.023375,0.029693501,-0.004242,0.0273895,1741898535.6117241
0.064875,0.022,0.005375,-0.024947999,-0.019744748,-0.030151252,-0.0035,-0.121875,-0.010375,0.020218,-0.009094249,0.0282135,1741898535.632189
0.082,-0.02,0.01875,-0.02012625,-0.0255585,-0.027649,-0.00475,-0.106375,-0.004375,0.00372325,-0.0160065,0.02757275,1741898535.641149
0.08625,-0.0305,0.02975,-0.016113251,-0.03714,-0.0190735,0.00825,-0.071875,0.0095,-0.001831,-0.01829525,0.02586375,1741898535.655769
0.0815,-0.036375,0.046625,-0.0149535,-0.04144275,-0.01463325,0.019375,-0.058375,0.013625,-0.0055695,-0.02313225,0.02095025,1741898535.673793
0.07325,-0.0315,0.05425,-0.013092,-0.044860747,-0.00991825,0.0365,-0.043875,0.015875,-0.004776,-0.026535,0.018463248,1741898535.6851468
0.058125,-0.023125,0.088875,-0.0069885002,-0.048782248,-0.00071725,0.03975,-0.0395,0.016375,-0.0032655,-0.03067025,0.01617425,1741898535.699755
0.057,-0.01975,0.11025,-0.0037995,-0.0489045,0.0039215,0.036125,-0.029875,0.03,-0.00030525,-0.039199747,0.01148975,1741898535.7155142
0.062,-0.01425,0.129625,0.00411975,-0.04553225,0.01257325,0.03275,-0.024,0.044125,6.1000002e-05,-0.042221002,0.00845325,1741898535.736681
0.07625,-0.004,0.151375,0.00868225,-0.042724498,0.01637275,0.02825,-0.021125,0.06225,0.0003205,-0.0460205,0.0010375,1741898535.7435079
0.076,0.009625,0.155875,0.01693725,-0.0368805,0.0234375,0.020125,-0.028625,0.089375,0.00048825,-0.04641725,-0.00267025,1741898535.758186
0.065625,0.036125,0.17325,0.0219575,-0.03335575,0.02519225,0.01675,-0.038625,0.09475,-0.0013580001,-0.045456,-0.009231499,1741898535.7788951
0.056625,0.039625,0.18575,0.0302125,-0.02427675,0.025543248,0.007875,-0.065375,0.108875,-0.00428775,-0.043869,-0.011749251,1741898535.789067
0.0435,0.051125,0.20725,0.03179925,-0.019012501,0.024826,0.002125,-0.078125,0.123375,-0.01631175,-0.0368805,-0.01620475,1741898535.803756
0.04425,0.044375,0.208625,0.036804248,-0.012741,0.023498502,-0.02275,-0.1135,0.154125,-0.025421249,-0.031692497,-0.017578252,1741898535.821082
0.045,0.027625,0.2105,0.04621875,0.00067150005,0.0237885,-0.03725,-0.123,0.16825,-0.0440215,-0.018158002,-0.01617425,1741898535.8334541
0.0495,-0.010875,0.220625,0.04452525,0.00738525,0.028656,-0.0365,-0.0795,0.18625,-0.047622748,-0.00997925,-0.014358499,1741898535.850739
0.0445,0.018,0.227625,0.03601075,0.0222625,0.034134,-0.02275,-0.043625,0.18775,-0.038330004,0.0024414998,-0.01412975,1741898535.863133
0.012625,0.041125,0.227125,0.034149252,0.02876275,0.0334015,-0.009625,-0.017,0.18175,-0.02854925,0.004776,-0.016128499,1741898535.878037
-0.004625,0.06225,0.226,0.0229035,0.0382995,0.0298615,-0.012125,-0.0275,0.17525,-0.0078735,0.00665275,-0.0194245,1741898535.892637
-0.014375,0.0795,0.198,0.01408375,0.0427705,0.02658075,-0.018875,-0.06825,0.15275,0.00039675,0.008407501,-0.019134501,1741898535.910621
-0.00625,0.076875,0.171875,0.0001525,0.04971325,0.02098075,-0.018125,-0.08525,0.13825,0.008361749,0.011886501,-0.015289251,1741898535.9219441
0.0115,0.065625,0.113,-0.0056,0.051025502,0.018890498,-0.011125,-0.1015,0.112875,0.00891125,0.0128175,-0.01310725,1741898535.9365408
0.0175,0.06375,0.08775,-0.01216125,0.0503235,0.016845752,-0.007375,-0.102,0.10525,0.00738525,0.014053251,-0.00976575,1741898535.9532669
0.02075,0.064125,0.066375,-0.028747499,0.042678747,0.0110625,-0.002125,-0.098625,0.0975,0.0062407497,0.01463325,-0.008499251,1741898535.973758
0.017625,0.071875,0.0375,-0.035400502,0.037735,0.0075377496,-0.000625,-0.095875,0.095625,0.00411975,0.015090999,-0.0059205,1741898535.9805691
0.01875,0.083625,0.018625,-0.039734002,0.02934275,-0.001526,0.002875,-0.084875,0.092,0.00317375,0.014785751,-0.00485225,1741898535.9951942
0.03125,0.097625,-0.00725,-0.041793752,0.0224305,-0.0075835,0.004125,-0.079875,0.0895,0.00198375,0.01301575,-0.0036162501,1741898536.011265
0.036,0.09925,-0.00275,-0.044067502,0.0054015,-0.01930225,0.005,-0.076125,0.08225,0.0018005001,0.011886501,-0.003128,1741898536.024745
0.0405,0.07525,0.019375,-0.04090875,-0.0007935,-0.0230865,0.005125,-0.076625,0.078875,0.0017242499,0.01062,-0.00267025,1741898536.039073
0.043,0.05725,0.024125,-0.04049675,-0.005539,-0.02525325,0.004875,-0.078,0.074875,0.00143425,0.00788875,-0.00193775,1741898536.0535522
0.04675,0.06175,0.0815,-0.0267945,-0.007782,-0.028244,0.00575,-0.0775,0.073625,0.00108325,0.0065612504,-0.0017395001,1741898536.071058
0.05125,-0.00325,0.010625,-0.00880425,-0.00093075,-0.03111275,0.007375,-0.075875,0.07325,0.00035100002,0.0040587503,-0.001526,1741898536.0828679
0.0535,-0.02475,-0.000125,-0.028305,-0.022216748,-0.0235595,0.01075,-0.073625,0.073875,0.00030525,0.002884,-0.00149525,1741898536.09743
0.06325,-0.0025,0.049125,-0.03752125,-0.033584498,-0.018692,0.0115,-0.074375,0.0745,0.000763,0.00035100002,-0.0012970001,1741898536.112098
0.059125,0.006125,0.066,-0.034546003,-0.04158025,-0.01295475,0.0095,-0.07725,0.080375,0.00093075,-0.000885,-0.00108325,1741898536.1322749
