L-AccX,L-AccY,L-AccZ,L-GyrX,L-GyrY,L-GyrZ,R-AccX,R-AccY,R-AccZ,R-GyrX,R-GyrY,R-GyrZ,timestamp
-0.01125,-0.04875,0.115,-0.0037375,-0.002045,-0.0033725,0.02875,0.07125,0.075,-0.003905,-0.003585,0.00091500004,1742001701.148164
-0.12875,-0.04875,0.1025,0.0252675,0.0078724995,0.0272975,-0.04625,0.01875,0.04125,-0.026870001,-0.03125,0.0239575,1742001701.261722
0.0125,0.0875,0.19625,-0.003205,0.038315,-0.0258325,-0.12375,0.07625,0.2425,-0.01204,0.0139,0.063325,1742001701.3756511
0.04625,-0.28875,0.1775,-0.0352325,0.08133,-0.021225,-0.04875,0.37,0.10375,-0.011229999,0.074112505,0.018035,1742001701.489801
0.01875,-0.08375,-0.0375,0.026215,0.0553125,0.049072497,-0.06375,0.13875,-0.05125,-0.0122825,0.062759995,-0.0903925,1742001701.60371
-0.0025,-0.00375,-0.02625,0.057555,-0.04364,0.04271,-0.02,-0.0075,-0.04875,-0.0364525,0.0013425,-0.064942494,1742001701.7179992
-0.14875,-0.00125,0.12625,0.068207495,-0.0945575,-0.02481,-0.0725,-0.06125,0.02875,-0.0538475,-0.079375,0.019805001,1742001701.833162
-0.08375,-0.14375,0.33125,0.0094,0.0402225,-0.1064,-0.205,0.1175,0.3175,-0.0304575,-0.0066225,0.1097875,1742001701.9457998
0.0425,-0.34375,0.12125,-0.0225975,0.10054,-0.0077975,-0.045,0.435,0.26375,0.0076149995,0.0623175,0.030015,1742001702.059793
-0.04,-0.09,-0.0525,0.0346975,0.04837,0.070695,-0.1225,0.15875,-0.055,-0.0050500003,0.08754,-0.08162,1742001702.17428
-0.02125,0.015,-0.03625,0.049682498,-0.043885,0.037735,-0.0275,-0.04625,-0.08,-0.0534975,0.0054025003,-0.048217498,1742001702.28782
-0.14875,0.02,0.1375,0.0508125,-0.085205,-0.027787501,-0.10625,-0.03625,0.04875,-0.03514,-0.0671225,0.02388,1742001702.401793
-0.05375,-0.12625,0.3275,0.0220325,0.041977502,-0.10791001,-0.1625,0.04,0.3375,-0.02658,-0.0189975,0.10321,1742001702.517212
0.02125,-0.35125,0.1175,-0.0224925,0.102555,-0.0113525,-0.05375,0.49125,0.27875,0.01451,0.0693975,0.0396275,1742001702.634874
-0.03875,-0.0825,-0.0425,0.024977501,0.05307,0.060135,-0.12875,0.12375,-0.04375,-0.019790001,0.098464996,-0.069230005,1742001702.743932
-0.0025,-0.0075,-0.04375,0.0455025,-0.0260775,0.04422,-0.0175,0.0025,-0.0675,-0.0529475,0.010865,-0.0535425,1742001702.857842
-0.0525,0.03375,0.0725,0.0679025,-0.0924675,0.0054475004,-0.02125,-0.03,-0.015,-0.0504,-0.062165,0.0025775002,1742001702.976678
-0.10375,-0.06125,0.31625,0.0316775,0.023895001,-0.096007496,-0.20875,0.01625,0.31375,-0.048005,-0.042099997,0.0938275,1742001703.085699
0.0875,-0.365,0.15,-0.03836,0.075165,-0.055069998,-0.065,0.365,0.34875,0.028930001,0.0311725,0.099120006,1742001703.199888
-0.035,-0.15625,-0.0225,0.02066,0.074447505,0.065932505,-0.095,0.25625,0.0075,-0.00917,0.098985,-0.0517575,1742001703.3168058
-0.005,-0.0175,-0.04,0.0493625,0.00293,0.0520325,-0.03625,0.0075,-0.06375,-0.0413675,0.047837503,-0.063080005,1742001703.435391
-0.0125,0.01125,0.00375,0.04622,-0.072569996,0.01204,-0.0025,-0.025,-0.0425,-0.0587475,-0.0346075,-0.0019824998,1742001703.54481
-0.12875,0.02875,0.2825,0.02011,-0.04042,-0.054732498,-0.12,0.015,0.17625,-0.03157,-0.0674275,0.061615,1742001703.6588979
-0.03,-0.23375,0.29,-0.0025025,0.0463875,-0.08935501,-0.1175,0.2225,0.355,0.0119325,0.0111075,0.104415,1742001703.77586
-0.00625,-0.30125,0.01875,-0.00882,0.082825,0.018584998,-0.0575,0.3775,0.16875,0.0054775,0.0826875,0.0005025,1742001703.886765
-0.01875,-0.07,-0.0275,0.0363625,0.0202625,0.0626675,-0.07875,0.095,-0.04,-0.025222499,0.0620425,-0.07521,1742001704.000832
-0.01125,0.01,0.015,0.04193,-0.036330003,0.042494997,-0.01,-0.0025,-0.03375,-0.047485,0.0001825,-0.0450125,1742001704.116257
-0.06125,0.01875,0.0875,0.048935,-0.0683125,-0.0043800003,-0.035,-0.03125,0.05125,-0.0426025,-0.053085,0.001465,1742001704.228823
-0.09875,-0.1025,0.31125,0.0307,0.024292499,-0.104415,-0.13625,0.01875,0.27875,-0.0336,-0.044982497,0.0980975,1742001704.342745
0.055,-0.34875,0.1825,-0.0372775,0.096527494,-0.0290375,-0.07875,0.4525,0.3875,0.020934999,0.06369,0.0620125,1742001704.4816341
-0.05625,-0.105,-0.0225,0.01883,0.076995,0.0558925,-0.13625,0.1575,-0.02,-0.024430001,0.1080625,-0.0621025,1742001704.579409
-0.0075,-0.00625,-0.045,0.044907503,0.002075,0.044525,-0.01625,0.00875,-0.065,-0.041840002,0.038865,-0.048279997,1742001704.684774
0.005,0.0225,-0.01625,0.062835,-0.076585,0.0123149995,0.01875,-0.03375,-0.0625,-0.0508125,-0.05127,-0.0101025,1742001704.7987661
-0.14375,-0.03125,0.32125,0.040467497,-0.0143125,-0.098985,-0.17375,-0.065,0.205,-0.0564875,-0.082015,0.097137496,1742001704.9169312
0.04,-0.355,0.21125,-0.029435,0.080415,-0.0753025,-0.16375,0.32125,0.45875,-0.00534,0.014375,0.1262975,1742001705.0268009
-0.03125,-0.17375,-0.045,0.021514999,0.08963,0.064255,-0.10625,0.26625,0.0175,-0.0234825,0.1142575,-0.0450125,1742001705.140888
-0.0,-0.0225,-0.03875,0.0462025,0.011565,0.0576925,-0.02125,0.01375,-0.075,-0.0302875,0.0458825,-0.067475,1742001705.257674
-0.00625,0.00375,-0.0075,0.067870006,-0.071669996,0.0165875,0.01125,-0.00375,-0.0475,-0.063292496,-0.0398875,-0.01329,1742001705.37691
-0.15875,0.01625,0.27125,0.0195775,-0.0502775,-0.073212504,-0.1075,-0.0425,0.12125,-0.050125,-0.0963125,0.060652502,1742001705.482827
0.0275,-0.28375,0.2825,-0.0061025,0.0570075,-0.0947575,-0.14125,0.2275,0.41875,0.0174725,0.005005,0.1204075,1742001705.597484
-0.02375,-0.25125,-0.00625,-0.018432502,0.10028,0.029129999,-0.03,0.3075,0.0975,-0.0056925,0.1047525,-0.019012501,1742001705.718176
0.00125,-0.0425,-0.03625,0.042632498,0.03061,0.0549,-0.06625,0.03625,-0.0625,-0.0240325,0.059722498,-0.082,1742001705.824676
0.00375,-0.0,-0.015,0.063935004,-0.06514,0.0225225,0.0075,0.01375,-0.0575,-0.063567504,-0.0248425,-0.02588,1742001705.938748
-0.11,0.02,0.2,0.0413825,-0.0626675,-0.05545,-0.1025,-0.0525,0.07375,-0.039474998,-0.0939475,0.04367,1742001706.0528
0.025,-0.30625,0.32125,-0.01175,0.0514825,-0.100005,-0.1375,0.2175,0.42,0.0042125,0.0010975,0.121445,1742001706.166713
0.03125,-0.235,0.01125,0.0027774998,0.094574995,0.0426475,-0.04375,0.32625,0.12125,0.0018925001,0.112059996,-0.018280001,1742001706.280593
0.0025,-0.0325,-0.03625,0.03453,0.031585,0.06009,-0.06375,0.045,-0.07375,-0.046630003,0.051772498,-0.08168,1742001706.3974578
0.00125,0.01125,-0.00875,0.06604,-0.0537875,0.02716,0.0075,-0.02125,-0.04625,-0.0520775,-0.027375,-0.0348825,1742001706.5086348
-0.09875,0.015,0.14875,0.04599,-0.065519996,-0.044127498,-0.08875,-0.04875,0.0625,-0.04164,-0.084,0.03534,1742001706.622854
0.01375,-0.2575,0.3325,-0.0184175,0.05896,-0.10553,-0.23875,0.13375,0.32875,-0.0605925,-0.0055225003,0.1251225,1742001706.738059
0.0525,-0.245,0.00125,-0.012345,0.0953075,0.0387875,0.02125,0.41125,0.01125,-0.0027325,0.096145,-0.0393675,1742001706.858835
0.0075,-0.04375,-0.035,0.03,0.039245,0.051895,-0.04875,0.04,-0.07875,-0.00502,0.05162,-0.0863025,1742001706.9646451
0.01375,-0.015,-0.025,0.05667,-0.041885,0.020202499,0.0075,-0.005,-0.045,-0.046005,-0.017012501,-0.0295725,1742001707.07871
-0.08875,0.03875,0.17375,0.0634625,-0.0800325,-0.03975,-0.0575,-0.0025,0.0425,-0.032654997,-0.075195,0.031845,1742001707.1994681
-0.05125,-0.17875,0.26,0.0020899998,0.0420675,-0.1147,-0.205,0.0475,0.25875,-0.031905,-0.0022425,0.1283275,1742001707.306907
0.05875,-0.32625,0.075,-0.026215,0.0988925,0.0169375,-0.05625,0.5,0.195,0.012604999,0.092544995,-0.0026099999,1742001707.420635
-0.0175,-0.0875,-0.0225,0.028885,0.04045,0.06218,-0.13,0.1025,-0.0875,-0.025772499,0.0674275,-0.1055,1742001707.543437
-0.00875,-0.03375,-0.02875,0.050950002,-0.03827,0.036422502,-0.00875,-0.01625,-0.065,-0.04457,-0.0012825,-0.046372503,1742001707.6591191
-0.1175,0.02375,0.1475,0.050645,-0.09764,-0.00508,-0.0825,0.00125,0.0125,-0.035415,-0.08438,0.0196375,1742001707.7628212
0.01,-0.105,0.3625,0.0015725,0.032975,-0.11995,-0.2025,0.12125,0.33625,-0.0417625,0.018142499,0.122285,1742001707.8798609
0.0675,-0.2625,0.075,-0.035492502,0.0956275,-0.0037525,-0.005,0.495,0.11375,0.021745,0.091934994,-0.000655,1742001708.00099
0.0,-0.08,-0.0325,0.0408025,0.0482475,0.053315,-0.0525,0.12375,-0.08125,-0.0213325,0.0540625,-0.091415,1742001708.104683
0.005,-0.015,-0.02875,0.0559225,-0.027115,0.028365,0.0025,-0.00125,-0.04,-0.0461575,-0.0139925005,-0.0473475,1742001708.2205482
-0.07875,0.02625,0.0975,0.0534975,-0.09326249,-0.0043800003,-0.0425,0.025,0.025,-0.0494525,-0.064347506,0.0127725,1742001708.339583
-0.07,-0.0625,0.2875,0.034455,0.015029999,-0.11116,-0.11875,-0.03375,0.22625,-0.045745,-0.03218,0.09814499,1742001708.446955
0.05875,-0.3275,0.14875,-0.037017502,0.076875,-0.048995,-0.10625,0.30125,0.33875,-0.0110775,0.0376275,0.0950625,1742001708.565156
-0.01875,-0.175,-0.01,0.02089,0.070815004,0.0685725,-0.07125,0.25375,-0.01,-0.004685,0.0938275,-0.061279997,1742001708.680473
0.00375,-0.0175,-0.0175,0.0451825,0.0107125,0.051575,-0.02375,0.03875,-0.0425,-0.0340875,0.0360725,-0.0742025,1742001708.788566
-0.00375,0.015,0.01875,0.0538325,-0.05806,0.01471,0.01,-0.005,-0.01625,-0.0558925,-0.0372475,-0.0148925,1742001708.902784
-0.08125,0.00625,0.215,0.046035,-0.0493325,-0.062087502,-0.08625,-0.03375,0.165,-0.0352325,-0.071595,0.042372502,1742001709.0231302
-0.0175,-0.24,0.2625,-0.0027474998,0.0422675,-0.110029995,-0.15,0.1575,0.26,-0.0074475002,0.002655,0.1150675,1742001709.141518
0.04625,-0.24375,0.08,-0.0111225005,0.0885325,0.0136575,-0.04125,0.4325,0.14625,0.0051725,0.0771325,0.01059,1742001709.244766
0.0075,-0.0925,-0.01,0.0184175,0.059205003,0.05754,-0.07375,0.14,-0.035,-0.014145001,0.068620004,-0.084915,1742001709.361943
0.0225,-0.01875,-0.01125,0.05629,-0.012405,0.042740002,0.01875,-0.00125,-0.035,-0.0464775,0.00949,-0.061065,1742001709.4821289
-0.01,-0.00125,0.01875,0.053695,-0.06717,0.01146,0.025,-0.00125,0.00125,-0.05014,-0.0452275,-0.0099949995,1742001709.586762
-0.10625,0.06,0.28375,0.021897499,-0.0189675,-0.09929,-0.16,-0.06625,0.18,-0.033142503,-0.08544999,0.0729225,1742001709.701099
0.0075,-0.3125,0.27625,-0.033142503,0.0614025,-0.0868525,-0.15125,0.20625,0.38125,0.020295,0.02542,0.108125,1742001709.821187
-0.00125,-0.19125,0.00875,-0.000305,0.096695,0.0355075,-0.02625,0.28625,0.0925,0.0178075,0.0959925,-0.0237575,1742001709.94112
0.02375,-0.045,-0.03,0.0476375,0.025757499,0.052977502,-0.05875,0.0375,-0.06,-0.0272225,0.0640875,-0.08583,1742001710.044846
0.01,-0.02,0.00125,0.0664825,-0.040755,0.03035,0.035,-0.02625,-0.04125,-0.059982497,-0.0101025,-0.0396425,1742001710.1621199
-0.08,0.00625,0.15375,0.041702498,-0.0800025,-0.013412501,-0.03375,-0.01,0.0225,-0.05548,-0.0685275,0.018280001,1742001710.282024
-0.07125,-0.055,0.28875,0.02684,0.0146175,-0.1122125,-0.20125,0.02625,0.27125,-0.03427,-0.024415001,0.120697506,1742001710.384761
0.07125,-0.28,0.1525,-0.039735,0.07779,-0.0425875,-0.11875,0.3475,0.31875,-0.029450001,0.047485,0.08249,1742001710.503846
-0.0125,-0.125,0.0025,0.0130925,0.0755775,0.04921,-0.10375,0.19875,-0.02125,-0.003525,0.090697505,-0.069107495,1742001710.6218472
0.03375,-0.03625,-0.02375,0.061325002,0.00531,0.040695,-0.00375,0.01625,-0.04625,-0.04068,0.0379025,-0.0673675,1742001710.726683
-0.0075,-0.015,0.01,0.062255003,-0.074447505,0.015717499,0.03375,-0.01,-0.03,-0.0593875,-0.038099997,-0.005065,1742001710.841221
-0.11625,0.11625,0.3225,0.03743,-0.029205,-0.08544999,-0.16375,-0.06875,0.215,-0.0258625,-0.0833275,0.074355006,1742001710.9613702
0.0375,-0.30375,0.26625,-0.036805,0.059905,-0.08017,-0.1475,0.2775,0.3925,0.007905,0.0295875,0.11789,1742001711.080679
-0.00125,-0.18125,-0.0075,0.0140225,0.101317495,0.0437475,-0.04375,0.25625,0.04375,-0.0076,0.11083999,-0.03952,1742001711.182606
0.03,-0.02125,-0.04,0.056029998,0.02504,0.04515,-0.0375,0.03,-0.0675,-0.0340425,0.047485,-0.074967496,1742001711.301535
-0.02125,-0.01125,-0.01875,0.06067,-0.068955004,0.013885,-0.0075,-0.0,-0.0625,-0.06227,-0.038512502,-0.0187825,1742001711.421736
-0.1525,0.05125,0.275,0.0308525,-0.06723,-0.0481425,-0.18375,-0.02125,0.15,-0.051055,-0.110489994,0.0541525,1742001711.5248141
-0.03375,-0.32875,0.335,-0.0369875,0.0534825,-0.1262825,-0.23,0.27875,0.35,-0.021775,0.034392502,0.14982499,1742001711.642853
0.01625,-0.23875,0.03875,-0.002625,0.118760005,0.023225,-0.04,0.33875,0.0275,4.5e-05,0.1112675,-0.02008,1742001711.762311
0.0225,-0.03375,-0.04875,0.066575,0.03926,0.0770875,-0.09,0.06875,-0.10125,-0.033965,0.05931,-0.12911999,1742001711.8666089
0.0125,0.0,-0.03375,0.090255,-0.05211,0.021455,0.05,-0.10125,-0.0475,-0.0897825,-0.031815,-0.04399,1742001711.982861
-0.25125,0.02,0.24375,0.04622,-0.098404996,-0.054397497,-0.2125,0.01625,-0.0025,-0.033889998,-0.075652495,0.064347506,1742001712.107593
-0.05875,-0.3225,0.34375,-0.0175925,0.05748,-0.12793,-0.31,0.14625,0.37375,-0.0096125,-0.00441,0.13618499,1742001712.2088
0.04125,-0.25625,0.0375,-0.017165001,0.112152494,-0.004685,-0.1175,0.41875,0.18375,-0.02153,0.086182505,0.0222925,1742001712.322794
0.01875,-0.05875,-0.03625,0.0411375,0.045470003,0.0670925,-0.1275,0.06625,-0.05125,-0.0107275,0.108872496,-0.09326249,1742001712.443449
0.02,-0.0325,-0.025,0.0794975,-0.031615,0.0405575,0.005,-0.0375,-0.06375,-0.0655375,0.0216825,-0.0538625,1742001712.550684
-0.115,0.00875,0.12875,0.079330005,-0.0966025,-0.012435,-0.0525,-0.015,-0.03875,-0.0650775,-0.0950925,0.0230875,1742001712.664839
-0.14875,-0.1225,0.335,0.0416875,0.0223225,-0.1222675,-0.34,-0.0475,0.35,-0.038330004,-0.041275002,0.1395575,1742001712.782453
0.01125,-0.265,0.12,-0.03955,0.1024775,-0.0481425,-0.1925,0.35875,0.2075,-0.0732575,0.072785005,0.086440004,1742001712.9019651
-0.01125,-0.125,-0.04375,0.034805,0.0755,0.076615,-0.135,0.1975,-0.06875,-0.0201875,0.0947575,-0.090027496,1742001713.006645
0.00375,-0.03,-0.03625,0.07666001,-0.003815,0.0605925,-0.03375,-0.0175,-0.0675,-0.0621025,0.017059999,-0.0788575,1742001713.122484
-0.1,0.0275,0.1525,0.0779725,-0.0817425,-0.03659,-0.07875,-0.005,0.01875,-0.074324995,-0.094330005,0.0287025,1742001713.242363
-0.08625,-0.19,0.31375,0.0198375,0.0328825,-0.1322025,-0.27125,0.12125,0.355,-0.026275,-0.0074,0.1280975,1742001713.348661
0.05625,-0.265,0.05375,-0.0346675,0.0956875,-0.022705,-0.15125,0.38,0.145,-0.03534,0.0788875,0.060622502,1742001713.4626439
0.00625,-0.09125,-0.055,0.0392,0.051009998,0.074065,-0.11625,0.21875,-0.09875,-0.038542498,0.061950002,-0.1092825,1742001713.581831
0.02125,-0.0325,-0.0225,0.084015,-0.03807,0.0419625,0.00125,-0.0125,-0.0575,-0.0555875,-0.024657499,-0.075715,1742001713.7033951
-0.1,-0.0025,0.1,0.050582502,-0.0794675,-0.059005,-0.09625,-0.00625,0.02625,-0.0702525,-0.07756,0.038939998,1742001713.8047109
-0.11125,-0.22,0.26375,0.0266125,0.042525,-0.111449994,-0.2875,0.0975,0.24875,-0.021879999,-0.00055,0.12873751,1742001713.923281
0.01125,-0.26625,0.06375,-0.02028,0.099870004,-0.0013725,-0.17,0.4025,0.14125,-0.028672501,0.0744175,0.04123,1742001714.0456839
-0.01125,-0.12125,-0.0325,0.0260775,0.059845,0.075715,-0.13375,0.20125,-0.07875,-0.032715,0.056442503,-0.1086575,1742001714.146672
0.00625,-0.05125,-0.0225,0.074005,-0.031770002,0.057494998,-0.00625,-0.02625,-0.04125,-0.036255002,-0.016097499,-0.095230006,1742001714.2620249
-0.11,-0.00625,0.0975,0.064682506,-0.0982675,-0.012207501,-0.05375,-0.0325,0.00125,-0.0594175,-0.072569996,0.0133825,1742001714.3828092
-0.07375,-0.08125,0.30125,0.022444999,0.01892,-0.109877504,-0.23125,0.04125,0.19375,-0.0340125,-0.02652,0.11705,1742001714.488731
-0.03375,-0.26625,0.13,-0.03241,0.0971975,-0.044907503,-0.22375,0.235,0.28875,-0.0605475,0.03328,0.0964975,1742001714.602698
-0.005,-0.1675,-0.005,0.0015725,0.0708625,0.0529175,-0.1425,0.27625,-0.0525,-0.026185,0.080765,-0.082260005,1742001714.7224152
0.03375,-0.04,-0.01625,0.056442503,0.0079499995,0.059555,-0.0375,0.01875,-0.0425,-0.027069999,0.0178975,-0.10881,1742001714.84209
-0.005,-0.0075,0.03,0.076919995,-0.0735625,0.0308225,0.03375,0.00625,-0.0325,-0.0650775,-0.0469525,-0.0213325,1742001714.944656
-0.09,0.0775,0.22125,0.06015,-0.05066,-0.0732425,-0.15375,-0.09,0.1725,-0.0387425,-0.0856775,0.078705005,1742001715.066564
-0.05625,-0.22375,0.3075,-0.0302125,0.0553425,-0.098495,-0.26,0.1775,0.28125,0.0234225,0.009185,0.13266,1742001715.1822112
0.03125,-0.2075,0.085,-0.0180675,0.1015625,0.0049274997,-0.14875,0.275,0.1775,-0.029082501,0.091400005,0.0027474998,1742001715.286477
0.02125,-0.0675,-0.0275,0.0370025,0.047805,0.0564725,-0.11125,0.12125,-0.05125,-0.027709998,0.074172504,-0.09439,1742001715.403002
0.02625,-0.01125,-0.01375,0.052810002,-0.02028,0.039307497,0.015,-0.0025,-0.045,-0.0387575,0.011445,-0.0652625,1742001715.524676
-0.015,0.00375,0.06625,0.04895,-0.066787496,0.022950001,0.01375,0.00125,0.015,-0.04268,-0.051575,-0.0207975,1742001715.6284769
-0.0875,0.0675,0.19,0.0443275,-0.053772498,-0.044602502,-0.1275,-0.02625,0.1525,-0.029129999,-0.08307,0.042770002,1742001715.742625
-0.04375,-0.15625,0.19625,-0.0012675,0.019087499,-0.116257496,-0.1875,0.06875,0.2275,0.0028225,-0.007005,0.1112675,1742001715.861823
0.075,-0.17625,0.0475,0.0024249998,0.0090625,-0.00389,-0.03125,0.19,0.0825,-0.050415,0.0172575,0.04802,1742001715.9828281
0.02875,-0.08125,0.09375,0.005965,-0.0018150001,0.0356,-0.0225,0.10625,0.06,0.0037375,0.024825001,0.003815,1742001716.0845098
0.01125,-0.05875,0.10125,0.0029749998,0.0019225,0.031495,-0.03625,0.055,0.085,-0.00859,-0.0031125,-0.0148775,1742001716.2054799
0.0075,-0.03375,0.10375,0.00059500005,-0.0107875,0.00972,-0.0375,0.0425,0.10625,-0.0054175,-0.0076599997,-0.011047499,1742001716.3225012
-0.00875,-0.05375,0.11125,-0.00293,-0.011505,0.000535,-0.05125,0.0625,0.1025,-0.0043025,-0.0033575,-0.00435,1742001716.425707
-0.005,-0.04875,0.1175,-0.0090625,-0.0072025,0.00091500004,-0.0425,0.05875,0.0975,-0.0057225,-0.004745,0.000275,1742001716.546282
