L-AccX,L-AccY,L-AccZ,L-GyrX,L-GyrY,L-GyrZ,R-AccX,R-AccY,R-AccZ,R-GyrX,R-GyrY,R-GyrZ,timestamp
-0.0125,-0.06125,0.15875,-0.0037525,0.0002125,0.0007625,-0.06,0.0675,0.1025,-0.0057525,-0.000625,0.00267,1742001657.387638
0.0,-0.07375,0.13875,0.0030675002,0.049195,0.0379475,-0.06,0.06125,0.125,0.000365,0.00612,-0.000305,1742001657.49767
0.0475,0.0125,-0.00125,-0.0001825,0.0251475,0.0240025,-0.08875,0.12125,0.2175,0.00998,0.0469675,-0.02176,1742001657.6155572
0.02375,0.02125,-0.01,0.028549999,-0.04486,-0.0269325,-0.0025,0.03,0.02,0.018492501,0.0528875,-0.027602501,1742001657.7363431
-0.00875,-0.08875,0.1125,0.0114750005,-0.08342,-0.062529996,0.00875,0.0075,-0.00375,0.00122,-0.00647,0.000855,1742001657.852566
-0.06,-0.0975,0.2275,0.0093075,0.0284125,-0.010575,-0.02,0.01625,-0.02,-0.028045,-0.06192,0.037474997,1742001657.953013
-0.0575,-0.1,0.10625,-0.01599,0.063095,0.025557501,-0.36,0.26625,0.5,0.0562275,-0.00032,-0.03325,1742001658.066921
0.01375,-0.02875,0.0175,-0.01709,0.0422975,0.019425,-0.08875,0.09,0.18875,0.0150150005,0.04799,-0.0275125,1742001658.18074
0.04875,-0.01125,0.01125,0.00557,-0.0104225,-0.0068975003,-0.0075,0.04,0.0425,0.015975,0.057997502,-0.0180975,1742001658.294878
0.01375,-0.0325,0.0175,0.01535,-0.062255003,-0.0375825,0.0275,0.01375,0.01125,0.00685,0.0075675,-0.000107500004,1742001658.415383
-0.30625,-0.28375,0.5,-0.0059975,-0.0275425,0.0080575,0.00875,0.00875,0.01375,-0.0181125,-0.041275002,0.026885001,1742001658.53306
-0.07375,-0.1025,0.14625,-0.0112924995,0.050217498,0.022705,-0.1075,0.11125,0.0775,-0.0401925,-0.105255,0.04042,1742001658.65099
-0.005,-0.0525,0.04375,-0.0160675,0.05313,0.02359,-0.09125,0.14375,0.1825,0.008805,0.0310375,-0.0143425,1742001658.75432
0.045,-0.0075,0.0075,0.0012050001,0.0074925,0.00171,-0.03125,0.05625,0.06625,0.019685,0.0594025,-0.027725,1742001658.873249
0.0175,-0.015,-0.005,0.0210275,-0.0535725,-0.03308,0.03125,0.02125,0.01625,0.0063325,0.023605,-0.0116875,1742001658.9917812
-0.17375,-0.19875,0.2975,0.0125875,-0.0873425,-0.023835,0.025,0.015,0.01,-0.01068,-0.026397498,0.016602501,1742001659.094223
-0.09875,-0.10625,0.16375,-0.0164025,0.04306,0.029450001,-0.06125,0.03875,-0.0175,-0.024139998,-0.09423751,0.044907503,1742001659.213184
-0.01125,-0.06,0.0475,-0.01834,0.05873,0.030547502,0.01625,0.07,0.115,0.012635,0.0189975,0.00711,1742001659.331962
0.04875,-0.00625,0.00375,0.00079250004,0.01468,0.007645,-0.0425,0.08625,0.0975,0.0222025,0.05684,-0.028045,1742001659.433784
0.02125,-0.00625,0.00875,0.017700002,-0.044740003,-0.02861,0.02125,0.02375,0.0125,0.0062399996,0.03415,-0.0151525,1742001659.547881
-0.08625,-0.0825,0.08,0.023255,-0.0907125,-0.05516,0.02375,0.0125,0.0125,-0.0047750003,-0.0174875,0.0107725,1742001659.6758962
-0.05125,-0.1,0.145,-0.0127725,0.0299825,0.0228125,-0.05,0.02875,-0.015,-0.023635,-0.073714994,0.039535,1742001659.790625
-0.02625,-0.07125,0.075,-0.01805,0.066360004,0.03595,-0.02375,0.15,0.38125,-0.0090175,0.0095225,0.006745,1742001659.8948858
0.03875,-0.015,-0.0025,-0.0086975,0.0347125,0.0168925,-0.0525,0.1025,0.1375,0.016875,0.051772498,-0.022827499,1742001660.014347
0.04375,-0.00875,-0.00375,0.0113375,-0.0319375,-0.01982,-0.0075,0.0525,0.03375,0.0058449996,0.052415002,-0.025925,1742001660.1336079
-0.05625,-0.0425,0.0125,0.0098275,-0.0968625,-0.04715,0.03875,0.01875,0.0025,-0.0008075,0.0027925,-0.00409,1742001660.231914
-0.01625,-0.09875,0.12125,-0.0027325,0.0326375,-0.0083475,0.00125,0.01,-0.01625,-0.022705,-0.06018,0.033875,1742001660.355121
-0.0275,-0.085,0.1075,-0.0173175,0.055494998,0.023772499,-0.25625,0.18875,0.325,0.0267325,-0.054,0.046067502,1742001660.4716291
0.025,-0.035,0.02875,-0.0107425,0.047119997,0.0225075,-0.0925,0.105,0.165,0.004395,0.039107498,-0.032592498,1742001660.573707
0.05375,-0.01,0.005,0.0051125004,-0.0030525,-0.0016925,-0.01625,0.05625,0.04875,0.0175025,0.059830002,-0.028959999,1742001660.687807
-0.00625,-0.0175,-0.0125,0.021775,-0.0689075,-0.0365,0.0375,0.0325,0.00875,0.0022274998,0.017959999,-0.01126,1742001660.812532
-0.4325,-0.46125,0.5,0.0172425,-0.0226125,0.0134725,0.01875,0.01375,-0.0075,-0.0128625,-0.04045,0.0175625,1742001660.916733
-0.0575,-0.10375,0.14625,-0.012802499,0.049775,0.023285,-0.0875,0.00375,-0.00625,-0.021317499,-0.097519994,0.05655,1742001661.0362701
0.00375,-0.06125,0.04625,-0.02182,0.0612325,0.032470003,-0.06625,0.04375,0.07375,-0.0013575,0.0302125,-0.0001975,1742001661.155788
0.05375,-0.015,-0.0075,-0.0031275,0.017975,0.008407501,-0.03875,0.08125,0.075,0.012542499,0.062515,-0.034287497,1742001661.257805
0.02375,-0.01125,-0.015,0.02069,-0.0596775,-0.0311725,0.03,0.03625,0.00625,0.0054475004,0.03659,-0.0237575,1742001661.37186
-0.09125,-0.05,0.04625,0.00882,-0.109910004,-0.0497425,0.0425,0.01875,-0.005,-0.008545,-0.0202175,0.0074475002,1742001661.490849
-0.08125,-0.1075,0.15625,-0.0099949995,0.0345,0.022002501,-0.0425,0.01875,-0.01625,-0.012604999,-0.0848075,0.04361,1742001661.612782
-0.00375,-0.055,0.04625,-0.019012501,0.052245,0.0263525,-0.08,0.13375,0.3675,-0.0178975,0.010345,-0.0045925,1742001661.713853
0.04625,-0.03,0.02375,-0.0010825,0.0131075,0.008545,-0.03125,0.09125,0.11,0.0148325,0.0567775,-0.031799998,1742001661.833475
0.02375,-0.01375,0.01625,0.0130625,-0.03978,-0.022965001,0.0225,0.0325,0.015,0.010375,0.036009997,-0.0204475,1742001661.9418209
-0.05125,-0.03,0.03125,0.014495,-0.085555,-0.046462502,0.03875,0.0175,0.01375,-0.0022725,-0.01265,0.0074775,1742001662.071535
-0.05875,-0.08,0.1375,-0.0072325002,0.028732501,0.0112924995,-0.04125,0.0275,-0.00375,-0.01349,-0.0664375,0.041794997,1742001662.171489
-0.0175,-0.0725,0.085,-0.0154725,0.0600275,0.03041,-0.15,0.2025,0.40625,-0.03125,0.012252499,-0.0078724995,1742001662.2921689
0.04625,-0.0225,0.00375,-0.0090625,0.0369575,0.017012501,-0.04,0.095,0.13,0.008225,0.0500025,-0.02797,1742001662.412534
0.04625,-0.0075,-0.005,0.0125725,-0.032395,-0.0164175,0.00125,0.04875,0.03,0.010545,0.0526125,-0.02925,1742001662.511998
-0.05375,-0.06625,0.0025,0.011505,-0.090697505,-0.0485375,0.0475,0.025,0.00125,-0.0019075,0.00016750001,-0.0064850003,1742001662.633116
-0.00125,-0.1,0.13,0.0001225,0.0284875,-0.0029749998,-0.01,0.00625,-0.0125,-0.01422,-0.0532075,0.03955,1742001662.755578
-0.04375,-0.10375,0.125,-0.0092,0.05844,0.025742501,-0.16125,0.00125,0.1025,-0.01004,-0.088395,0.072372496,1742001662.8538508
0.01625,-0.045,0.0225,-0.014755,0.0579675,0.031495,-0.0975,0.135,0.1725,0.012542499,0.03218,-0.02069,1742001662.973999
0.06625,-0.0025,-0.02375,0.006255,-0.0016625,0.00531,-0.04125,0.0725,0.07375,0.010284999,0.065735,-0.03688,1742001663.0958679
0.0075,-0.0175,-0.0225,0.0255275,-0.071595,-0.0408325,0.0375,0.02375,0.0025,0.0080725,0.032715,-0.0243375,1742001663.1958358
-0.2625,-0.3175,0.39625,0.004745,-0.0673675,-0.0148175005,0.04875,0.00625,-0.015,-0.00859,-0.026855,0.01422,1742001663.31198
-0.08625,-0.10875,0.17125,-0.0063625,0.035065,0.0201575,-0.07125,0.0225,-0.02625,-0.008529999,-0.095322505,0.0608825,1742001663.4358668
-0.01,-0.08375,0.0725,-0.01953,0.06572,0.0293875,-0.0075,0.17625,0.23375,0.0234675,0.0114750005,-0.00705,1742001663.537812
0.05375,-0.01375,-0.01,-0.011565,0.035155,0.016815001,-0.06375,0.1175,0.1425,0.0055549997,0.05037,-0.027175,1742001663.6517801
0.04375,-0.0125,-0.02125,0.0195625,-0.0382375,-0.0158225,-0.00625,0.04625,0.015,0.0066825,0.062745,-0.039490003,1742001663.771507
-0.05625,-0.04625,0.00625,0.0166325,-0.102644995,-0.0487375,0.05625,0.01,-0.03,-0.004105,0.0034625002,-0.00708,1742001663.8928902
-0.01875,-0.06375,0.08375,-0.0081775,0.033127498,-0.01036,-0.0025,0.0,-0.02625,-0.012345,-0.073685,0.044585,1742001663.993897
-0.03,-0.1025,0.1,-0.022645,0.0637825,0.030272499,-0.28875,0.15125,0.275,-0.0024100002,-0.0680075,0.062377498,1742001664.1076999
0.03,-0.025,0.0025,-0.014587499,0.0490575,0.0299225,-0.12625,0.13,0.19375,-0.0114899995,0.034560002,-0.0325775,1742001664.235968
0.0525,0.00625,-0.03,0.0129700005,-0.014375,-0.008025,-0.04875,0.08,0.04,0.01039,0.0720675,-0.045975,1742001664.335653
-0.02,-0.02625,0.00125,0.0236675,-0.09201,-0.04959,0.0425,0.0025,-0.035,0.0012825,0.021879999,-0.0169975,1742001664.449754
-0.0225,-0.0725,0.25,0.008225,0.023345,-0.0018150001,0.0225,-0.0075,-0.035,-0.0083925,-0.0585625,0.040145002,1742001664.57286
-0.0475,-0.11125,0.1225,-0.013534999,0.05815,0.021637501,-0.1325,0.0075,-0.00875,0.006805,-0.1145175,0.071945,1742001664.6776829
0.0175,-0.0425,0.02625,-0.018875,0.058915,0.0301975,-0.09,0.1525,0.1675,-0.0154875005,0.0216975,-0.01538,1742001664.791575
0.0575,-0.0025,-0.02125,0.00566,-0.0048975,0.00032,-0.0725,0.10125,0.08125,0.0037075,0.068739995,-0.0463875,1742001664.9133801
0.0075,-0.01375,-0.01625,0.02588,-0.077605,-0.041855,0.03875,0.0175,-0.0225,0.0039975,0.0381625,-0.03093,1742001665.036107
-0.37875,-0.45625,0.5,-0.0084375,-0.0577075,0.0007025,0.04375,0.00875,-0.01875,-0.0054475004,-0.0387575,0.0214375,1742001665.1337159
-0.085,-0.10375,0.165,-0.0083475,0.0429375,0.0251775,-0.06875,0.015,-0.02625,-0.00171,-0.0950625,0.05954,1742001665.252563
-0.0,-0.0625,0.045,-0.01944,0.0635825,0.0322575,-0.01375,0.01875,0.115,0.034302503,0.011535,-0.00618,1742001665.375736
0.05875,-0.00125,-0.0125,-0.003875,0.0137775,0.0077825,-0.0575,0.10625,0.11125,0.00035,0.0691225,-0.0414275,1742001665.4756322
0.0275,-0.0075,-0.0175,0.02365,-0.0605,-0.03238,0.02,0.015,-0.02,0.007415,0.0520925,-0.0316475,1742001665.594377
-0.13875,-0.13125,0.17375,0.0125875,-0.098404996,-0.043275002,0.04875,-0.005,-0.035,-0.0024425,-0.022444999,0.0133675,1742001665.703938
-0.0875,-0.1375,0.1425,0.001435,0.0341175,0.0281075,-0.07,0.00375,-0.02875,-0.000825,-0.095855005,0.0602575,1742001665.834351
-0.0125,-0.0575,0.0575,-0.021805,0.0652325,0.038375,-0.01625,0.18125,0.22,0.045287497,0.0072775004,-0.012984999,1742001665.931625
0.055,0.00125,-0.00875,-0.012604999,0.02591,0.0116125,-0.0625,0.10875,0.125,-0.0016775,0.0627125,-0.045165002,1742001666.0539
0.045,-0.0,-0.00625,0.014205,-0.0450125,-0.028442498,0.00875,0.02375,-0.01125,0.008315,0.0590975,-0.044755,1742001666.1597471
-0.06875,-0.0175,0.00625,0.0140675,-0.099989995,-0.0584725,0.0675,-0.01375,-0.03875,-0.0001825,-0.00496,0.001495,1742001666.380117
-0.055,-0.11,0.11375,-0.002595,0.03569,0.0183575,-0.01625,0.0075,-0.03625,-0.0072925,-0.075972505,0.05452,1742001666.4980679
-0.015,-0.07,0.06875,-0.01587,0.064652495,0.04361,-0.41125,0.1975,0.4275,0.00586,-0.03157,0.0352925,1742001666.617562
0.05,-0.00375,-0.01375,-0.0131075,0.0343175,0.02124,-0.1275,0.11625,0.17875,-0.0119325,0.050095,-0.044662498,1742001666.721662
0.03875,-0.01,-0.02375,0.0213325,-0.0341025,-0.01657,-0.0025,0.0275,0.015,0.008315,0.071059994,-0.0479425,1742001666.8404129
-0.0475,-0.02875,0.01625,0.02211,-0.0979625,-0.05545,0.065,-0.01375,-0.03625,0.0036475,0.00737,-0.0063175,1742001666.9608588
0.00375,-0.06375,0.1225,-0.0031275,0.0350025,-0.0130475,0.01,-0.0025,-0.02625,-0.0042575,-0.0641175,0.0523225,1742001667.063199
-0.02625,-0.08125,0.09375,-0.0139625,0.062759995,0.0272675,-0.19875,0.0725,0.12125,-0.0181725,-0.1091,0.0761875,1742001667.177276
0.03875,-0.0275,0.00625,-0.0204175,0.047912497,0.022935,-0.10875,0.15375,0.18,-0.015685,0.0396575,-0.037474997,1742001667.291094
0.06375,-0.0,-0.01375,0.0077525,-0.0122675,-0.0074775,-0.04375,0.08,0.045,0.014375,0.0699625,-0.0537575,1742001667.405243
-0.0175,-0.02125,-0.0175,0.022125,-0.08516,-0.04338,0.0575,0.0,-0.04,0.0072175004,0.0266125,-0.024292499,1742001667.52163
-0.1975,-0.185,0.4025,0.017335,0.002335,0.02243,0.0375,-0.0,-0.03875,-0.0050500003,-0.05133,0.03566,1742001667.6431391
-0.06625,-0.105,0.1475,-0.00856,0.049072497,0.020675,-0.11875,0.01,-0.0175,0.012405,-0.1080025,0.069015,1742001667.747297
0.01375,-0.06125,0.0425,-0.018477501,0.054245,0.03096,-0.05375,0.055,0.09625,0.0038,0.01953,-0.00319,1742001667.861312
0.06,-0.01375,-0.0025,-0.000655,0.0085,0.0057975003,-0.06125,0.095,0.1,0.00045750002,0.0670175,-0.046372503,1742001667.978754
0.0225,-0.02125,-0.01,0.01805,-0.057785,-0.02919,0.03875,0.01375,-0.0175,0.008195,0.0440525,-0.0234525,1742001668.089279
-0.14875,-0.11,0.1525,0.017547501,-0.10321,-0.04831,0.04375,0.0125,-0.02375,-0.005005,-0.028535,0.0229025,1742001668.203271
-0.05625,-0.0675,0.13875,0.0043175,0.025742501,0.016432501,-0.0925,-0.0,-0.0275,0.00059500005,-0.0924525,0.061905,1742001668.320853
-0.01875,-0.0975,0.09,-0.0152425,0.06131,0.032165002,0.0075,0.08625,0.08875,0.02864,0.0175775,-0.0022274998,1742001668.442456
0.03875,-0.015,-0.00125,-0.012025,0.0374,0.022155,-0.07,0.12625,0.13625,-0.0038,0.04811,-0.026855,1742001668.563582
0.06,-0.0025,-0.0075,0.0148925,-0.026672501,-0.011779999,-0.02,0.065,0.0125,0.0038299998,0.061935,-0.04657,1742001668.6592839
-0.03125,-0.0325,0.0075,0.0225975,-0.08728,-0.04959,0.05125,0.01,-0.025,-0.0093225,0.009902501,-0.0149225,1742001668.778306
-0.03,-0.07625,0.2225,-0.0089875,0.031525,-0.013152501,0.01375,-0.00125,-0.03125,-0.009002499,-0.062805,0.0355225,1742001668.898709
-0.0325,-0.10375,0.115,-0.0139625,0.0567475,0.024977501,-0.17875,-0.04,0.08125,0.0084525,-0.1115875,0.0685575,1742001669.019402
0.0275,-0.02875,0.0175,-0.0208425,0.0532525,0.028397499,-0.10375,0.1575,0.15375,-0.012725,0.023225,-0.026504999,1742001669.115105
0.06625,0.0,-0.0075,0.00525,-0.0055549997,0.0020299999,-0.03875,0.06125,0.0475,0.0049125,0.071915,-0.0497125,1742001669.229129
-0.0025,-0.01,-0.01875,0.02365,-0.07518,-0.0447225,0.05,-0.0025,-0.02625,-0.0026099999,0.028747499,-0.021775,1742001669.3432891
-0.39375,-0.43375,0.48875,-0.0010525,-0.043442503,0.017625,0.04625,-0.01,-0.025,-0.00435,-0.042115003,0.0310375,1742001669.461931
-0.09,-0.1025,0.16625,-0.008909999,0.0484325,0.0280925,-0.105,-0.005,-0.02,-0.0015875,-0.09529,0.075775005,1742001669.581783
0.00625,-0.05125,0.0225,-0.023315001,0.0626825,0.027115,-0.03,0.00375,0.065,0.0278775,0.021835,-0.0078575,1742001669.70238
0.04875,-0.00625,-0.0125,-0.0016025,0.0018925001,-0.0001225,-0.07875,0.11375,0.10875,-0.00731,0.063905,-0.050765,1742001669.7992089
-0.00875,-0.01875,-0.02375,0.026535,-0.0811625,-0.0413525,0.0275,0.00125,-0.025,0.0056775,0.04097,-0.031205,1742001669.919376
-0.39,-0.43375,0.5,-0.0007175,-0.017012501,0.037779998,0.04375,-0.00875,-0.02875,-0.0057075,-0.028855,0.020477502,1742001670.03839
-0.09375,-0.0975,0.16625,-0.00534,0.03395,0.022155,-0.0875,0.0025,-0.01375,-0.0054775,-0.09398001,0.07222,1742001670.158754
-0.01125,-0.0775,0.065,-0.017959999,0.0579375,0.030030001,-0.00375,-0.02875,0.06375,0.015899999,0.023285,4.5e-05,1742001670.2551758
0.04625,-0.00875,-0.005,-0.009705,0.019685,0.0119925,-0.0825,0.14125,0.1225,-0.0031424998,0.0638275,-0.045945,1742001670.384732
0.02125,-0.015,-0.02125,0.0245525,-0.0544275,-0.02652,0.01625,0.01125,-0.02125,0.007965,0.05037,-0.0367425,1742001670.4832
-0.0925,-0.015,0.03625,0.02159,-0.1083225,-0.04959,0.05375,-0.00125,-0.04625,-0.0054775,-0.019257499,0.010345,1742001670.5994098
-0.095,-0.1425,0.1625,-0.009872501,0.035400003,0.0398875,-0.06875,-0.00375,-0.03625,-0.005355,-0.09143,0.060455002,1742001670.7194319
-0.01,-0.055,0.03375,-0.0229025,0.0626675,0.0310975,0.01125,0.0825,0.2025,0.0440075,0.00731,-0.01561,1742001670.839961
0.04125,-0.01,-0.01125,-0.005035,0.01712,0.0029000002,-0.0725,0.11375,0.135,0.006225,0.066955,-0.0431825,1742001670.939182
0.0075,-0.015,-0.01625,0.023345,-0.0605175,-0.0355225,0.00125,0.0075,-0.01875,0.005295,0.058105,-0.0204625,1742001671.053243
-0.295,-0.36375,0.46125,0.001785,-0.08679251,-0.0343775,0.03875,0.0025,-0.0275,-0.0052175,-0.019667499,0.0234375,1742001671.167243
-0.13,-0.15125,0.1575,-0.00792,0.037765,0.03444,-0.06125,0.0075,-0.03625,-0.0108175,-0.095505,0.067535006,1742001671.283499
-0.005,-0.05375,0.03,-0.0155475,0.0549,0.033585,0.00625,0.06875,0.06,0.024627501,0.00084,-0.02124,1742001671.3951669
0.03125,-0.01125,-0.0075,-0.0013125,0.0069724997,0.00856,-0.06625,0.11125,0.135,-0.0043325,0.059875,-0.036805,1742001671.509175
-0.0125,-0.005,-0.0175,0.026475001,-0.0543375,-0.0367125,-0.00625,0.02375,-0.00375,0.0025025,0.050582502,-0.02861,1742001671.6234822
-0.28125,-0.44,0.5,-0.002045,-0.0756675,-0.0146025,0.00625,0.00875,-0.02,-0.002365,-0.010895001,0.012252499,1742001671.7444632
-0.08,-0.1325,0.18625,-0.0289,0.0470125,0.042099997,-0.055,0.01875,-0.02875,-0.010575,-0.073685,0.056732498,1742001671.860521
0.02125,-0.04,-0.0,-0.01468,0.0522925,0.022065,0.03875,0.0975,0.19,0.000825,-0.008880001,-0.0069724997,1742001671.981091
0.00375,-0.04375,0.03625,-0.0050975,-0.014435001,-0.017424999,0.00875,0.07375,0.0975,0.0183875,0.069855005,-0.058395002,1742001672.086774
-0.015,-0.08,0.14125,-0.0096275,-0.018082501,-0.0081475,0.02125,0.02125,-0.02375,0.0132,0.03543,-0.017792499,1742001672.1933692
-0.00375,-0.0475,0.1125,-0.0037075,-0.0069575,-0.00496,0.00375,0.02375,0.02875,-0.0032650002,-0.0219425,0.0168,1742001672.325056
