L-AccX,L-AccY,L-AccZ,L-GyrX,L-GyrY,L-GyrZ,R-AccX,R-AccY,R-AccZ,R-GyrX,R-GyrY,R-GyrZ,timestamp
-0.012,0.063375,0.108625,0.00035100002,0.00115975,0.00086975005,-0.019875,-0.026375,0.113,-0.0022277501,-0.0017242499,-0.000229,1741898064.001174
-0.0125,0.06275,0.10825,0.00064075,0.00096125,0.0008545,-0.032625,-0.040125,0.137875,-0.00068675,-0.00059500005,0.0002595,1741898064.0159419
-0.0135,0.06175,0.106625,0.000534,0.00080875,0.0009765,-0.0295,-0.03825,0.134125,-0.001007,0.003006,0.001007,1741898064.033482
-0.013875,0.0625,0.1065,0.00042725,0.00061025,0.001007,-0.01575,-0.031375,0.099875,-0.00228875,0.0033722501,0.00062550005,1741898064.045238
-0.014375,0.0635,0.106875,0.000534,0.00019825,0.00064075,-0.010375,-0.027375,0.08925,-0.002472,0.00045775,-0.0003815,1741898064.0602071
-0.0145,0.06475,0.10775,0.000473,6.1000002e-05,0.000229,-0.014875,-0.031125,0.107,-0.00102225,-0.0014495,-0.000412,1741898064.075278
-0.01425,0.063375,0.10775,0.0003815,-0.000183,-0.00027475,-0.01925,-0.03575,0.119875,0.00177,-0.0021057501,0.0003815,1741898064.092509
-0.013875,0.0635,0.10825,0.00010675,-0.00024425,-0.000473,-0.01925,-0.04125,0.121375,0.0020905002,-0.0013885,0.00065625,1741898064.104643
-0.013625,0.063625,0.108125,-0.00131225,-0.000122000005,-0.00225825,-0.0185,-0.041625,0.118125,0.00045775,-0.0003815,0.000534,1741898064.1192389
-0.01275,0.060625,0.107125,-0.001709,-0.00019825,-0.00289925,-0.017375,-0.034,0.116125,-0.00024425,1.5250001e-05,0.0002595,1741898064.134104
-0.013,0.064,0.107375,-0.0021819999,-0.0002135,-0.0027465,-0.016625,-0.031,0.115125,0.00036625,0.0003205,-0.00045775,1741898064.149594
-0.013375,0.069125,0.106625,-0.00460825,7.625e-05,-0.00399775,-0.016125,-0.028875,0.1155,0.00102225,4.575e-05,-0.00067150005,1741898064.163584
-0.01075,0.069125,0.10325,-0.00520325,-0.000183,-0.0053405,-0.017125,-0.02775,0.117625,0.00154125,-0.00029,-0.0008545,1741898064.178349
-0.010125,0.06875,0.103375,-0.00416575,-0.00090025004,-0.0066985004,-0.019125,-0.02825,0.119625,0.00216675,-0.00057975,-0.00143425,1741898064.1937048
-0.0085,0.063375,0.10525,-0.00372325,-0.00083925005,-0.0068207504,-0.019875,-0.03,0.118625,0.00251775,-0.00062550005,-0.00169375,1741898064.207767
-0.007875,0.061125,0.106375,-0.00305175,-0.00054925,-0.0060425,-0.02025,-0.031625,0.1165,0.00378425,-9.15e-05,-0.001953,1741898064.2224371
-0.008375,0.063125,0.107125,-0.0030365,-0.00045775,-0.00561525,-0.01925,-0.034375,0.112625,0.004547,0.000534,-0.0020905002,1741898064.237021
-0.00925,0.06575,0.107,-0.0048979996,-0.00051875,-0.00567625,-0.019375,-0.036,0.113125,0.00617975,0.0020599999,-0.0023345,1741898064.2549188
-0.009125,0.070375,0.10775,-0.0063477503,-0.0005645,-0.0065612504,-0.02025,-0.038875,0.116375,0.0069580004,0.002777,-0.0023039998,1741898064.266315
-0.008,0.0685,0.107375,-0.00773625,-0.00030525,-0.0077972496,-0.02025,-0.040625,0.116875,0.007782,0.0033875,-0.002243,1741898064.281056
-0.005875,0.062625,0.104625,-0.00862125,0.00016775,-0.008407501,-0.02025,-0.045,0.115625,0.0076905,0.00325,-0.00213625,1741898064.295601
-0.004875,0.067,0.103125,-0.00798025,-7.625e-05,-0.007553,-0.020125,-0.047,0.114625,0.0070495,0.002411,-0.00154125,1741898064.312572
-0.004125,0.070625,0.101625,-0.00688175,-0.00109875,-0.0075682504,-0.019,-0.049,0.113875,0.00672925,0.0021819999,-0.00112925,1741898064.324955
-0.0035,0.0645,0.101375,-0.006256,-0.00143425,-0.00798025,-0.018875,-0.0495,0.11425,0.00535575,0.00201425,-0.00042725,1741898064.3395998
-0.003875,0.063,0.10175,-0.004242,-0.0016632499,-0.0066985004,-0.01825,-0.04875,0.114375,0.0042115003,0.0016175,-0.000183,1741898064.3542268
-0.00525,0.058625,0.102875,-0.00314325,-0.0016632499,-0.0051269997,-0.017625,-0.04775,0.11375,0.00292975,0.001175,0.000229,1741898064.372791
-0.005625,0.05575,0.103875,-0.000824,-0.0012970001,0.000183,-0.015625,-0.0465,0.1105,0.003006,0.001175,0.00045775,1741898064.383484
-0.004,0.06425,0.105625,-0.00036625,-0.00070200005,0.0026245,-0.0155,-0.047125,0.111125,0.0032195,0.0010375,0.0008545,1741898064.398047
-0.003125,0.068875,0.1055,-0.001587,0.001068,0.0037385002,-0.017,-0.04825,0.114,0.00302125,0.0009155,0.00102225,1741898064.413078
-0.005875,0.058375,0.102625,-0.0022277501,0.001526,0.00381475,-0.01675,-0.047875,0.11375,0.0026092501,0.00067150005,0.00115975,1741898064.427119
-0.00825,0.05225,0.105875,-0.001892,0.001007,0.00585925,-0.016625,-0.048,0.113125,0.0012970001,-3.0500001e-05,0.0012817499,1741898064.441633
-0.010125,0.049875,0.10925,0.0,0.0015105,0.013137749,-0.018,-0.04925,0.11,0.0005035,-0.00030525,0.0013580001,1741898064.456243
-0.016,0.012375,0.105625,0.00328075,0.00225825,0.018432502,-0.01875,-0.049625,0.109125,-0.0003205,-0.00048825,0.00175475,1741898064.471513
-0.0175,0.057125,0.105875,0.013733,0.0024414998,0.032333247,-0.0195,-0.0495,0.112,-0.00030525,-0.00036625,0.0020752498,1741898064.4857228
-0.017875,0.129125,0.101,0.00593575,0.0019225,0.021087749,-0.019375,-0.04925,0.113375,-0.00035100002,-3.0500001e-05,0.002655,1741898064.500402
-0.017875,0.08075,0.104875,-0.0052185003,0.0017242499,0.0022277501,-0.018,-0.048125,0.113375,-0.00051875,3.0500001e-05,0.002777,1741898064.5173671
-0.016875,0.057,0.10675,-0.0047607496,0.002533,0.003418,-0.017,-0.0475,0.1125,-0.00065625,-6.1000002e-05,0.0027465,1741898064.5331469
-0.016625,0.060625,0.107375,-0.0039825,0.0031585,0.00567625,-0.01725,-0.048875,0.111875,-0.00067150005,-0.000122000005,0.0027160002,1741898064.544532
-0.016625,0.0605,0.1085,-0.0055237496,0.0038605002,0.0077210004,-0.01825,-0.050125,0.11175,-0.0009765,1.5250001e-05,0.0028229998,1741898064.5591412
-0.017875,0.05675,0.11175,-0.0072785,0.0042572496,0.00852975,-0.018625,-0.049875,0.112,-0.0009765,0.00027475,0.00302125,1741898064.573997
-0.019,0.05775,0.11325,-0.00897225,0.0055847503,0.010849,-0.018625,-0.049375,0.1135,-0.000946,0.00086975005,0.003418,1741898064.588427
-0.022125,0.063125,0.12675,-0.008636501,0.0066985004,0.011764499,-0.017125,-0.048125,0.114875,-0.00125125,0.00115975,0.0034942501,1741898064.603063
-0.023,0.063875,0.132375,-0.010391249,0.010528499,0.012802,-0.0165,-0.047875,0.11375,-0.00177,0.001648,0.0033875,1741898064.617684
-0.022625,0.071375,0.133375,-0.0106965,0.0128785,0.013412501,-0.017625,-0.04875,0.114875,-0.00177,0.001892,0.0033722501,1741898064.633727
-0.021625,0.075625,0.131875,-0.010147001,0.01513675,0.013916001,-0.018375,-0.0485,0.116,-0.00175475,0.0022277501,0.0034942501,1741898064.647285
-0.021,0.08325,0.129625,-0.0071409997,0.0187835,0.01496875,-0.018125,-0.04725,0.115625,-0.00154125,0.00308225,0.00378425,1741898064.66198
-0.0215,0.094625,0.129125,-0.0050965,0.020111,0.015518251,-0.01825,-0.04775,0.115,-0.0012817499,0.003418,0.0038757501,1741898064.676776
-0.021625,0.103,0.128125,-0.00596625,0.022461,0.01324475,-0.018375,-0.048125,0.114,-0.0009155,0.0038605002,0.00408925,1741898064.693792
-0.019,0.105125,0.11375,-0.0062255003,0.023254499,0.011550999,-0.017625,-0.0495,0.112125,-0.000763,0.00408925,0.0041504996,1741898064.7062988
-0.014375,0.106625,0.107875,-0.00169375,0.0228425,0.0095672505,-0.01825,-0.05075,0.11225,-0.00054925,0.004837,0.0043335,1741898064.72127
-0.008,0.10875,0.102625,-0.0020905002,0.022613501,0.00811775,-0.0225,-0.053875,0.1145,-0.00068675,0.0052185003,0.0044707498,1741898064.736105
-0.005125,0.116875,0.097875,-0.0031127501,0.02238475,0.0028535,-0.024,-0.054375,0.1145,-0.0011445,0.0056915004,0.0050202496,1741898064.753234
-0.00075,0.114125,0.091625,-0.002411,0.0219575,-0.0005645,-0.021875,-0.053875,0.111375,-0.0011445,0.0057372497,0.0053252503,1741898064.76531
0.00175,0.102125,0.087,-0.002243,0.021225,-0.003418,-0.021375,-0.0545,0.10975,-0.00099175,0.0052795,0.0058287503,1741898064.7799392
0.005875,0.09025,0.079875,-0.00270075,0.018585252,-0.00579825,-0.0175,-0.0545,0.104875,-0.00105275,0.0049285004,0.006256,1741898064.794882
0.01325,0.089375,0.070125,-0.0023345,0.016632,-0.0062255003,-0.015625,-0.054125,0.10375,-0.00051875,0.0042572496,0.007309,1741898064.8133628
0.013625,0.09675,0.067375,-0.0054015,0.012680001,-0.0087585,-0.016125,-0.0575,0.104875,-0.0002595,0.00416575,0.0080415,1741898064.8243752
0.015875,0.10275,0.061375,-0.0070647504,0.010513251,-0.010849,-0.0165,-0.05875,0.1045,-0.0018005001,0.0045165,0.010238751,1741898064.8390982
0.018875,0.0985,0.063,-0.007965,0.006073,-0.014267,-0.014625,-0.055625,0.103,-0.00343325,0.0049285004,0.01127625,1741898064.8536441
0.0225,0.091375,0.06775,-0.0077210004,0.00440975,-0.01525875,-0.01275,-0.0515,0.102125,-0.004486,0.0046845004,0.0118407495,1741898064.868486
0.023875,0.08975,0.066125,-0.007431,0.0030365,-0.016113251,-0.008125,-0.047875,0.10075,-0.0043639997,0.0044250004,0.01248175,1741898064.883264
0.025,0.089125,0.063,-0.0060882503,1.5250001e-05,-0.017974751,-0.005625,-0.044,0.10025,-0.00463875,0.0037079998,0.01402275,1741898064.89797
0.025875,0.089,0.05725,-0.005249,-0.0018005001,-0.01882925,-0.00025,-0.034625,0.102625,-0.0046234997,0.00289925,0.01412975,1741898064.913833
0.025875,0.085625,0.056875,-0.0028229998,-0.0052795,-0.02026375,-0.0005,-0.0335,0.1055,-0.0026854998,0.0003815,0.014099,1741898064.927256
0.025375,0.077,0.060125,-0.0017852499,-0.0068512503,-0.020691,0.005625,-0.02575,0.1085,-0.000473,-0.000946,0.014145001,1741898064.941962
0.024875,0.0765,0.06225,-0.0013427499,-0.0099945,-0.02079775,0.0075,-0.024625,0.110625,0.0020905002,-0.0018615,0.01358025,1741898064.956573
0.02275,0.08,0.067875,-0.0013885,-0.011550999,-0.02067575,0.004625,-0.03825,0.116,0.0057220003,-0.00276175,0.009903,1741898064.97136
0.022,0.078625,0.071375,-0.0012055,-0.0139770005,-0.02073675,0.003375,-0.042,0.11975,0.0052795,-0.00292975,0.00830075,1741898064.985852
0.020125,0.068,0.081625,-0.0013275,-0.01498425,-0.020874001,0.00275,-0.03775,0.12175,0.0031127501,-0.0030669998,0.0063325,1741898065.00043
0.01825,0.06575,0.0875,-0.0013275,-0.015625,-0.0206605,0.005,-0.02575,0.119375,0.004303,-0.0035095,0.0052947504,1741898065.0169852
0.017375,0.064375,0.09175,-0.00039675,-0.015228249,-0.01930225,0.0065,-0.028375,0.12075,0.008407501,-0.0048217503,0.003891,1741898065.0334542
0.017375,0.05825,0.0965,-4.575e-05,-0.014724749,-0.01829525,0.001375,-0.029125,0.1245,0.009216251,-0.00514225,0.00384525,1741898065.044588
0.017625,0.057625,0.09825,-4.575e-05,-0.0138855,-0.015747,-0.00025,-0.0275,0.124125,0.010727,-0.0054780003,0.003128,1741898065.0593002
0.01925,0.057125,0.099125,-0.00019825,-0.01361075,-0.014572251,0.007625,-0.039875,0.12525,0.0106355,-0.0054475004,0.0016632499,1741898065.0741918
0.02,0.0555,0.100125,-0.00061025,-0.013046251,-0.012024,0.00575,-0.04,0.125125,0.009796251,-0.0050202496,4.575e-05,1741898065.094333
0.016875,0.057625,0.10475,-0.0007935,-0.0125275,-0.0106355,0.00075,-0.038125,0.12625,0.008514499,-0.004486,-0.00067150005,1741898065.103209
0.014625,0.061125,0.107125,-0.000885,-0.011245751,-0.00845325,0.003,-0.0395,0.12775,0.0047455,-0.00279225,-0.00201425,1741898065.1178482
0.011625,0.06625,0.112625,-0.00054925,-0.010559,-0.0077515002,0.006625,-0.043,0.130125,0.00331125,-0.00181575,-0.0023039998,1741898065.135222
0.0105,0.06575,0.115625,1.5250001e-05,-0.009734999,-0.0070495,0.0075,-0.044125,0.131625,0.0012665,9.15e-05,-0.00190725,1741898065.147094
0.009125,0.065,0.12075,-0.00080875,-0.0070495,-0.004593,0.0105,-0.044,0.133,0.00030525,0.001007,-0.0016632499,1741898065.1615438
0.007875,0.074375,0.126125,-0.00198375,-0.0054475004,-0.0035095,0.01175,-0.044,0.133875,-0.00068675,0.00187675,-0.001648,1741898065.176163
0.009375,0.077375,0.125375,-0.001007,-0.00251775,-0.0032195,0.01175,-0.046625,0.135625,-0.0025787498,0.003418,-0.0020599999,1741898065.193886
0.010625,0.078,0.119875,0.00070200005,-0.001007,-0.0031127501,0.011875,-0.048,0.1355,-0.0032195,0.0040587503,-0.00213625,1741898065.205483
0.01175,0.077375,0.11475,0.0032655,0.001007,-0.0025940002,0.0125,-0.04925,0.135375,-0.0035095,0.0050355,-0.00157175,1741898065.220265
0.0165,0.07375,0.105125,0.0036315,0.00149525,-0.002365,0.01275,-0.0525,0.137375,-0.0032195,0.0055237496,-0.00093075,1741898065.234944
0.019,0.072,0.102375,0.003769,0.00175475,-0.00216675,0.01225,-0.05425,0.138625,-0.002472,0.00715625,0.00070200005,1741898065.253333
0.0205,0.0715,0.100625,0.0041044997,0.0017242499,-0.001831,0.01025,-0.056,0.13825,-0.0024414998,0.008133001,0.001526,1741898065.264064
0.0215,0.072,0.094875,0.0041504996,0.00143425,-0.001709,0.009875,-0.056375,0.13675,-0.00325,0.0099945,0.0026854998,1741898065.278566
0.02275,0.072375,0.092125,0.0031585,0.00027475,-0.0013580001,0.01125,-0.05525,0.1335,-0.00358575,0.011031999,0.0032655,1741898065.294219
0.025,0.075125,0.089,0.0025634998,-0.00045775,-0.0012665,0.012625,-0.053375,0.132375,-0.0033570002,0.0129395,0.0045625,1741898065.307657
0.02475,0.077875,0.0885,0.00201425,-0.001831,-0.00181575,0.015375,-0.049875,0.12875,-0.00279225,0.013503999,0.0050202496,1741898065.3223538
0.02375,0.078125,0.08925,0.00181575,-0.00231925,-0.0022277501,0.015875,-0.050125,0.126,-0.00184625,0.014572251,0.00538625,1741898065.336959
0.023875,0.07575,0.090125,0.00090025004,-0.0028229998,-0.0024872501,0.016625,-0.051375,0.12125,-0.00177,0.0153502505,0.00564575,1741898065.353099
0.0245,0.076125,0.09425,0.00019825,-0.0030669998,-0.0024872501,0.0175,-0.05025,0.1205,-0.00204475,0.01737975,0.0067597497,1741898065.366078
0.024125,0.07825,0.098,-3.0500001e-05,-0.0032195,-0.00267025,0.0205,-0.050875,0.123125,-0.0026092501,0.01864625,0.0075377496,1741898065.3805828
0.023625,0.07975,0.102125,0.001892,-0.00238025,-0.003952,0.021875,-0.05275,0.1255,-0.00352475,0.020034749,0.008484,1741898065.395305
0.022875,0.077,0.105625,0.003296,-0.001648,-0.00460825,0.02275,-0.054,0.1265,-0.00665275,0.02241525,0.0101165,1741898065.4140291
0.0225,0.073625,0.105875,0.00494375,-0.00048825,-0.0048979996,0.02275,-0.05425,0.123125,-0.00874325,0.023178,0.0102235,1741898065.4244149
0.021,0.071,0.104875,0.0044555003,-9.15e-05,-0.0046234997,0.023125,-0.0535,0.1215,-0.011398249,0.02436825,0.00982675,1741898065.438949
0.021,0.070875,0.10425,0.0029449998,0.00059500005,-0.004013,0.026375,-0.05075,0.119,-0.0109709995,0.02490225,0.009903,1741898065.4562151
0.02325,0.071625,0.102625,0.0030365,0.00096125,-0.0038299998,0.029875,-0.0475,0.115625,-0.0074004997,0.0256805,0.01048275,1741898065.468058
0.023875,0.071875,0.101875,0.00437925,0.0013427499,-0.00384525,0.03575,-0.046625,0.106875,-0.00555425,0.0256195,0.010604749,1741898065.4825711
0.023375,0.070875,0.1015,0.00511175,0.0013580001,-0.00390625,0.035625,-0.047875,0.105375,-0.0030975002,0.0251465,0.011398249,1741898065.49799
0.023125,0.06925,0.100875,0.0058899997,0.0012207499,-0.00396725,0.033875,-0.046375,0.1055,-0.0025634998,0.025238002,0.011734,1741898065.51299
0.02275,0.06825,0.1005,0.00823975,0.0005035,-0.0036315,0.035,-0.042,0.106375,-0.0010375,0.02589425,0.01210025,1741898065.526551
0.022125,0.06625,0.102125,0.00794975,6.1000002e-05,-0.00354,0.0405,-0.032625,0.102375,0.00045775,0.02626025,0.012252751,1741898065.540962
0.02225,0.06425,0.10275,0.00561525,-0.0007935,-0.0036315,0.043875,-0.03,0.097375,0.00242625,0.026474,0.01239025,1741898065.555995
0.022375,0.061625,0.1035,0.00485225,-0.00102225,-0.00343325,0.049125,-0.025625,0.0855,0.0058135,0.02575675,0.0125885,1741898065.570017
0.022,0.062375,0.105,0.0039825,-0.00068675,-0.0031127501,0.05075,-0.02325,0.082,0.0064850003,0.024780251,0.01248175,1741898065.584536
0.021125,0.0645,0.107625,0.0043335,-0.00027475,-0.003128,0.051375,-0.022875,0.0815,0.0068207504,0.02268975,0.01165775,1741898065.598909
0.021375,0.0635,0.107625,0.0048979996,0.00010675,-0.003128,0.052625,-0.025,0.080875,0.0070342496,0.0218505,0.011383001,1741898065.61435
0.022125,0.061375,0.107375,0.00488275,0.00033575002,-0.0028229998,0.052875,-0.027125,0.080375,0.00764475,0.020202748,0.0113525,1741898065.6278489
0.024,0.06025,0.105875,0.0042267498,0.0002595,-0.0025634998,0.055625,-0.027125,0.083625,0.00788875,0.019714251,0.011245751,1741898065.6424031
0.024625,0.061,0.10575,0.00289925,1.5250001e-05,-0.0020295,0.060875,-0.0215,0.082625,0.009582501,0.018585252,0.00982675,1741898065.656822
0.0255,0.059875,0.10675,0.002411,-7.625e-05,-0.00177,0.07575,-0.011875,0.07425,0.011810251,0.016739,0.008499251,1741898065.673818
0.026125,0.0595,0.106,0.00251775,-0.000122000005,-0.0013275,0.082,-0.013,0.069375,0.019287001,0.01062,0.00720225,1741898065.6858282
0.02625,0.060125,0.104375,0.00254825,-6.1000002e-05,-0.00125125,0.087375,-0.019875,0.064625,0.022705,0.0077210004,0.0070037497,1741898065.700296
0.02625,0.06,0.104625,0.00231925,3.0500001e-05,-0.0012055,0.086875,-0.023375,0.0655,0.024688749,0.0054015,0.006363,1741898065.714816
0.02625,0.0605,0.105125,0.0015565,1.5250001e-05,-0.0010375,0.08525,-0.02525,0.0685,0.025177,0.002655,0.004013,1741898065.733797
0.026125,0.06175,0.105125,0.001236,-4.575e-05,-0.0009765,0.08175,-0.029875,0.076,0.024887,0.0019685,0.0029907501,1741898065.7438898
0.026375,0.06175,0.1045,0.00077825,-7.625e-05,-0.00105275,0.080125,-0.035375,0.079875,0.023758,0.00105275,0.0019685,1741898065.758464
0.02725,0.060875,0.1035,0.0007325,1.5250001e-05,-0.00115975,0.078625,-0.0455,0.08275,0.022995,0.00096125,0.00216675,1741898065.773878
0.026875,0.05975,0.10425,-1.5250001e-05,9.15e-05,-0.0011445,0.079,-0.04875,0.0825,0.020996,0.001419,0.0028074998,1741898065.7875211
0.026,0.06025,0.107875,-4.575e-05,9.15e-05,-0.00093075,0.078625,-0.055625,0.084625,0.0200805,0.0019225,0.00364675,1741898065.802121
0.025375,0.0615,0.10925,0.00016775,6.1000002e-05,-0.00067150005,0.078625,-0.05375,0.083,0.019195499,0.00305175,0.00617975,1741898065.816857
0.02425,0.062375,0.1095,-1.5250001e-05,1.5250001e-05,-0.00029,0.07825,-0.052125,0.073625,0.01979075,0.0029145,0.0069274995,1741898065.833565
0.023875,0.062,0.10875,-0.0004425,0.00010675,-0.0002595,0.077875,-0.05525,0.07075,0.02171325,0.0021515,0.00874325,1741898065.845788
0.02475,0.06175,0.107875,-0.001175,0.0005645,-0.0002595,0.07975,-0.054625,0.06775,0.02183525,0.0020752498,0.009552,1741898065.860286
0.025375,0.059625,0.105625,-0.00083925005,0.0007935,-0.0002135,0.079875,-0.052625,0.068375,0.0213775,0.0020599999,0.00991825,1741898065.874779
0.026125,0.059125,0.10525,-0.00030525,0.0007325,0.00016775,0.07875,-0.0545,0.0705,0.019455,0.00251775,0.010024999,1741898065.894198
0.027125,0.061375,0.104875,-0.0005035,0.0004425,0.0003815,0.08075,-0.05325,0.068875,0.01864625,0.0029145,0.010437001,1741898065.904055
0.027125,0.063125,0.10525,-0.00093075,-0.0001525,0.00048825,0.0835,-0.050625,0.067625,0.0177765,0.00283825,0.0111085,1741898065.918464
0.026,0.06525,0.10825,-0.00093075,-0.00029,0.0004425,0.086875,-0.044,0.064375,0.017700251,0.0025634998,0.01091,1741898065.935586
0.0255,0.065125,0.10925,-0.00083925005,-0.00029,0.00039675,0.086375,-0.0425,0.0635,0.01776125,0.001709,0.00930775,1741898065.947455
0.025125,0.064375,0.1095,-0.00083925005,-0.00019825,0.000229,0.0835,-0.04475,0.063875,0.0175935,0.00146475,0.008270251,1741898065.961876
0.02525,0.063875,0.107875,-0.0007935,-0.0001525,0.00016775,0.0825,-0.047,0.065,0.016723748,0.0012665,0.0067445002,1741898065.977364
0.025625,0.063375,0.10675,-0.00071725,-7.625e-05,6.1000002e-05,0.085,-0.04675,0.06975,0.016113251,0.0014495,0.0061339997,1741898065.990904
0.02625,0.061125,0.105125,-0.00068675,-9.15e-05,4.575e-05,0.08575,-0.045875,0.071,0.01573175,0.0022125002,0.004837,1741898066.0054011
0.026125,0.06075,0.105125,-0.00074775,-0.0001525,0.00019825,0.085625,-0.046375,0.07025,0.01593025,0.002655,0.00419625,1741898066.0199099
0.026,0.061875,0.10525,-0.0007935,-0.000122000005,0.0003205,0.08525,-0.049,0.06825,0.0161895,0.0030365,0.00354,1741898066.0344582
0.02625,0.063375,0.1055,-0.00067150005,-6.1000002e-05,0.000412,0.08475,-0.053375,0.0645,0.015457249,0.0038605002,0.0022277501,1741898066.0490031
0.026375,0.063375,0.106,-0.00016775,0.000229,0.0003815,0.085,-0.0545,0.0615,0.01431275,0.00440975,0.00154125,1741898066.0634
0.026375,0.063375,0.106875,-7.625e-05,0.00039675,0.000412,0.0855,-0.05725,0.059,0.01121525,0.0052642496,0.000229,1741898066.078082
0.026625,0.064,0.106625,-4.575e-05,0.00074775,0.0004425,0.08725,-0.061,0.06075,0.009521499,0.00567625,-0.0002595,1741898066.09357
0.026875,0.06425,0.105375,0.000183,0.00083925005,0.00042725,0.088875,-0.06025,0.0605,0.0074615004,0.00671375,-0.00115975,1741898066.107271
0.02675,0.063375,0.10425,0.00115975,0.0008545,0.00048825,0.08925,-0.062625,0.05725,0.0070495,0.0070647504,-0.0016175,1741898066.121881
0.027625,0.061375,0.10425,0.00187675,0.00077825,0.00062550005,0.089625,-0.063875,0.054,0.005844,0.0076142503,-0.002365,1741898066.136385
0.027,0.06125,0.1045,0.0015105,0.00064075,0.00065625,0.090125,-0.06675,0.05075,0.0054475004,0.007431,-0.0026245,1741898066.1547189
0.026125,0.062375,0.104875,-0.00027475,0.00042725,0.00054925,0.0905,-0.06875,0.0495,0.0044250004,0.00668325,-0.00267025,1741898066.165652
0.025875,0.062625,0.10525,-0.000473,0.00042725,0.00057975,0.092375,-0.0695,0.048,0.00343325,0.00637825,-0.002655,1741898066.1802518
0.02625,0.062125,0.105,-0.00019825,0.00054925,0.00071725,0.092625,-0.069875,0.04675,0.0010375,0.0061950004,-0.0028229998,1741898066.194863
0.026875,0.06225,0.104625,-0.0002135,0.0005645,0.00077825,0.09225,-0.06925,0.04225,0.00033575002,0.0059205,-0.0029145,1741898066.214229
0.027125,0.061875,0.10425,-0.000473,0.000412,0.000946,0.092,-0.0705,0.0395,-0.000183,0.00538625,-0.00296025,1741898066.224082
0.02675,0.06175,0.104625,-0.00067150005,0.00027475,0.0010375,0.092,-0.073,0.0395,-0.0020295,0.0039825,-0.0026092501,1741898066.2389739
0.02575,0.06275,0.105625,-0.00086975005,0.00016775,0.00109875,0.0925,-0.071375,0.041125,-0.00325,0.0034790002,-0.00228875,1741898066.254993
0.02475,0.063875,0.106875,-0.00108325,9.15e-05,0.001007,0.093375,-0.067,0.04175,-0.0042725,0.0027160002,-0.001953,1741898066.2682931
0.024625,0.064,0.108125,-0.00105275,0.000122000005,0.000946,0.093125,-0.0585,0.04275,-0.0036010002,0.002121,-0.002121,1741898066.282987
0.02525,0.06425,0.108125,-0.00065625,0.00039675,0.0009765,0.092,-0.05975,0.042125,-0.000229,0.00039675,-0.00254825,1741898066.297586
0.024625,0.066125,0.109125,-0.00051875,0.00057975,0.001007,0.092,-0.064875,0.04125,0.0013885,-0.00051875,-0.00263975,1741898066.3126469
0.02425,0.064875,0.109625,-0.0013275,0.000824,0.001114,0.09175,-0.066375,0.042125,0.0026092501,-0.00163275,-0.0028687501,1741898066.326983
0.024125,0.060125,0.10975,-0.0020905002,0.00071725,0.0013580001,0.09075,-0.06825,0.043375,0.002243,-0.0017395001,-0.0029755002,1741898066.341554
0.024375,0.0595,0.109125,-0.002655,0.00051875,0.001709,0.090125,-0.0665,0.043625,0.001114,-0.001709,-0.0031585,1741898066.356274
0.025,0.06,0.10825,-0.00263975,4.575e-05,0.00242625,0.0875,-0.06575,0.04475,0.00071725,-0.00177,-0.0032655,1741898066.373326
0.02625,0.062875,0.1055,-0.0020599999,0.0,0.0027160002,0.087625,-0.0665,0.04425,0.000122000005,-0.001953,-0.003296,1741898066.385589
0.026375,0.065875,0.104,-0.00067150005,0.00027475,0.00283825,0.0915,-0.071125,0.039875,-0.000229,-0.0020752498,-0.00320425,1741898066.400379
0.02575,0.068875,0.1025,-0.00010675,0.00042725,0.0025634998,0.093625,-0.073375,0.038625,-0.0016785001,-0.002365,-0.002777,1741898066.415085
0.025375,0.068375,0.1025,0.00030525,0.000473,0.001709,0.0975,-0.067,0.0395,-0.002472,-0.0024414998,-0.0025940002,1741898066.429773
0.025375,0.0675,0.10325,0.00016775,0.0003815,0.0013275,0.098625,-0.0595,0.042125,-0.0023345,-0.0028229998,-0.00302125,1741898066.444441
0.025625,0.06725,0.1035,0.0,0.00027475,0.00102225,0.097,-0.05125,0.048125,-0.00090025004,-0.0032195,-0.00355525,1741898066.4591959
0.02575,0.065625,0.104375,-0.00036625,0.00029,0.00080875,0.09475,-0.053625,0.04975,0.00108325,-0.003662,-0.0041044997,1741898066.477272
0.02425,0.066875,0.107,-0.0008545,0.00051875,0.000946,0.091,-0.062625,0.050375,0.0037995,-0.0042115003,-0.0048674997,1741898066.4883552
0.024625,0.069875,0.106125,-0.0009155,0.0007935,0.00067150005,0.090375,-0.06475,0.050125,0.0039215,-0.004242,-0.0050965,1741898066.502965
0.026375,0.0665,0.102375,-0.00054925,0.000763,0.00045775,0.08975,-0.06625,0.049625,0.0035704998,-0.0045012496,-0.00538625,1741898066.5175512
0.02625,0.064375,0.101625,-0.00039675,0.00051875,0.00036625,0.087875,-0.072625,0.04975,0.00354,-0.0047912505,-0.0054932497,1741898066.533359
0.02575,0.064625,0.101625,-0.00061025,0.00029,0.00027475,0.0875,-0.0745,0.053,0.00314325,-0.0050965,-0.00564575,1741898066.547199
0.02575,0.06575,0.101625,-0.0009155,3.0500001e-05,0.000183,0.08825,-0.07725,0.061875,0.003006,-0.0048674997,-0.0057677496,1741898066.561891
0.02575,0.066375,0.10175,-0.0013580001,-0.00029,0.00013725001,0.088625,-0.08075,0.0635,0.0029907501,-0.00416575,-0.006073,1741898066.576458
0.025375,0.06475,0.102375,-0.00143425,-0.0003815,0.00013725001,0.089,-0.09025,0.0635,0.00254825,-0.003662,-0.0060577504,1741898066.594638
0.025125,0.064625,0.103125,-0.0016175,-0.00045775,0.00019825,0.08875,-0.094,0.063625,0.001175,-0.0026854998,-0.0050965,1741898066.605696
0.024625,0.065375,0.104875,-0.001709,-0.00039675,0.00016775,0.08675,-0.099375,0.064375,0.0003815,-0.00228875,-0.0042267498,1741898066.6204102
0.024125,0.064625,0.106,-0.0018005001,-0.00010675,0.00029,0.085875,-0.09725,0.06525,-0.001175,-0.00157175,-0.0021515,1741898066.635162
0.022875,0.062625,0.10875,-0.00190725,0.0002135,0.00051875,0.08475,-0.09125,0.064875,-0.00181575,-0.0012665,-0.0012207499,1741898066.653566
0.022375,0.06175,0.109625,-0.00198375,0.00071725,0.00086975005,0.084625,-0.0895,0.0625,-0.00302125,-0.00099175,0.00048825,1741898066.66462
0.022,0.061125,0.11025,-0.00231925,0.0021819999,0.0017242499,0.084,-0.08525,0.056375,-0.0038757501,-0.0010375,0.0012817499,1741898066.679195
0.02125,0.059875,0.114,-0.0027160002,0.0030669998,0.0021972498,0.083875,-0.07925,0.05475,-0.0057525,-0.0012207499,0.00242625,1741898066.693793
0.021,0.058375,0.11625,-0.0031127501,0.00511175,0.0034942501,0.08275,-0.068625,0.0565,-0.0063325,-0.0013275,0.0026092501,1741898066.708501
0.0205,0.055,0.117625,-0.0029907501,0.0062865,0.0044555003,0.082625,-0.0635,0.057875,-0.0063477503,-0.00131225,0.00254825,1741898066.723305
0.0205,0.0545,0.116375,-0.0020752498,0.00891125,0.0067445002,0.080625,-0.063625,0.05475,-0.00511175,-0.00099175,0.001587,1741898066.7378979
0.019875,0.05425,0.113125,-0.0012817499,0.010147001,0.007782,0.079,-0.065875,0.051875,-0.0047150003,-0.00080875,0.001007,1741898066.754386
0.019375,0.054125,0.111,-0.000473,0.011260999,0.008651749,0.078375,-0.066125,0.049,-0.0044707498,-0.00059500005,0.00024425,1741898066.7671978
0.019,0.0545,0.10825,0.0004425,0.012832751,0.010238751,0.080375,-0.061875,0.047875,-0.0042572496,-0.000534,-0.00013725001,1741898066.782094
0.019875,0.057375,0.104125,0.00062550005,0.013290499,0.0109709995,0.0815,-0.058875,0.048875,-0.0027312501,-0.0004425,-0.001114,1741898066.796808
0.02075,0.0605,0.1035,0.0013275,0.013778751,0.0119934995,0.0805,-0.064125,0.04625,-0.00163275,-0.00051875,-0.0016175,1741898066.813287
0.022625,0.063125,0.100125,0.0021819999,0.01358025,0.0122985,0.0795,-0.069625,0.045,-0.0010375,-0.00065625,-0.00198375,1741898066.826136
0.024375,0.059625,0.097125,0.00289925,0.012191749,0.0137635,0.081125,-0.069,0.0475,-0.00125125,-0.00045775,-0.00193775,1741898066.8409758
0.025125,0.063,0.096875,0.00228875,0.011673001,0.014923001,0.082875,-0.066625,0.048625,-6.1000002e-05,-6.1000002e-05,-0.0020905002,1741898066.8556669
0.024125,0.069625,0.096375,0.0021057501,0.01136775,0.015533499,0.085375,-0.065125,0.051125,0.001236,-7.625e-05,-0.00231925,1741898066.870306
0.024125,0.071,0.095375,0.00331125,0.010727,0.0153502505,0.08575,-0.06425,0.054125,0.0037385002,1.5250001e-05,-0.0028229998,1741898066.884948
0.027375,0.07075,0.093125,0.0036010002,0.010314999,0.01548775,0.082375,-0.0685,0.06,0.004593,0.00033575002,-0.0029145,1741898066.899611
0.029,0.071,0.091625,0.0033570002,0.00891125,0.01582325,0.08075,-0.072375,0.061375,0.00444025,0.00146475,-0.002472,1741898066.9163892
0.03075,0.068625,0.08975,0.0030975002,0.00791925,0.01586925,0.0805,-0.077875,0.059625,0.0035704998,0.00213625,-0.00213625,1741898066.928919
0.030875,0.06825,0.088625,0.0026854998,0.00688175,0.01586925,0.081625,-0.078,0.056625,0.00177,0.003006,-0.001587,1741898066.9435709
0.03125,0.068875,0.087,0.0019685,0.0048979996,0.015854,0.0845,-0.07225,0.0515,0.00148,0.00292975,-0.001526,1741898066.958275
0.03175,0.070875,0.084375,0.001648,0.00390625,0.01573175,0.08525,-0.06925,0.051875,0.00163275,0.0025634998,-0.0016785001,1741898066.973405
0.030875,0.07375,0.08525,0.001709,0.0019989999,0.0154115,0.08425,-0.068375,0.05825,0.002411,0.00163275,-0.00238025,1741898066.9874072
0.026875,0.0835,0.09075,0.0021972498,0.00125125,0.01498425,0.0835,-0.069875,0.062,0.0024872501,0.00154125,-0.00283825,1741898067.001927
0.0255,0.0865,0.092625,0.003662,0.0002135,0.01345825,0.083125,-0.072625,0.063625,0.00177,0.00238025,-0.0037079998,1741898067.0165381
0.025125,0.086125,0.09275,0.0043335,-0.000122000005,0.01266475,0.08325,-0.07675,0.061375,0.0011445,0.0028074998,-0.0039825,1741898067.033599
0.025375,0.083875,0.09175,0.0047455,-0.0004425,0.01197825,0.082875,-0.07725,0.06025,-1.5250001e-05,0.0033722501,-0.0043182503,1741898067.0457852
0.025375,0.081625,0.090875,0.00453175,-0.0012817499,0.010788,0.081625,-0.079625,0.058,-0.0004425,0.0036315,-0.00440975,1741898067.060608
0.02325,0.081,0.092,0.004013,-0.0017852499,0.01020825,0.0805,-0.0805,0.058,-0.000885,0.0037537501,-0.00408925,1741898067.075391
0.020625,0.083375,0.094875,0.0030975002,-0.0025634998,0.00874325,0.079375,-0.081,0.058375,-0.001068,0.003769,-0.0037995,1741898067.093448
0.015625,0.088125,0.098875,0.002884,-0.00267025,0.0077515002,0.079375,-0.081125,0.058125,-0.00175475,0.00396725,-0.00328075,1741898067.105027
0.0155,0.086,0.0985,0.00238025,-0.0028229998,0.00593575,0.079375,-0.07975,0.0575,-0.0022277501,0.00413525,-0.0030669998,1741898067.119638
0.017625,0.08,0.095625,0.0017242499,-0.00305175,0.00541675,0.079625,-0.078875,0.05625,-0.0031889998,0.004486,-0.002884,1741898067.134274
0.018125,0.07975,0.094875,0.00077825,-0.0034790002,0.0050965,0.08075,-0.076625,0.052625,-0.0035095,0.00453175,-0.00296025,1741898067.1490371
0.01675,0.081625,0.095,-0.00099175,-0.0046845004,0.0042267498,0.081625,-0.0755,0.050625,-0.0037537501,0.0042115003,-0.00343325,1741898067.163539
0.0125,0.083125,0.095375,-0.00169375,-0.005249,0.0034484998,0.08225,-0.076125,0.049125,-0.0037537501,0.00381475,-0.0037537501,1741898067.178407
0.0115,0.08225,0.095,-0.00340275,-0.006363,0.0020295,0.081625,-0.077,0.050625,-0.00384525,0.0030669998,-0.0042572496,1741898067.193797
0.0115,0.08,0.094,-0.0044707498,-0.00697325,0.0015565,0.0805,-0.0765,0.057875,-0.0040587503,0.0030975002,-0.0045165,1741898067.2075672
0.012125,0.078375,0.093375,-0.0062712496,-0.008224499,0.00090025004,0.0805,-0.076625,0.060125,-0.0042725,0.00358575,-0.004837,1741898067.222213
0.012375,0.07575,0.093625,-0.0066374997,-0.008865249,0.00067150005,0.08175,-0.08175,0.05625,-0.0046539996,0.0050812503,-0.00531,1741898067.236824
0.011,0.077125,0.095,-0.0066374997,-0.009430001,0.0005035,0.08325,-0.08225,0.05325,-0.00511175,0.0056304997,-0.0052947504,1741898067.25353
0.009625,0.0795,0.096,-0.0058135,-0.010009751,0.00010675,0.085,-0.081375,0.050375,-0.00570675,0.0060425,-0.0052185003,1741898067.266117
0.009625,0.081375,0.097,-0.0050355,-0.0100707505,-0.00010675,0.087375,-0.08125,0.046375,-0.0057220003,0.005844,-0.0051880004,1741898067.28091
0.01025,0.07975,0.096875,-0.0032347501,-0.0100555,-0.0002595,0.087625,-0.08175,0.04525,-0.0058135,0.0049742498,-0.00488275,1741898067.295588
0.010875,0.076125,0.0955,-0.002533,-0.010147001,-0.00016775,0.08875,-0.081125,0.045,-0.0060272496,0.004486,-0.004593,1741898067.3132942
0.01025,0.075,0.095,-0.0019989999,-0.0106355,0.00013725001,0.089875,-0.08,0.046,-0.006836,0.00364675,-0.00399775,1741898067.324777
0.00825,0.074375,0.094375,-0.0020752498,-0.01091,0.00030525,0.093,-0.074,0.046625,-0.0074615004,0.0033722501,-0.0038605002,1741898067.339498
0.007875,0.073375,0.094125,-0.002365,-0.0114135,0.00067150005,0.094875,-0.0695,0.04525,-0.008712751,0.00279225,-0.0044555003,1741898067.354332
0.006625,0.07125,0.094,-0.00254825,-0.011688249,0.000885,0.097375,-0.062125,0.04025,-0.0089875,0.0021819999,-0.0051269997,1741898067.3690088
0.00575,0.06975,0.092875,-0.0027465,-0.0119630005,0.001114,0.098125,-0.0605,0.038125,-0.008727999,-0.0001525,-0.006668,1741898067.383698
0.00525,0.067625,0.09125,-0.0029755002,-0.0125885,0.001831,0.09425,-0.065125,0.03975,-0.00842275,-0.00175475,-0.0072632497,1741898067.398435
0.004125,0.063625,0.09,-0.0030365,-0.0129700005,0.00238025,0.091,-0.067625,0.043,-0.0085755,-0.00444025,-0.00788875,1741898067.415806
0.002625,0.062,0.0915,-0.0034790002,-0.0135955,0.0037385002,0.08975,-0.06225,0.051,-0.008926501,-0.0052642496,-0.008285499,1741898067.427826
-0.001,0.060875,0.094625,-0.0038605002,-0.0136565,0.0045777503,0.090875,-0.057125,0.0545,-0.008346501,-0.0063477503,-0.009842,1741898067.442462
-0.00175,0.060125,0.094375,-0.0047455,-0.013503999,0.0065002497,0.09025,-0.054625,0.05775,-0.0070037497,-0.0070495,-0.010757499,1741898067.4577181
-0.00125,0.0555,0.091125,-0.00531,-0.013564999,0.0076905,0.088125,-0.05675,0.0575,-0.00531,-0.007965,-0.01148975,1741898067.472491
-0.002,0.05475,0.089875,-0.0064850003,-0.0138855,0.010314999,0.0805,-0.067375,0.04825,-0.0025940002,-0.010391249,-0.0122985,1741898067.486662
-0.009,0.063,0.093375,-0.00668325,-0.013916001,0.0114440005,0.072625,-0.079875,0.0445,-0.002365,-0.01197825,-0.0125275,1741898067.501379
-0.015625,0.07175,0.096125,-0.00611875,-0.01367175,0.01222225,0.06375,-0.093375,0.045875,-0.0068055,-0.01330575,-0.01245125,1741898067.516107
-0.022,0.077375,0.098125,-0.0025025,-0.012329,0.012847999,0.059875,-0.0945,0.055125,-0.010437001,-0.012619001,-0.012191749,1741898067.533603
-0.028125,0.0745,0.098875,-0.000122000005,-0.01136775,0.013275251,0.06275,-0.08575,0.060625,-0.01504525,-0.01098625,-0.012267999,1741898067.5456991
-0.027375,0.068625,0.09725,0.00213625,-0.009719751,0.01475525,0.0665,-0.0725,0.0715,-0.015747,-0.010253999,-0.012771499,1741898067.56042
-0.02325,0.05725,0.092375,0.00112925,-0.00947575,0.0158385,0.06625,-0.069625,0.0755,-0.0150605,-0.009002751,-0.0139770005,1741898067.575089
-0.02225,0.053875,0.08975,-0.0047607496,-0.0102235,0.0182495,0.057,-0.077875,0.078875,-0.0135345,-0.0088195,-0.014038,1741898067.593503
-0.025875,0.055625,0.084375,-0.008484,-0.010803251,0.019348249,0.05275,-0.0825,0.07425,-0.0091095,-0.0099639995,-0.012252751,1741898067.604728
-0.027125,0.056375,0.081375,-0.01200875,-0.0114440005,0.02029425,0.053125,-0.083,0.065875,-0.00785825,-0.0110015,-0.011764499,1741898067.619446
-0.02775,0.055625,0.078625,-0.017974751,-0.013061499,0.0224,0.053875,-0.082375,0.06825,-0.009445249,-0.011031999,-0.0129700005,1741898067.634347
-0.031125,0.058375,0.078,-0.0204925,-0.01380925,0.02363575,0.054,-0.080375,0.074,-0.011169501,-0.01026925,-0.01367175,1741898067.653198
-0.03675,0.062,0.076875,-0.0239715,-0.01469425,0.0257415,0.053875,-0.079625,0.077125,-0.01368725,-0.00912475,-0.014572251,1741898067.663827
-0.056375,0.083375,0.084375,-0.024231002,-0.014663749,0.02690125,0.047,-0.091375,0.080125,-0.0141755,-0.0088805,-0.014572251,1741898067.6785989
-0.066875,0.114625,0.098375,-0.016296498,-0.012085,0.027435249,0.04475,-0.093625,0.076875,-0.01513675,-0.00897225,-0.0133667495,1741898067.693869
-0.086375,0.162125,0.1145,-0.00897225,-0.010024999,0.025115998,0.04775,-0.082875,0.069875,-0.015686,-0.00941475,-0.012924249,1741898067.708107
-0.094625,0.171875,0.112625,0.0018005001,-0.006775,0.0175935,0.048875,-0.0765,0.0695,-0.01620475,-0.010742251,-0.01326,1741898067.7228281
-0.09875,0.171125,0.10325,0.0046234997,-0.0049895,0.01326,0.046875,-0.06475,0.077,-0.01628125,-0.011398249,-0.0138702495,1741898067.737608
-0.095125,0.15925,0.09475,0.00637825,-0.0028687501,0.008865249,0.043375,-0.063,0.0845,-0.0139465,-0.01257325,-0.01474,1741898067.7536378
-0.074375,0.113125,0.08175,0.009155249,0.000534,0.00051875,0.029375,-0.074,0.09575,-0.0110625,-0.01316825,-0.014297499,1741898067.7671008
-0.064375,0.08775,0.080875,0.010086001,0.00119025,-0.00242625,0.023375,-0.0795,0.097,-0.0049895,-0.01440425,-0.012375,1741898067.781857
-0.05825,0.068,0.0795,0.0064850003,0.00102225,-0.0041810004,0.019625,-0.078875,0.1005,-0.0030365,-0.01463325,-0.011764499,1741898067.796604
-0.051,0.051,0.07125,0.0029755002,0.0002595,-0.00358575,0.020625,-0.076375,0.102875,-0.001953,-0.014221249,-0.0115967505,1741898067.813622
-0.0485,0.051,0.07125,-0.00157175,-0.00175475,-0.00181575,0.0245,-0.072375,0.10225,-0.00149525,-0.011825499,-0.0119630005,1741898067.825983
-0.049625,0.061375,0.079625,-0.0019685,-0.0022735,-0.0010375,0.02575,-0.0725,0.099375,-0.00190725,-0.0104674995,-0.0123595,1741898067.840814
-0.0515,0.067375,0.08225,-0.00065625,-0.00198375,-4.575e-05,0.02575,-0.0745,0.097,-0.0033264998,-0.0089569995,-0.0129700005,1741898067.855606
-0.053125,0.072875,0.08,-0.00029,-0.0015565,0.00036625,0.02175,-0.0765,0.09625,-0.0037995,-0.008636501,-0.012985251,1741898067.8743901
-0.053125,0.0755,0.079,0.0,-0.0012055,0.000824,0.01775,-0.077,0.097625,-0.0048065,-0.00767525,-0.01316825,1741898067.8852968
-0.053625,0.078375,0.079,0.00099175,-0.00067150005,0.0013275,0.01175,-0.074875,0.098125,-0.0058135,-0.0067902496,-0.01324475,1741898067.8999949
-0.05675,0.082125,0.081,0.00154125,-0.0004425,0.0012665,0.01225,-0.07125,0.094625,-0.00930775,-0.00460825,-0.01380925,1741898067.9162638
-0.057625,0.082,0.082125,0.001892,6.1000002e-05,0.00096125,0.0145,-0.06325,0.09,-0.011398249,-0.00367725,-0.01440425,1741898067.929524
-0.059625,0.080125,0.08325,0.001648,0.00030525,0.00093075,0.012875,-0.06425,0.091125,-0.01504525,-0.001587,-0.01608275,1741898067.944212
-0.058875,0.07925,0.082625,0.00059500005,0.00067150005,0.0009155,0.000875,-0.0715,0.093125,-0.01661675,-0.00059500005,-0.016540501,1741898067.9591339
-0.0565,0.077875,0.080875,0.00010675,0.00062550005,0.000824,-0.004,-0.06825,0.093375,-0.01890575,3.0500001e-05,-0.01681525,1741898067.973919
-0.055375,0.077625,0.07975,-0.00029,0.000473,0.00067150005,-0.004625,-0.054125,0.095125,-0.01911925,-0.0001525,-0.017181499,1741898067.992626
-0.053625,0.077,0.078,-0.0005645,-1.5250001e-05,0.00029,-0.00225,-0.0485,0.09525,-0.01826475,-0.000534,-0.0187835,1741898068.003561
-0.053375,0.07725,0.07775,-0.000412,-0.0002595,0.00010675,-0.00525,-0.050125,0.095125,-0.0175935,-0.00080875,-0.01965325,1741898068.018367
-0.0535,0.07775,0.078,0.0001525,-0.00064075,-0.0001525,-0.0135,-0.056,0.099125,-0.01596075,-0.00099175,-0.01879875,1741898068.03321
-0.054375,0.078625,0.07875,0.00042725,-0.000763,-0.000229,-0.029625,-0.059625,0.105625,-0.015533499,-0.00057975,-0.017105,1741898068.0480042
-0.054875,0.078625,0.079375,0.00074775,-0.00077825,-0.0002595,-0.031125,-0.0565,0.106625,-0.01554875,0.00024425,-0.01412975,1741898068.0628428
-0.055875,0.0785,0.080375,0.000824,-0.00071725,-0.000183,-0.025625,-0.052,0.104375,-0.015304499,0.000763,-0.013137749,1741898068.077749
-0.056125,0.078375,0.080625,0.000763,-0.00045775,0.0,-0.02275,-0.048,0.104125,-0.014068499,0.0008545,-0.011031999,1741898068.093737
-0.057,0.07825,0.0805,0.00070200005,-0.00029,3.0500001e-05,-0.020125,-0.041875,0.10875,-0.01351925,0.00090025004,-0.01036075,1741898068.107239
-0.057125,0.077875,0.0805,0.000534,-1.5250001e-05,0.00010675,-0.01875,-0.0425,0.111125,-0.0136565,0.00143425,-0.009842,1741898068.1219041
-0.056625,0.077125,0.080375,0.0004425,7.625e-05,0.000122000005,-0.011875,-0.044875,0.118625,-0.01390075,0.00102225,-0.009811499,1741898068.136638
-0.05625,0.076625,0.08025,0.0003815,0.000122000005,0.000122000005,-0.010125,-0.04725,0.12425,-0.01412975,3.0500001e-05,-0.009262,1741898068.153526
-0.055875,0.0765,0.080125,0.00024425,0.0001525,7.625e-05,0.0015,-0.056,0.138875,-0.014267,-0.0002135,-0.009216251,1741898068.166191
-0.055375,0.07675,0.08,0.000183,0.00013725001,1.5250001e-05,0.007625,-0.062,0.15025,-0.013793999,-0.00511175,-0.009216251,1741898068.180922
-0.05525,0.076625,0.079875,9.15e-05,3.0500001e-05,-0.00010675,0.0095,-0.02975,0.149,-0.010604749,-0.0081635,-0.008651749,1741898068.1955981
-0.055125,0.07675,0.08,4.575e-05,-4.575e-05,-0.00013725001,0.00325,-0.020375,0.138875,-0.00428775,-0.010024999,-0.0088195,1741898068.213999
-0.055375,0.077,0.08,6.1000002e-05,-0.00013725001,-0.00013725001,-0.015,-0.038125,0.124375,0.0071409997,-0.00874325,-0.00903325,1741898068.225012
-0.05575,0.0775,0.080125,7.625e-05,-0.00016775,-0.00016775,-0.017875,-0.046625,0.120875,0.00962825,-0.0070952503,-0.008361749,1741898068.239795
-0.056,0.0775,0.080125,9.15e-05,-0.000183,-0.00019825,-0.02,-0.0515,0.118,0.01145925,-0.00399775,-0.008545,1741898068.254621
-0.056,0.077625,0.080125,0.00010675,-0.000229,-0.00024425,-0.02175,-0.054,0.117,0.011169501,-0.0026245,-0.00883475,1741898068.273234
-0.056125,0.07775,0.080125,9.15e-05,-0.000229,-0.0002595,-0.021,-0.053,0.117375,0.00830075,0.0008545,-0.010009751,1741898068.2841039
-0.056,0.077625,0.080125,6.1000002e-05,-0.0002135,-0.00019825,-0.018375,-0.0535,0.117125,0.006546,0.00225825,-0.010742251,1741898068.298937
-0.0555,0.077125,0.079875,0.00010675,-0.0002135,-0.0001525,-0.016625,-0.05475,0.115875,0.0044707498,0.0025025,-0.010498,1741898068.313607
-0.0555,0.076875,0.08,9.15e-05,-0.00019825,-0.00013725001,-0.013125,-0.05875,0.112375,0.004303,0.00169375,-0.009674,1741898068.3282099
-0.055625,0.0765,0.080125,4.575e-05,-0.00019825,-0.00013725001,-0.012,-0.062125,0.1105,0.0045165,0.00030525,-0.00791925,1741898068.342817
-0.055625,0.076625,0.080125,1.5250001e-05,-0.000229,-0.00013725001,-0.00975,-0.065375,0.107125,0.00399775,0.000229,-0.0076142503,1741898068.357503
-0.055875,0.07725,0.079875,-1.5250001e-05,-0.00024425,-0.00013725001,-0.00925,-0.065625,0.107375,0.00181575,0.0007325,-0.0075225,1741898068.3753479
-0.056,0.077625,0.079875,-4.575e-05,-0.0002595,-0.00013725001,-0.009,-0.06325,0.10625,0.0009155,0.000763,-0.00720225,1741898068.386955
-0.056375,0.07775,0.079875,-9.15e-05,-0.0002595,-0.00019825,-0.009625,-0.0615,0.10475,-0.00027475,0.000183,-0.0064239996,1741898068.4016159
-0.056375,0.077625,0.08,-9.15e-05,-0.0002595,-0.000229,-0.011125,-0.059125,0.105375,-0.000763,-0.00029,-0.0060425,1741898068.417322
-0.05625,0.077375,0.079875,-4.575e-05,-0.00024425,-0.00024425,-0.011875,-0.057625,0.106125,-0.001709,-0.00149525,-0.0052337497,1741898068.431413
-0.05625,0.076875,0.0795,-4.575e-05,-0.000229,-0.00024425,-0.01275,-0.05475,0.10575,-0.00216675,-0.0019989999,-0.004776,1741898068.446443
-0.05625,0.07675,0.079625,-0.000122000005,-0.000183,-0.000183,-0.01275,-0.053875,0.10675,-0.003006,-0.0027312501,-0.0040435,1741898068.461227
-0.056375,0.0765,0.07975,-0.00024425,-0.0001525,-0.00010675,-0.013875,-0.052625,0.112,-0.0033264998,-0.0029145,-0.0038299998,1741898068.476026
-0.056625,0.07275,0.0785,-0.0021972498,-0.00027475,0.00077825,-0.014625,-0.051375,0.11375,-0.00352475,-0.0029449998,-0.00358575,1741898068.4935858
-0.056375,0.083375,0.08025,-0.0024872501,-0.00036625,0.001175,-0.015875,-0.049,0.11375,-0.00325,-0.0028687501,-0.0035095,1741898068.5057359
-0.056625,0.08125,0.080125,0.0,-9.15e-05,-0.000122000005,-0.01675,-0.047,0.113875,-0.0025025,-0.0024872501,-0.0033570002,1741898068.5205162
-0.056625,0.07675,0.079625,0.0003205,0.0,-0.0003205,-0.017625,-0.044375,0.1145,-0.00231925,-0.0021515,-0.00334175,1741898068.5353758
-0.056375,0.07675,0.0795,0.000183,1.5250001e-05,-0.00024425,-0.018375,-0.044,0.11575,-0.0018615,-0.0012970001,-0.0031889998,1741898068.553278
-0.056375,0.077,0.0795,-0.000122000005,1.5250001e-05,-0.000122000005,-0.02,-0.04425,0.119125,-0.001419,-0.00074775,-0.0030669998,1741898068.5650392
-0.056625,0.077625,0.0795,-0.000183,1.5250001e-05,-0.0001525,-0.020625,-0.04525,0.119125,-0.000885,-0.000229,-0.00296025,1741898068.579742
-0.056625,0.078,0.079375,-0.0002135,4.575e-05,-0.00024425,-0.0205,-0.047125,0.116125,0.00030525,0.00035100002,-0.00254825,1741898068.5944178
-0.0565,0.07825,0.07925,-0.000183,6.1000002e-05,-0.00027475,-0.019375,-0.047,0.11475,0.00071725,0.00054925,-0.0023039998,1741898068.6097322
-0.05625,0.078125,0.079125,-0.000122000005,7.625e-05,-0.00030525,-0.01825,-0.046625,0.114375,0.00077825,0.00105275,-0.0020295,1741898068.6238751
-0.055875,0.07775,0.079125,-9.15e-05,9.15e-05,-0.00035100002,-0.01775,-0.045875,0.116125,0.00065625,0.0014495,-0.0019225,1741898068.638619
-0.05575,0.0775,0.07925,-0.00016775,0.00013725001,-0.000412,-0.018375,-0.04525,0.116375,0.00062550005,0.0023039998,-0.00177,1741898068.6540852
-0.055875,0.07775,0.079125,-0.000229,0.0001525,-0.000412,-0.01925,-0.043625,0.11525,0.000763,0.0026245,-0.001831,1741898068.668194
-0.055875,0.078125,0.079125,-0.00024425,0.0001525,-0.0003815,-0.018875,-0.043375,0.11425,0.00093075,0.00283825,-0.0021972498,1741898068.6828642
-0.0565,0.079375,0.07975,-0.000122000005,0.000183,-0.00039675,-0.01725,-0.043125,0.113,0.00096125,0.0028229998,-0.00239575,1741898068.697524
-0.05675,0.079625,0.07975,-4.575e-05,0.000229,-0.000473,-0.01675,-0.043,0.113125,0.00105275,0.00283825,-0.0027465,1741898068.7137
-0.056625,0.079,0.079375,3.0500001e-05,0.0002595,-0.00067150005,-0.015625,-0.04325,0.113625,0.0010375,0.00292975,-0.00296025,1741898068.726975
-0.0555,0.07775,0.0795,6.1000002e-05,0.000183,-0.000763,-0.01525,-0.04375,0.11375,0.0010375,0.0031585,-0.0033264998,1741898068.741615
-0.055375,0.077375,0.079375,-7.625e-05,-3.0500001e-05,-0.00083925005,-0.01525,-0.04425,0.113875,0.001175,0.0032655,-0.0035095,1741898068.756257
-0.055375,0.07725,0.078625,-0.0001525,-0.000122000005,-0.00080875,-0.015125,-0.043875,0.114125,0.001648,0.0034637498,-0.00393675,1741898068.773234
-0.055375,0.0775,0.07875,-7.625e-05,-0.000229,-0.00071725,-0.014875,-0.043375,0.11575,0.0018615,0.00355525,-0.00419625,1741898068.7856798
-0.055375,0.077875,0.079,1.5250001e-05,-0.0002595,-0.00068675,-0.014625,-0.04425,0.1155,0.00213625,0.00372325,-0.004486,1741898068.8004422
-0.0555,0.078,0.07925,9.15e-05,-0.0002595,-0.00065625,-0.0145,-0.047,0.112375,0.0021515,0.00378425,-0.0044555003,1741898068.8152168
-0.05575,0.077875,0.07975,0.000122000005,-0.00019825,-0.00054925,-0.014875,-0.048375,0.1115,0.00187675,0.0039825,-0.0042572496,1741898068.830466
-0.05575,0.077625,0.079625,7.625e-05,-0.000122000005,-0.00045775,-0.01425,-0.05,0.1095,0.0017852499,0.00413525,-0.0042115003,1741898068.844527
-0.05575,0.07775,0.0795,-0.0001525,-3.0500001e-05,-0.0002595,-0.01375,-0.0505,0.108625,0.0019225,0.0040587503,-0.0041504996,1741898068.8591208
-0.056,0.0785,0.079125,-0.00019825,0.0,-0.00016775,-0.015,-0.051,0.11125,0.0027312501,0.00328075,-0.00372325,1741898068.8759308
-0.05625,0.07875,0.079125,-0.00019825,0.00010675,-0.00010675,-0.014,-0.052,0.111125,0.0029449998,0.00317375,-0.0034637498,1741898068.888509
-0.056375,0.078625,0.078875,-0.0001525,0.0001525,-0.00010675,-0.013125,-0.053375,0.109875,0.00308225,0.0028229998,-0.00289925,1741898068.9032829
-0.05625,0.07825,0.07875,-3.0500001e-05,0.000183,-0.00010675,-0.01425,-0.05575,0.107875,0.0029907501,0.0027465,-0.0025940002,1741898068.918135
-0.055875,0.0775,0.07875,3.0500001e-05,0.000183,-9.15e-05,-0.01525,-0.056625,0.107375,0.00254825,0.0029907501,-0.002243,1741898068.933175
-0.0555,0.07725,0.078875,9.15e-05,0.0001525,-7.625e-05,-0.01675,-0.058125,0.10875,0.0023039998,0.0031585,-0.0020599999,1741898068.947389
-0.054875,0.0775,0.079,7.625e-05,0.00013725001,-6.1000002e-05,-0.017375,-0.058875,0.109625,0.0019989999,0.00305175,-0.0014495,1741898068.9621398
-0.054875,0.077875,0.079125,4.575e-05,0.00010675,-3.0500001e-05,-0.018625,-0.06075,0.109625,0.00187675,0.0028687501,-0.00096125,1741898068.976774
-0.055,0.078125,0.07925,4.575e-05,4.575e-05,1.5250001e-05,-0.0185,-0.06175,0.109,0.001709,0.0026092501,0.00042725,1741898068.993397
-0.05525,0.078875,0.079125,7.625e-05,4.575e-05,4.575e-05,-0.017875,-0.0605,0.10925,0.0016785001,0.0023345,0.0011445,1741898069.005924
-0.05475,0.078875,0.079,0.000122000005,3.0500001e-05,3.0500001e-05,-0.02075,-0.062125,0.112625,0.0013885,0.00238025,0.0026092501,1741898069.020438
-0.055875,0.078875,0.079125,0.0002135,-6.1000002e-05,6.1000002e-05,-0.027125,-0.064,0.118125,0.00102225,0.0029145,0.0034637498,1741898069.035029
-0.056375,0.079375,0.079125,0.000183,0.0,0.00010675,-0.028,-0.062625,0.118,-3.0500001e-05,0.0045165,0.0053709997,1741898069.053298
-0.05525,0.0785,0.079,0.000183,4.575e-05,7.625e-05,-0.025,-0.0595,0.117875,-0.00035100002,0.0052947504,0.0064545004,1741898069.0643032
-0.05525,0.07825,0.079125,0.000229,4.575e-05,9.15e-05,-0.022875,-0.0585,0.117125,9.15e-05,0.00640875,0.0088195,1741898069.078888
-0.05525,0.078125,0.079375,0.0003205,1.5250001e-05,0.000122000005,-0.018875,-0.0585,0.115125,0.000473,0.006836,0.009842,1741898069.0935218
-0.055125,0.0775,0.079375,0.00030525,1.5250001e-05,0.00013725001,-0.016125,-0.056875,0.113875,0.00074775,0.007187,0.01071175,1741898069.108195
-0.055,0.077375,0.079375,0.000229,4.575e-05,0.0002595,-0.01225,-0.05325,0.11225,0.0007935,0.00737,0.011688249,1741898069.1227589
-0.055375,0.077625,0.0795,0.00019825,4.575e-05,0.0003205,-0.003,-0.0485,0.107125,0.0005645,0.0074004997,0.01177975,1741898069.1373582
-0.055625,0.07775,0.0795,0.00016775,1.5250001e-05,0.00042725,0.00175,-0.047875,0.104375,-0.000229,0.0073547503,0.0112,1741898069.1535292
-0.056125,0.07825,0.079375,0.00013725001,1.5250001e-05,0.00045775,0.009,-0.0465,0.099625,-0.000534,0.0070037497,0.01054375,1741898069.1664472
-0.056375,0.078375,0.079375,0.0001525,1.5250001e-05,0.0004425,0.01075,-0.0455,0.097625,-0.00102225,0.0059205,0.008727999,1741898069.180917
-0.0565,0.078125,0.07925,0.00019825,1.5250001e-05,0.0003815,0.009875,-0.046125,0.1,-0.0012055,0.0052642496,0.0077210004,1741898069.1956859
-0.05675,0.078,0.079,0.0002135,1.5250001e-05,0.00035100002,0.00825,-0.049125,0.104,-0.0017242499,0.0037995,0.0062255003,1741898069.2143722
-0.056875,0.078,0.079,0.00024425,3.0500001e-05,0.00027475,0.005,-0.054625,0.11,-0.0021057501,0.0029449998,0.00587475,1741898069.224768
-0.056375,0.077625,0.079125,0.00027475,7.625e-05,0.00024425,0.0045,-0.0545,0.109375,-0.00254825,0.001648,0.0059205,1741898069.23938
-0.056,0.0775,0.07925,0.00035100002,9.15e-05,0.0002135,0.00175,-0.050875,0.107,-0.0021515,0.001175,0.00617975,1741898069.2541099
-0.055875,0.077125,0.079625,0.00039675,0.00010675,0.0002595,-0.0015,-0.0525,0.108125,-0.000946,0.0007935,0.006775,1741898069.268578
-0.055875,0.077,0.07975,0.000412,0.0001525,0.00033575002,-0.006375,-0.06025,0.1145,-0.0009765,0.00115975,0.00715625,1741898069.283395
-0.05575,0.077,0.079875,0.00030525,0.00024425,0.0004425,-0.007375,-0.06225,0.117,-0.0016175,0.001892,0.007599,1741898069.2981892
-0.055875,0.07725,0.079875,0.0002595,0.00024425,0.00048825,-0.00575,-0.058625,0.115875,-0.00384525,0.00369275,0.008484,1741898069.313046
-0.056125,0.077625,0.07975,0.000183,0.00024425,0.0005035,-0.00525,-0.056,0.114625,-0.0048065,0.004303,0.008667,1741898069.3275409
-0.056125,0.077625,0.079875,0.00016775,0.00024425,0.00048825,-0.005625,-0.053125,0.112375,-0.00488275,0.0050812503,0.008636501,1741898069.342352
-0.056,0.077375,0.07975,0.000183,0.00024425,0.00045775,-0.005875,-0.04575,0.105875,-0.0041044997,0.0054475004,0.0085755,1741898069.3569422
-0.05575,0.077,0.07975,0.0002135,0.000229,0.00045775,-0.005,-0.0475,0.105375,-0.0027160002,0.0059205,0.0081635,1741898069.372606
-0.05575,0.077,0.079875,0.000229,0.0002135,0.00045775,-0.0005,-0.0575,0.109,-0.0028229998,0.0061645,0.008316,1741898069.386257
-0.055625,0.077,0.079875,0.0001525,0.0001525,0.00045775,0.000875,-0.05825,0.111875,-0.005005,0.0068969997,0.00962825,1741898069.4007769
-0.055625,0.077,0.079875,9.15e-05,0.00010675,0.00045775,-0.002875,-0.055875,0.117875,-0.00643925,0.00738525,0.01033025,1741898069.4176
-0.05575,0.077125,0.07975,7.625e-05,3.0500001e-05,0.00039675,-0.002,-0.051375,0.117125,-0.0078735,0.008133001,0.011673001,1741898069.432209
-0.05575,0.07725,0.07975,0.000122000005,0.0,0.00036625,0.0065,-0.04225,0.1105,-0.0069580004,0.007965,0.012252751,1741898069.444648
-0.0555,0.077125,0.079875,0.0001525,-4.575e-05,0.00035100002,0.010875,-0.0405,0.10875,-0.00325,0.0070952503,0.01316825,1741898069.459264
-0.056375,0.077,0.08,0.000183,-9.15e-05,0.0003205,0.018625,-0.044125,0.1105,-0.00175475,0.0067445002,0.0135955,1741898069.4737542
-0.05675,0.077375,0.08,0.00016775,-9.15e-05,0.00030525,0.020625,-0.045875,0.112375,-0.00169375,0.0067597497,0.0147705,1741898069.488266
-0.0565,0.07725,0.08,0.000122000005,-9.15e-05,0.000183,0.02125,-0.041875,0.112375,-0.0029907501,0.0070342496,0.015090999,1741898069.502777
-0.056375,0.077125,0.079625,0.00010675,-0.00010675,0.00013725001,0.0255,-0.037375,0.10825,-0.00444025,0.00712575,0.01490775,1741898069.517217
-0.0565,0.077625,0.079625,4.575e-05,-0.0001525,7.625e-05,0.03125,-0.035,0.10425,-0.00555425,0.0056609996,0.013412501,1741898069.5331998
-0.057,0.078375,0.079625,3.0500001e-05,-0.000122000005,0.0,0.038375,-0.03775,0.1035,-0.0049742498,0.00440975,0.013153,1741898069.546432
-0.056875,0.078,0.0795,9.15e-05,-1.5250001e-05,-9.15e-05,0.04075,-0.039,0.1075,-0.0037385002,0.00305175,0.01239025,1741898069.560949
-0.056625,0.077,0.079125,0.00013725001,3.0500001e-05,-7.625e-05,0.043625,-0.0435,0.1155,-0.0036162501,0.003296,0.01115425,1741898069.575692
-0.056625,0.076625,0.07925,0.00019825,7.625e-05,-6.1000002e-05,0.0435,-0.04125,0.114875,-0.0030975002,0.0031585,0.009872501,1741898069.593078
-0.056625,0.076625,0.0795,0.00027475,0.000183,4.575e-05,0.04375,-0.032875,0.11075,-0.0017395001,0.0024414998,0.009552,1741898069.605134
-0.05675,0.077,0.08,0.00030525,0.0002135,0.00010675,0.04425,-0.036,0.11125,0.0016175,0.0013427499,0.009506251,1741898069.619599
-0.057,0.077125,0.080125,0.00036625,0.00027475,0.000229,0.04175,-0.035875,0.112375,0.0022277501,0.001068,0.00985725,1741898069.63421
-0.05725,0.076875,0.08025,0.000412,0.00030525,0.0002595,0.04125,-0.0335,0.11125,0.00242625,0.000763,0.00985725,1741898069.652311
-0.05725,0.076625,0.08,0.00045775,0.00035100002,0.0003205,0.0405,-0.03225,0.113125,0.002411,0.00057975,0.00968925,1741898069.6631382
-0.057,0.07625,0.08,0.00042725,0.0003815,0.00035100002,0.038,-0.03275,0.1155,0.001831,0.0004425,0.009491,1741898069.677587
-0.056875,0.076125,0.08,0.00039675,0.00033575002,0.00036625,0.033125,-0.032,0.117,0.00112925,0.00061025,0.00930775,1741898069.694039
-0.05675,0.0765,0.08,0.00039675,0.00033575002,0.0003815,0.032875,-0.031375,0.1175,0.00024425,0.00093075,0.00918575,1741898069.706987
-0.05675,0.077,0.080125,0.00042725,0.00035100002,0.000412,0.033875,-0.03025,0.1165,-0.0017852499,0.0016632499,0.0085602505,1741898069.721196
-0.057,0.07725,0.08025,0.00054925,0.0004425,0.0004425,0.03625,-0.02725,0.115625,-0.0029145,0.00193775,0.00791925,1741898069.735775
-0.056875,0.076875,0.08025,0.00065625,0.00051875,0.00045775,0.037625,-0.025875,0.116125,-0.0037385002,0.002243,0.0072785,1741898069.752969
-0.056875,0.0765,0.080375,0.000824,0.00064075,0.00051875,0.038625,-0.023625,0.117625,-0.00340275,0.0021515,0.0072480002,1741898069.764755
-0.055875,0.075625,0.0805,0.0008545,0.00068675,0.000534,0.038,-0.023375,0.117,-0.00251775,0.001709,0.006775,1741898069.779259
-0.05625,0.075375,0.080625,0.000885,0.00071725,0.00065625,0.03725,-0.023875,0.1135,-0.00190725,0.0013885,0.006668,1741898069.793771
-0.057375,0.075625,0.081,0.0007935,0.0007935,0.00067150005,0.036125,-0.025125,0.113375,-0.0007935,0.00067150005,0.0070342496,1741898069.8082612
-0.05675,0.075375,0.080875,0.00070200005,0.00090025004,0.00062550005,0.033125,-0.03075,0.117375,-0.00099175,0.000473,0.0072480002,1741898069.822808
-0.05625,0.0755,0.080625,0.00068675,0.001007,0.00067150005,0.033625,-0.03225,0.11875,-0.00154125,0.00045775,0.007599,1741898069.837395
-0.0565,0.075875,0.080875,0.0007325,0.0010375,0.00071725,0.03575,-0.029,0.118125,-0.0012055,0.00019825,0.008926501,1741898069.8562748
-0.0565,0.075875,0.081,0.00086975005,0.00112925,0.000763,0.03475,-0.030125,0.117625,-0.000473,-1.5250001e-05,0.009369001,1741898069.866577
-0.056375,0.0755,0.08125,0.0009155,0.00119025,0.0007935,0.034375,-0.032375,0.116875,-0.002243,0.000229,0.009948749,1741898069.881207
-0.05625,0.07525,0.081375,0.00093075,0.00125125,0.0007935,0.035125,-0.032125,0.1185,-0.00378425,0.000473,0.0104674995,1741898069.897244
-0.056125,0.075,0.081625,0.00090025004,0.001419,0.000885,0.036875,-0.030125,0.1175,-0.0045625,0.0013580001,0.0112915,1741898069.91297
-0.05625,0.074625,0.082,0.00083925005,0.0015105,0.00096125,0.04,-0.028,0.119875,-0.0043639997,0.00157175,0.01145925,1741898069.924763
-0.056375,0.07475,0.082,0.00074775,0.001709,0.00108325,0.039125,-0.028125,0.12325,-0.00402825,0.0023345,0.01177975,1741898069.9392698
-0.0565,0.074875,0.0825,0.0007325,0.0018005001,0.0011445,0.039,-0.025625,0.12775,-0.0037995,0.0031127501,0.011901749,1741898069.954241
-0.056625,0.07475,0.082625,0.00067150005,0.0019989999,0.0013275,0.0405,-0.023,0.12725,-0.0027160002,0.0044555003,0.011749251,1741898069.968381
-0.057125,0.074625,0.082625,0.00065625,0.0021057501,0.0014495,0.043375,-0.01775,0.123375,-0.0020752498,0.0049742498,0.011260999,1741898069.98297
-0.057,0.0745,0.0825,0.00064075,0.0022277501,0.001587,0.045125,-0.015625,0.120875,-0.000534,0.0059815003,0.010253999,1741898069.9975889
-0.057,0.0745,0.082875,0.00071725,0.00238025,0.00184625,0.04925,-0.012,0.1205,0.00057975,0.0063934997,0.010101249,1741898070.012726
-0.058875,0.075375,0.085125,0.00074775,0.002533,0.00198375,0.050625,-0.009125,0.12175,0.00169375,0.0069885002,0.00997925,1741898070.026641
-0.059875,0.075625,0.08575,0.0007325,0.0030669998,0.0021819999,0.052125,-0.006625,0.123375,0.00317375,0.008316,0.0091095,1741898070.041225
-0.061875,0.078875,0.088,0.0007325,0.00343325,0.00213625,0.051875,-0.00575,0.124875,0.0034942501,0.0090485,0.00830075,1741898070.0556889
-0.062875,0.079375,0.086875,0.00093075,0.004074,0.0013885,0.051125,-0.007,0.12375,0.0020905002,0.011016751,0.0059815003,1741898070.073141
-0.0605,0.075125,0.08575,0.00131225,0.00419625,0.0009765,0.052875,-0.0055,0.11625,0.00109875,0.012054499,0.0048979996,1741898070.0847092
-0.0615,0.077375,0.090375,0.0016632499,0.0043944996,0.00059500005,0.0545,-0.004,0.113,0.00036625,0.013137749,0.00292975,1741898070.099137
-0.06975,0.084625,0.09625,0.0012817499,0.00570675,-0.000885,0.055375,-0.004875,0.1105,0.00048825,0.01339725,0.0020905002,1741898070.11351
-0.071375,0.082125,0.094125,0.00070200005,0.006607,-0.00187675,0.05675,-0.0065,0.10925,0.00048825,0.01380925,0.0008545,1741898070.128017
-0.070625,0.078,0.0915,-0.0001525,0.007904,-0.00289925,0.058875,-0.01075,0.10675,6.1000002e-05,0.0138855,0.00035100002,1741898070.1424792
-0.071125,0.078625,0.09125,-0.00061025,0.00839225,-0.00302125,0.060375,-0.011875,0.104375,-0.0012207499,0.013778751,-0.00059500005,1741898070.157038
-0.073,0.081,0.0925,-0.00125125,0.00962825,-0.0037385002,0.06275,-0.01325,0.100375,-0.0016632499,0.013488751,-0.001068,1741898070.173307
-0.0745,0.08025,0.09375,-0.0012817499,0.010391249,-0.0042572496,0.063875,-0.013375,0.09875,-0.0020905002,0.013137749,-0.0015565,1741898070.186188
-0.073125,0.079,0.093625,-0.0017242499,0.011810251,-0.0048065,0.06525,-0.0125,0.098,-0.00292975,0.0123442495,-0.00245675,1741898070.200911
-0.069625,0.079375,0.09475,-0.00238025,0.0124665005,-0.0050812503,0.0655,-0.01325,0.097125,-0.0029907501,0.01187125,-0.0028687501,1741898070.215581
-0.06775,0.079,0.094875,-0.00340275,0.013137749,-0.0056,0.064625,-0.015875,0.097,-0.0028074998,0.0109709995,-0.003296,1741898070.232654
-0.065,0.077625,0.09425,-0.0063477503,0.014267,-0.0070342496,0.06575,-0.018875,0.09325,-0.0028687501,0.010604749,-0.0033570002,1741898070.2449589
-0.056125,0.076875,0.091375,-0.00764475,0.014709501,-0.0075682504,0.06725,-0.018,0.09,-0.0031127501,0.009491,-0.00378425,1741898070.2595441
-0.050875,0.078125,0.09075,-0.007904,0.01570125,-0.00791925,0.06875,-0.014625,0.085625,-0.003006,0.00862125,-0.004074,1741898070.274307
-0.04525,0.080625,0.092625,-0.007019,0.01634225,-0.00782775,0.06925,-0.013375,0.084125,-0.002411,0.0065307496,-0.00466925,1741898070.290011
-0.043,0.079375,0.09225,-0.00538625,0.017517,-0.00744625,0.071875,-0.01075,0.080625,-0.001953,0.0054015,-0.00514225,1741898070.303786
-0.036375,0.075625,0.0945,-0.0050202496,0.017929,-0.0069580004,0.072625,-0.01075,0.081125,-0.00105275,0.00334175,-0.00662225,1741898070.3184571
-0.03425,0.07825,0.09575,-0.0054015,0.018737748,-0.006073,0.069375,-0.017,0.0865,-0.0007325,0.002533,-0.00723275,1741898070.335113
-0.031375,0.0835,0.09625,-0.0055237496,0.019195499,-0.0059967497,0.06875,-0.01875,0.086875,-0.00042725,0.001007,-0.0078735,1741898070.347677
-0.028375,0.08375,0.0955,-0.0052947504,0.019622749,-0.0061035,0.0685,-0.01825,0.086875,-0.00036625,0.00010675,-0.008346501,1741898070.3623822
-0.0245,0.083875,0.096375,-0.00463875,0.02000425,-0.00646975,0.066625,-0.018125,0.0905,-0.000229,-0.001114,-0.00947575,1741898070.377168
-0.020875,0.090125,0.102125,-0.0046234997,0.020111,-0.00672925,0.063,-0.018625,0.104875,-0.000183,-0.00108325,-0.00985725,1741898070.392874
-0.019,0.09075,0.10325,-0.0042115003,0.02041625,-0.00723275,0.062375,-0.019625,0.110625,-0.00013725001,-0.00064075,-0.0101165,1741898070.406333
-0.011625,0.0885,0.102,-0.00369275,0.020599252,-0.0070952503,0.063625,-0.020375,0.111625,7.625e-05,0.00061025,-0.010681249,1741898070.420964
-0.008,0.090375,0.1015,-0.00292975,0.020813,-0.0068512503,0.0645,-0.019125,0.110125,0.00024425,0.00109875,-0.011260999,1741898070.435478
-0.005,0.100125,0.1035,-0.00245675,0.021164,-0.0072632497,0.065125,-0.01925,0.1075,0.00077825,0.0018615,-0.01257325,1741898070.453089
-0.00475,0.102875,0.1045,-0.00024425,0.022827249,-0.009658749,0.063375,-0.022875,0.107625,0.000946,0.00201425,-0.01301575,1741898070.464457
-0.000375,0.095,0.102,0.00083925005,0.023681749,-0.010894749,0.0615,-0.022875,0.11075,0.00059500005,0.0031585,-0.013931249,1741898070.479151
0.001375,0.093875,0.101125,0.001114,0.02417,-0.011612001,0.06225,-0.019875,0.112625,0.00039675,0.00408925,-0.0144805005,1741898070.493474
0.003125,0.093875,0.099,-0.000183,0.02439875,-0.012420749,0.0625,-0.020125,0.111375,0.00027475,0.0054780003,-0.015594499,1741898070.50796
0.008625,0.09475,0.09575,-0.000946,0.024353001,-0.012847999,0.061875,-0.025375,0.104625,0.000229,0.0059205,-0.01599125,1741898070.522541
0.010625,0.097625,0.0965,-0.00198375,0.024643,-0.0144805005,0.061875,-0.0285,0.1025,-0.00036625,0.0063325,-0.016296498,1741898070.537057
0.013,0.102875,0.096,-0.0020752498,0.0249635,-0.01586925,0.062,-0.030875,0.1005,-0.0010375,0.0065612504,-0.016388,1741898070.553388
0.015875,0.10025,0.09225,-0.00083925005,0.025421249,-0.0187225,0.062625,-0.0305,0.098625,-0.0021057501,0.006668,-0.01655575,1741898070.5663948
0.022125,0.0935,0.0845,-3.0500001e-05,0.025314251,-0.019592252,0.06375,-0.02975,0.097625,-0.00225825,0.0065002497,-0.01670825,1741898070.5810711
0.025,0.090375,0.082125,0.00035100002,0.02487175,-0.020202748,0.063625,-0.031625,0.098,-0.00228875,0.0062865,-0.016845752,1741898070.595716
0.031125,0.086625,0.081875,0.0018005001,0.023346001,-0.02088925,0.062875,-0.0375,0.098625,-0.0027312501,0.0059815003,-0.016632,1741898070.613604
0.03425,0.08725,0.082,0.0019989999,0.022643998,-0.02105725,0.063625,-0.040125,0.096125,-0.0032195,0.00593575,-0.01634225,1741898070.625036
0.0365,0.089,0.08175,0.00099175,0.0215455,-0.02180475,0.064,-0.042,0.0935,-0.00460825,0.0054475004,-0.01570125,1741898070.6396968
0.03725,0.09125,0.07875,0.00143425,0.02127075,-0.02224725,0.064,-0.042625,0.090625,-0.00505075,0.0050965,-0.0153807495,1741898070.654453
0.038625,0.090125,0.077375,0.00517275,0.021514999,-0.0232085,0.06375,-0.0425,0.09225,-0.0048979996,0.0044250004,-0.014510999,1741898070.6690361
0.0425,0.082,0.075875,0.007782,0.0219115,-0.02357475,0.064,-0.046375,0.0935,-0.0045012496,0.00402825,-0.0138245,1741898070.683692
0.044625,0.078375,0.07375,0.009903,0.0222015,-0.02371225,0.064125,-0.05025,0.0925,-0.00372325,0.0025025,-0.012267999,1741898070.6983612
0.047,0.075875,0.07075,0.01150525,0.0216675,-0.023407,0.063375,-0.054375,0.0915,-0.0034942501,0.00175475,-0.0114744995,1741898070.713404
0.05025,0.066375,0.065125,0.01121525,0.020813,-0.0230255,0.064125,-0.053375,0.090625,-0.00320425,0.0007325,-0.0099639995,1741898070.72773
0.05025,0.0605,0.064375,0.00889575,0.018585252,-0.021362249,0.06475,-0.05225,0.088,-0.00296025,0.000183,-0.009277251,1741898070.742455
0.0495,0.058125,0.065375,0.0074004997,0.017501751,-0.02026375,0.064125,-0.05175,0.088625,-0.00242625,-0.00080875,-0.008194,1741898070.7571368
0.051625,0.05775,0.065125,0.0068665,0.01579275,-0.0187835,0.063125,-0.051,0.091375,-0.002243,-0.00108325,-0.00770575,1741898070.7733371
0.06,0.053625,0.063875,0.0056915004,0.014785751,-0.018310498,0.062625,-0.0505,0.093125,-0.0019225,-0.00154125,-0.0067902496,1741898070.7867498
0.062625,0.0495,0.06325,0.00396725,0.012832751,-0.017120251,0.062,-0.0505,0.09475,-0.00193775,-0.0017242499,-0.0063934997,1741898070.801443
0.064875,0.046,0.06325,0.001709,0.01156625,-0.0159455,0.06275,-0.049625,0.0935,-0.0020599999,-0.0020599999,-0.00567625,1741898070.816156
0.0655,0.045125,0.063375,-0.0005645,0.01036075,-0.014846751,0.064375,-0.04775,0.091125,-0.0020295,-0.00225825,-0.00546275,1741898070.830933
0.06625,0.042375,0.0615,-0.00413525,0.00791925,-0.012832751,0.064,-0.046625,0.092625,-0.00181575,-0.00270075,-0.00531,1741898070.845807
0.069375,0.0425,0.057375,-0.0062712496,0.006302,-0.011734,0.062625,-0.044375,0.095875,-0.001587,-0.0028229998,-0.0052795,1741898070.860448
0.0715,0.04575,0.057375,-0.0081025,0.0027160002,-0.010162249,0.06225,-0.04425,0.096625,-0.00125125,-0.002884,-0.0052642496,1741898070.877792
0.075,0.0445,0.062125,-0.008941749,0.00108325,-0.00962825,0.060875,-0.044625,0.09775,-0.00074775,-0.0028229998,-0.00531,1741898070.8928142
0.075625,0.048875,0.067,-0.013153,-0.00198375,-0.0085602505,0.06,-0.044125,0.099625,-0.00070200005,-0.00267025,-0.0053709997,1741898070.904783
0.07225,0.055375,0.073375,-0.013778751,-0.003006,-0.008316,0.059375,-0.04325,0.102,-0.00068675,-0.0020295,-0.00564575,1741898070.919463
0.0695,0.057875,0.077875,-0.013336251,-0.0031585,-0.0079955,0.059125,-0.04225,0.106875,-0.00054925,-0.00154125,-0.0058287503,1741898070.9341629
0.06875,0.066125,0.085375,-0.0077210004,-0.0001525,-0.00874325,0.06,-0.041875,0.108375,-7.625e-05,-0.0002595,-0.006363,1741898070.948888
0.072125,0.058,0.07275,-0.00270075,0.00302125,-0.009506251,0.060875,-0.043625,0.108125,0.000183,0.00042725,-0.00665275,1741898070.9635022
0.07575,0.059625,0.0725,-0.00228875,0.00367725,-0.008316,0.060875,-0.045125,0.106,0.00074775,0.001648,-0.00688175,1741898070.978188
0.079625,0.06,0.071875,-0.0040435,0.00355525,-0.008270251,0.060875,-0.047,0.1015,0.00090025004,0.0021057501,-0.0068665,1741898070.993286
0.078875,0.06125,0.082375,-0.0053252503,0.00308225,-0.008407501,0.061,-0.04775,0.10025,0.0007935,0.0028535,-0.0065765,1741898071.007297
0.076375,0.05775,0.102375,0.003418,0.006546,-0.008316,0.060875,-0.0505,0.0995,0.00074775,0.00308225,-0.006302,1741898071.021795
0.07675,0.053,0.080875,0.019516,0.01586925,-0.007187,0.060375,-0.052,0.10125,0.00067150005,0.0034790002,-0.0056304997,1741898071.036252
0.082625,0.04225,0.05125,0.008285499,0.0125275,-0.0060577504,0.060125,-0.053625,0.103375,0.00061025,0.0038757501,-0.0052185003,1741898071.053439
0.084375,0.046625,0.0665,-0.005005,0.0065765,-0.0048217503,0.06125,-0.054375,0.10075,0.00042725,0.0045165,-0.00413525,1741898071.065363
0.083625,0.051,0.071125,-0.0085755,0.0029145,-0.0042572496,0.06425,-0.054125,0.09375,0.0003205,0.0044555003,-0.0036315,1741898071.080032
0.07875,0.061,0.070625,-0.0072175004,0.0030975002,-0.0048979996,0.064875,-0.05325,0.091125,0.00039675,0.0042572496,-0.00317375,1741898071.094665
0.07725,0.059875,0.0705,-0.0056304997,0.00358575,-0.00579825,0.063,-0.05325,0.0885,0.0013580001,0.003769,-0.0021515,1741898071.113696
0.0805,0.050875,0.070875,-0.00491325,0.00372325,-0.0052337497,0.06175,-0.0545,0.08825,0.00198375,0.0035095,-0.001648,1741898071.124022
0.0835,0.049,0.07025,-0.00358575,0.00372325,-0.0031889998,0.060625,-0.055625,0.08875,0.0025025,0.0028535,-0.0009155,1741898071.138494
0.086125,0.053125,0.069875,-0.00296025,0.0036162501,-0.00245675,0.060125,-0.0555,0.087,0.00238025,0.0023039998,-0.00061025,1741898071.153072
0.085375,0.0545,0.071375,-0.0023345,0.0035704998,-0.00213625,0.060375,-0.054875,0.08575,0.0022735,0.00054925,-0.0002135,1741898071.167553
0.084125,0.053125,0.072,-0.001236,0.003769,-0.0019685,0.059625,-0.053125,0.08725,0.00228875,-0.00033575002,-0.00016775,1741898071.182058
0.085375,0.050875,0.070125,-0.00077825,0.003891,-0.0017395001,0.059125,-0.052375,0.0885,0.001892,-0.0012665,-0.00010675,1741898071.1968892
0.087,0.050625,0.070125,-0.0003205,0.0041504996,-0.0005645,0.058,-0.05175,0.0895,0.00149525,-0.001419,-9.15e-05,1741898071.2136042
0.08725,0.053375,0.07325,-0.0002595,0.0044250004,-9.15e-05,0.057875,-0.051625,0.089875,0.000946,-0.002243,-6.1000002e-05,1741898071.226377
0.086625,0.05425,0.073625,-0.000229,0.005249,0.0005035,0.056875,-0.0515,0.09225,0.0008545,-0.002884,-6.1000002e-05,1741898071.2410822
0.086375,0.0555,0.071375,-7.625e-05,0.0057677496,0.00083925005,0.056375,-0.052375,0.09375,0.0007325,-0.0041504996,6.1000002e-05,1741898071.255726
0.0865,0.05625,0.069625,0.00051875,0.0068665,0.00148,0.056875,-0.053625,0.093,0.00071725,-0.004776,0.000183,1741898071.2735748
0.08725,0.055875,0.066,0.001007,0.0073395,0.00163275,0.05725,-0.053875,0.092625,0.00065625,-0.0058135,0.00035100002,1741898071.285124
0.08725,0.055375,0.064875,0.001526,0.0077210004,0.00175475,0.054875,-0.055125,0.09525,0.000473,-0.0059815003,0.00051875,1741898071.2997272
0.087125,0.05425,0.06425,0.0019225,0.00845325,0.0020905002,0.05425,-0.054875,0.096875,0.0003815,-0.0059205,0.0007935,1741898071.315834
0.0875,0.056,0.06225,0.0017395001,0.008712751,0.00239575,0.053875,-0.055125,0.097875,0.0009155,-0.0058135,0.0015105,1741898071.328923
0.088,0.061375,0.059375,0.0030365,0.009292499,0.0021515,0.053625,-0.055375,0.097375,0.00125125,-0.0058287503,0.00181575,1741898071.3436139
0.08975,0.066,0.053625,0.0046845004,0.009613,0.00146475,0.054,-0.055875,0.09625,0.00160225,-0.005844,0.002472,1741898071.358175
0.090375,0.064625,0.0525,0.0077515002,0.00985725,0.000229,0.054875,-0.05875,0.094875,0.00169375,-0.0058899997,0.00292975,1741898071.373287
0.091625,0.058,0.052625,0.008545,0.00976575,-6.1000002e-05,0.054375,-0.06025,0.094375,0.0021515,-0.0062407497,0.0041810004,1741898071.3871958
0.092375,0.05275,0.05325,0.00845325,0.00953675,-0.0001525,0.0535,-0.059625,0.094375,0.0023345,-0.0065307496,0.00485225,1741898071.4017699
0.093625,0.04675,0.053,0.0052337497,0.008636501,0.0005645,0.053875,-0.058,0.094125,0.00225825,-0.0069274995,0.00596625,1741898071.416304
0.096125,0.046125,0.048875,0.0028687501,0.00770575,0.0012970001,0.05475,-0.05425,0.09475,0.0020599999,-0.0070342496,0.0063325,1741898071.434943
0.097125,0.050875,0.04625,-0.000122000005,0.0056,0.00184625,0.054875,-0.05275,0.0955,0.0019225,-0.0072480002,0.0068665,1741898071.445486
0.098125,0.058,0.03825,-0.0003205,0.0046539996,0.0015105,0.054,-0.0515,0.09575,0.0022277501,-0.0074615004,0.00712575,1741898071.460007
0.098125,0.058125,0.036625,-3.0500001e-05,0.00372325,0.00112925,0.053125,-0.051875,0.09525,0.0029907501,-0.008316,0.00747675,1741898071.474463
0.098,0.055375,0.03875,0.00010675,0.0015565,0.000763,0.050375,-0.053,0.097625,0.003128,-0.008773751,0.0075835,1741898071.493611
0.097625,0.053375,0.041,-0.00048825,0.00030525,0.000824,0.049375,-0.052375,0.099625,0.0030669998,-0.009079001,0.0076599997,1741898071.503568
0.097,0.052625,0.043375,-0.00251775,-0.0020905002,0.00125125,0.049,-0.05175,0.10175,0.00279225,-0.00930775,0.007782,1741898071.518066
0.094625,0.052125,0.04775,-0.0033722501,-0.0029755002,0.001419,0.0475,-0.05175,0.102875,0.00283825,-0.009231499,0.00788875,1741898071.5352561
0.092875,0.05275,0.050375,-0.0037385002,-0.0037385002,0.001587,0.04725,-0.0525,0.10075,0.00279225,-0.009445249,0.0081025,1741898071.547303
0.091125,0.052,0.05425,-0.0032655,-0.00372325,0.0016785001,0.046875,-0.052625,0.09875,0.0028687501,-0.0102845,0.00830075,1741898071.561814
0.09075,0.052,0.055125,-0.0020905002,-0.00352475,0.002243,0.045375,-0.051,0.100625,0.0036162501,-0.0113525,0.00880425,1741898071.5764868
0.091,0.050875,0.057625,-0.00160225,-0.00343325,0.00263975,0.044,-0.04975,0.10475,0.0038299998,-0.011306751,0.008850001,1741898071.5945868
0.09225,0.048375,0.059875,-0.0012055,-0.003296,0.00308225,0.043125,-0.051125,0.105625,0.0033722501,-0.01092525,0.00897225,1741898071.6055338
0.093625,0.04425,0.062,-0.0013275,-0.002655,0.0045165,0.04275,-0.052625,0.10325,0.0028229998,-0.010757499,0.009079001,1741898071.620076
0.093375,0.040125,0.062875,-0.001831,-0.00231925,0.0056609996,0.042875,-0.052125,0.1015,0.0021972498,-0.0110625,0.009262,1741898071.634701
0.092875,0.04,0.06125,-0.00292975,-0.0017242499,0.008316,0.041125,-0.051625,0.101375,0.00242625,-0.01148975,0.0093995,1741898071.6499588
0.094625,0.04725,0.055125,-0.0033570002,-0.00169375,0.00968925,0.039625,-0.052375,0.1025,0.00296025,-0.01187125,0.009674,1741898071.663727
0.097125,0.054375,0.052,-0.00369275,-0.00242625,0.01127625,0.038125,-0.05125,0.103875,0.003662,-0.012557999,0.010437001,1741898071.678346
0.09975,0.063875,0.050625,-0.00372325,-0.002884,0.0114744995,0.03775,-0.051125,0.1045,0.0035704998,-0.012909001,0.0106355,1741898071.694783
0.0985,0.06825,0.0525,-0.00384525,-0.00325,0.0114744995,0.037125,-0.05175,0.105,0.0028074998,-0.01316825,0.01077275,1741898071.707503
0.094,0.075125,0.0575,-0.0044555003,-0.00355525,0.010727,0.035875,-0.052,0.105,0.0023497501,-0.01307675,0.010879501,1741898071.721986
0.092375,0.074875,0.058875,-0.0050202496,-0.0035095,0.010024999,0.035625,-0.05175,0.10425,0.00160225,-0.012634249,0.01142875,1741898071.736584
0.091125,0.074875,0.06,-0.006012,-0.0032347501,0.008865249,0.034875,-0.05075,0.105375,0.0013580001,-0.012619001,0.011734,1741898071.753864
0.088125,0.07975,0.06275,-0.00587475,-0.00283825,0.008270251,0.033875,-0.050375,0.106875,0.00112925,-0.012619001,0.012024,1741898071.7659678
0.087125,0.083125,0.062875,-0.0047150003,-0.0016632499,0.0068665,0.0345,-0.046375,0.11075,0.001175,-0.012634249,0.012085,1741898071.780718
0.087,0.08675,0.060625,-0.00419625,-0.00108325,0.0061645,0.034875,-0.04425,0.11325,0.0018615,-0.0125885,0.011901749,1741898071.795913
0.086875,0.0855,0.059875,-0.0038299998,-0.00019825,0.00494375,0.0355,-0.042,0.116625,0.0021972498,-0.0123595,0.0117035,1741898071.8099542
0.08475,0.081,0.058375,-0.00399775,3.0500001e-05,0.0044250004,0.036,-0.040875,0.117625,0.001892,-0.01136775,0.0110015,1741898071.82466
0.084,0.07975,0.05775,-0.0043639997,0.000122000005,0.003952,0.03675,-0.039375,0.118125,0.0012055,-0.0106355,0.01048275,1741898071.839245
0.083875,0.07875,0.057375,-0.0052642496,3.0500001e-05,0.00340275,0.036875,-0.039125,0.11825,6.1000002e-05,-0.00912475,0.00935375,1741898071.859322
0.083375,0.081375,0.05775,-0.0056609996,1.5250001e-05,0.0032347501,0.035875,-0.039375,0.118375,-9.15e-05,-0.008499251,0.00891125,1741898071.8686771
0.0825,0.0835,0.0575,-0.00585925,0.0001525,0.00254825,0.034875,-0.039,0.119375,-6.1000002e-05,-0.0079955,0.0085602505,1741898071.883277
0.080875,0.083375,0.056625,-0.0057525,0.000229,0.0022277501,0.03325,-0.038125,0.121375,4.575e-05,-0.00697325,0.0077210004,1741898071.897932
0.081125,0.082375,0.056875,-0.0057525,0.00027475,0.0019989999,0.033875,-0.036375,0.121875,-7.625e-05,-0.0061645,0.00744625,1741898071.914939
0.082625,0.077125,0.058375,-0.0059815003,0.00019825,0.0020752498,0.03475,-0.034,0.12225,-0.000473,-0.00437925,0.00688175,1741898071.92709
0.082375,0.07525,0.059875,-0.00617975,7.625e-05,0.00231925,0.035375,-0.0325,0.121,-0.00059500005,-0.0036010002,0.006363,1741898071.9418108
0.081875,0.07575,0.06125,-0.00579825,0.00016775,0.0028687501,0.0355,-0.03275,0.1195,-0.0008545,-0.00231925,0.00494375,1741898071.956492
0.082125,0.081125,0.0595,-0.00514225,0.0003205,0.0029907501,0.035,-0.0325,0.118,-0.00090025004,-0.001892,0.00416575,1741898071.972992
0.083,0.081875,0.058,-0.00364675,0.00057975,0.0031889998,0.034125,-0.032375,0.118,-0.00057975,-0.0012207499,0.00279225,1741898071.985834
0.08325,0.08375,0.05575,-0.00305175,0.00054925,0.00331125,0.03275,-0.031,0.118125,-0.00051875,-0.00083925005,0.0021057501,1741898072.0004969
0.08375,0.083375,0.054375,-0.0021972498,0.000122000005,0.0033722501,0.0325,-0.03075,0.11775,-0.00042725,-1.5250001e-05,0.00059500005,1741898072.015062
0.0845,0.08125,0.052875,-0.0019225,-0.00024425,0.00354,0.031625,-0.032375,0.1165,-0.000122000005,0.00029,-0.00013725001,1741898072.0335062
0.08475,0.08075,0.053375,-0.00169375,-0.00059500005,0.0037385002,0.030875,-0.034125,0.115625,0.00045775,0.00071725,-0.00146475,1741898072.044672
0.085,0.07975,0.054625,-0.0013427499,-0.0008545,0.0042267498,0.0295,-0.03725,0.113875,0.00045775,0.000885,-0.00204475,1741898072.059196
0.084375,0.077625,0.05525,-0.00125125,-0.000763,0.0045165,0.0295,-0.037875,0.11275,0.0,0.0012817499,-0.0030365,1741898072.074028
0.0835,0.07675,0.054,-0.0012817499,-0.00054925,0.0049285004,0.03,-0.038625,0.109875,-0.0002595,0.001419,-0.0034484998,1741898072.088376
0.08125,0.076375,0.051,-0.0013275,-0.00061025,0.0050202496,0.029375,-0.03975,0.109375,-0.0005035,0.0014495,-0.00378425,1741898072.103036
0.08075,0.0765,0.04975,-0.00077825,-0.00071725,0.0049590003,0.02775,-0.041875,0.10975,-0.00071725,0.00143425,-0.0041044997,1741898072.1176782
0.079375,0.077125,0.04825,-0.00013725001,-0.0007325,0.0048979996,0.027625,-0.043,0.109875,-0.00070200005,0.00143425,-0.0041504996,1741898072.133708
0.078625,0.076375,0.047625,0.0014037499,-0.00064075,0.00485225,0.02775,-0.043875,0.110125,-0.00083925005,0.00146475,-0.00428775,1741898072.1470132
0.07825,0.073125,0.046,0.0020905002,-0.00061025,0.0049742498,0.0285,-0.044375,0.112125,-0.000946,0.0015105,-0.0043639997,1741898072.1616871
0.07875,0.073125,0.044625,0.002777,-0.00068675,0.0052185003,0.0295,-0.044125,0.113125,-0.0007935,0.001709,-0.00453175,1741898072.176311
0.0795,0.0745,0.042875,0.00419625,-0.0012665,0.0056609996,0.030625,-0.0435,0.113875,-0.00057975,0.0017395001,-0.00463875,1741898072.1933582
0.081,0.079875,0.040625,0.004776,-0.0017242499,0.00590525,0.0305,-0.0435,0.113625,-0.0003205,0.0018005001,-0.004837,1741898072.205684
0.081875,0.083375,0.04,0.0055847503,-0.0030365,0.00614925,0.030625,-0.043375,0.113125,-0.00033575002,0.001953,-0.0049285004,1741898072.22049
0.084125,0.085875,0.0415,0.0056609996,-0.0038299998,0.006012,0.031125,-0.04325,0.112375,-0.000473,0.0023345,-0.00511175,1741898072.2350888
0.084625,0.0855,0.04375,0.0054932497,-0.0046539996,0.0058135,0.032375,-0.043,0.110625,-0.00048825,0.0024414998,-0.0052185003,1741898072.253421
0.0845,0.085,0.0465,0.00491325,-0.0061035,0.0053709997,0.03225,-0.0435,0.110625,-0.00045775,0.0024872501,-0.00535575,1741898072.264369
0.082375,0.08525,0.052125,0.0047455,-0.00662225,0.00511175,0.032125,-0.0445,0.111125,-0.000473,0.0025025,-0.0053709997,1741898072.279066
0.081,0.086625,0.053875,0.004776,-0.0073242504,0.00434875,0.03225,-0.045,0.11125,-0.00059500005,0.00254825,-0.00535575,1741898072.2955
0.079,0.0855,0.05675,0.0049742498,-0.00737,0.0038299998,0.03225,-0.0455,0.11025,-0.00068675,0.002533,-0.0053405,1741898072.3085902
0.079125,0.081375,0.05775,0.0050965,-0.0069885002,0.00340275,0.03225,-0.04575,0.1095,-0.0009155,0.00239575,-0.005249,1741898072.3234031
0.079875,0.0725,0.059125,0.00469975,-0.0068969997,0.0037537501,0.031625,-0.047125,0.10875,-0.00099175,0.0022735,-0.0051269997,1741898072.338242
0.08075,0.07,0.059625,0.0032195,-0.00697325,0.0051269997,0.03125,-0.048,0.108375,-0.001236,0.001953,-0.0046845004,1741898072.35286
0.081375,0.069125,0.057,0.00251775,-0.0071105,0.00596625,0.031625,-0.049125,0.108,-0.0013427499,0.0018005001,-0.00444025,1741898072.3674781
0.081125,0.070375,0.054375,0.002121,-0.0072937496,0.0068207504,0.032,-0.0495,0.108125,-0.00137325,0.00163275,-0.004242,1741898072.382186
0.08075,0.072,0.051375,0.00238025,-0.00791925,0.0081635,0.0325,-0.050125,0.109125,-0.0013275,0.00137325,-0.0038605002,1741898072.39682
0.077375,0.0775,0.0485,0.0029449998,-0.00852975,0.008651749,0.03275,-0.050125,0.10975,-0.00131225,0.0013580001,-0.00367725,1741898072.413374
0.074,0.079125,0.0485,0.0042725,-0.01013175,0.00912475,0.0325,-0.05025,0.110375,-0.0012207499,0.00143425,-0.0032347501,1741898072.4260852
0.0665,0.078125,0.05125,0.0045165,-0.01104725,0.009262,0.03125,-0.050375,0.11225,-0.0011445,0.00154125,-0.0029449998,1741898072.440703
0.064,0.077625,0.051875,0.0043182503,-0.0119934995,0.009506251,0.031,-0.050125,0.113,-0.000946,0.001892,-0.0023039998,1741898072.455285
0.06375,0.076,0.052875,0.00364675,-0.01396175,0.0104065,0.031125,-0.04875,0.113125,-0.00080875,0.0020295,-0.0020752498,1741898072.4735029
0.066,0.0755,0.05325,0.00328075,-0.0147705,0.0111085,0.030875,-0.047875,0.11275,-0.00070200005,0.0020905002,-0.00177,1741898072.484499
0.068875,0.075125,0.052125,0.0024414998,-0.0161895,0.01272575,0.03075,-0.04575,0.11125,-0.00062550005,0.0020905002,-0.0016175,1741898072.499073
0.062875,0.09075,0.056625,0.0025634998,-0.017151,0.013290499,0.031,-0.0445,0.110375,-0.00035100002,0.00193775,-0.0013427499,1741898072.513747
0.05225,0.107,0.06225,0.0043944996,-0.01857,0.011795,0.0305,-0.043125,0.110875,-0.0002595,0.00177,-0.00131225,1741898072.52921
0.036125,0.114375,0.071875,0.0067597497,-0.01829525,0.009734999,0.030375,-0.043,0.11125,-0.00024425,0.0017395001,-0.0013275,1741898072.543071
0.036375,0.10425,0.076,0.0100707505,-0.017455999,0.0079345,0.03225,-0.041875,0.109125,-0.00030525,0.00177,-0.0013580001,1741898072.557804
0.04075,0.092,0.081125,0.0160065,-0.015335,0.00717175,0.033125,-0.041375,0.107,-0.0005035,0.0013580001,-0.001648,1741898072.573694
0.053625,0.072125,0.08575,0.017120251,-0.014343251,0.00801075,0.03225,-0.041,0.106125,-0.00074775,0.001007,-0.001892,1741898072.587317
0.05625,0.07175,0.083875,0.01525875,-0.014557,0.010604749,0.031125,-0.041125,0.107375,-0.001007,0.00077825,-0.0020905002,1741898072.601891
0.04475,0.091125,0.08375,0.012847999,-0.015915,0.010879501,0.030625,-0.0405,0.11075,-0.00115975,0.00070200005,-0.0021515,1741898072.616502
0.034125,0.09825,0.0855,0.009430001,-0.01841725,0.008545,0.030875,-0.040625,0.112,-0.00093075,0.00071725,-0.0021819999,1741898072.633447
0.022375,0.093375,0.093375,0.009597749,-0.01876825,0.0072175004,0.0305,-0.04125,0.112625,-0.00057975,0.000824,-0.0026092501,1741898072.6458292
0.02225,0.08825,0.097625,0.0119934995,-0.017929,0.0062407497,0.030125,-0.043125,0.112125,-0.00057975,0.0009765,-0.00289925,1741898072.660741
0.021875,0.093,0.108,0.013992251,-0.017028749,0.006073,0.030875,-0.043625,0.111625,-0.000473,0.00125125,-0.0032347501,1741898072.6752949
0.01775,0.100375,0.111375,0.016723748,-0.015854,0.0054780003,0.030875,-0.04525,0.111375,-0.00035100002,0.0012970001,-0.00334175,1741898072.6935198
0.01175,0.10375,0.1155,0.019470248,-0.013275251,0.00190725,0.030875,-0.04625,0.111,-0.00027475,0.0013275,-0.0034942501,1741898072.704486
0.002875,0.085125,0.1205,0.01956175,-0.011825499,3.0500001e-05,0.031,-0.04725,0.11025,-0.00027475,0.0012665,-0.0035095,1741898072.719091
0.00175,0.07175,0.1195,0.0158845,-0.009948749,-0.000229,0.030875,-0.04675,0.1105,-0.000183,0.0009765,-0.00352475,1741898072.733718
0.006,0.066,0.1205,0.011856,-0.009506251,0.00080875,0.030125,-0.0445,0.110625,-0.00013725001,0.00096125,-0.00354,1741898072.748437
0.01025,0.071125,0.118875,0.0063325,-0.008255,0.0020752498,0.031,-0.042125,0.10925,0.0001525,0.00109875,-0.0034637498,1741898072.7630122
0.015125,0.0815,0.116625,0.00466925,-0.007782,0.001892,0.03425,-0.039625,0.105375,0.00042725,0.00102225,-0.00354,1741898072.7776089
0.01575,0.08225,0.115875,0.0038299998,-0.007309,0.00131225,0.03475,-0.041375,0.103875,0.0007935,0.00045775,-0.0037995,1741898072.796627
0.01425,0.081375,0.11575,0.004593,-0.0061339997,-4.575e-05,0.033625,-0.046625,0.103125,0.00077825,9.15e-05,-0.0037995,1741898072.806707
0.009375,0.0795,0.113,0.0044707498,-0.00567625,-0.00057975,0.033375,-0.0475,0.103625,0.00065625,-0.00029,-0.0037385002,1741898072.82143
0.00975,0.077125,0.114625,0.00587475,-0.0042267498,-0.0015105,0.03475,-0.04825,0.104625,0.00035100002,-0.00108325,-0.00393675,1741898072.836191
0.009625,0.06325,0.10725,0.009491,-0.0029449998,-0.00086975005,0.034625,-0.04925,0.105125,0.0003815,-0.00148,-0.0040587503,1741898072.854024
0.01275,0.061375,0.104125,0.01617425,-0.00131225,0.0015105,0.034125,-0.05,0.105875,0.00033575002,-0.002121,-0.00399775,1741898072.865719
0.022625,0.05775,0.104125,0.017395,-0.001419,0.002411,0.032625,-0.052875,0.108375,0.00013725001,-0.002243,-0.0038299998,1741898072.880516
0.023,0.060875,0.110125,0.018631,-0.00175475,0.00352475,0.032,-0.054,0.11,-0.0001525,-0.0022735,-0.00317375,1741898072.895217
0.01925,0.0635,0.11525,0.02029425,-0.00115975,0.0045012496,0.0295,-0.055375,0.113375,-0.0001525,-0.0023497501,-0.0027465,1741898072.914828
0.0135,0.05675,0.114,0.0208435,-0.00054925,0.0042725,0.028125,-0.056,0.113875,3.0500001e-05,-0.00239575,-0.00163275,1741898072.9244921
0.015,0.052125,0.109875,0.024475,-0.000122000005,0.00437925,0.0265,-0.05675,0.110125,0.000183,-0.00251775,-0.00093075,1741898072.939117
0.02,0.051,0.103625,0.023803748,-0.00074775,0.0043182503,0.026,-0.056125,0.108375,0.00051875,-0.00308225,0.00064075,1741898072.953986
0.02075,0.052125,0.10875,0.02247625,-0.00187675,0.0033570002,0.025125,-0.05325,0.110625,0.00061025,-0.0032347501,0.0014037499,1741898072.968199
0.02175,0.04525,0.108375,0.022827249,-0.0020905002,0.00317375,0.025,-0.05225,0.112875,0.000534,-0.00296025,0.002655,1741898072.982728
0.021875,0.03675,0.104375,0.01994325,-0.0030365,0.0030975002,0.025375,-0.05,0.116875,0.000534,-0.00267025,0.00308225,1741898072.997202
0.021625,0.031875,0.1085,0.014663749,-0.0048217503,0.0036162501,0.0255,-0.049125,0.11775,0.00064075,-0.00187675,0.00354,1741898073.013875
0.01925,0.03225,0.114,0.01431275,-0.0052185003,0.0048217503,0.0275,-0.047,0.1155,0.00065625,-0.00149525,0.00367725,1741898073.02629
0.016125,0.038625,0.116,0.01779175,-0.00517275,0.0065917503,0.028375,-0.04625,0.112875,0.00071725,-0.00125125,0.0037537501,1741898073.040828
0.009375,0.04025,0.115875,0.01838675,-0.0050202496,0.00720225,0.028625,-0.045875,0.109625,0.00108325,-0.0012817499,0.0038605002,1741898073.055709
0.005375,0.0415,0.11875,0.01756275,-0.0042725,0.007309,0.0275,-0.045,0.105875,0.0011445,-0.00157175,0.00393675,1741898073.0740092
0.003375,0.039875,0.11875,0.017608749,-0.003769,0.00741575,0.02675,-0.04375,0.106125,0.00065625,-0.0020905002,0.0039825,1741898073.0847201
0.00475,0.03675,0.11825,0.01811225,-0.00325,0.007431,0.027625,-0.0405,0.10725,0.00030525,-0.0021819999,0.0038757501,1741898073.0993578
0.005125,0.03575,0.11775,0.021179251,-0.0025787498,0.0084379995,0.02825,-0.04,0.108125,3.0500001e-05,-0.0023345,0.003418,1741898073.113888
0.005125,0.031125,0.113875,0.021606501,-0.0027160002,0.0086975,0.02825,-0.04025,0.110125,0.0001525,-0.0024414998,0.0031585,1741898073.1285279
0.005125,0.02575,0.11225,0.01651,-0.003952,0.00889575,0.027875,-0.040125,0.111125,0.000229,-0.0024872501,0.00254825,1741898073.1430311
0.003875,0.020625,0.112625,0.012634249,-0.00469975,0.009231499,0.02775,-0.03925,0.113125,0.00013725001,-0.00231925,0.0021515,1741898073.157592
0.0015,0.022875,0.11225,0.008941749,-0.00531,0.0095672505,0.028125,-0.03925,0.11375,7.625e-05,-0.0018615,0.0013427499,1741898073.173873
-0.001,0.02475,0.110375,0.00378425,-0.0061950004,0.00976575,0.028125,-0.039375,0.116125,0.00019825,-0.0016632499,0.0009155,1741898073.186736
-0.003875,0.0275,0.108625,0.00228875,-0.0064239996,0.009887749,0.0275,-0.039,0.11675,0.00083925005,-0.00109875,-1.5250001e-05,1741898073.2013912
-0.004875,0.028875,0.1085,0.000473,-0.0065612504,0.0100555,0.0275,-0.038625,0.1155,0.0012665,-0.0009155,-0.000534,1741898073.21608
-0.007,0.02725,0.110625,-0.00019825,-0.00671375,0.010086001,0.0265,-0.039625,0.115875,0.0015565,-0.0007935,-0.00108325,1741898073.234945
-0.009625,0.028375,0.114125,-0.00096125,-0.0068665,0.010238751,0.025125,-0.041125,0.11875,0.0011445,-9.15e-05,-0.00201425,1741898073.24547
-0.018625,0.037125,0.118,-0.00067150005,-0.0067445002,0.009842,0.02575,-0.040625,0.12,0.0007325,0.0005035,-0.00239575,1741898073.259978
-0.021125,0.037125,0.117125,0.00065625,-0.0062865,0.008377,0.026625,-0.03975,0.119875,0.00042725,0.0015565,-0.003296,1741898073.276392
-0.020125,0.0295,0.1125,0.0009155,-0.0060272496,0.007965,0.027625,-0.03925,0.11825,0.00048825,0.001953,-0.00378425,1741898073.289462
-0.01825,0.026375,0.110625,0.00027475,-0.0059510004,0.0077667497,0.028,-0.03925,0.117,0.00102225,0.0025634998,-0.0045012496,1741898073.304002
-0.0175,0.02675,0.11175,-0.00352475,-0.00631725,0.007599,0.029125,-0.039375,0.115,0.001419,0.00267025,-0.0048217503,1741898073.318752
-0.01975,0.032625,0.11625,-0.0058135,-0.00643925,0.007309,0.02875,-0.040375,0.114125,0.00190725,0.002777,-0.0056,1741898073.333944
-0.020125,0.0345,0.116875,-0.00912475,-0.006302,0.00631725,0.027,-0.043375,0.1135,0.0017852499,0.00289925,-0.0059815003,1741898073.348011
-0.01875,0.040375,0.120375,-0.009597749,-0.00611875,0.0057677496,0.0265,-0.04375,0.113,0.00105275,0.003418,-0.00662225,1741898073.362628
-0.01725,0.043,0.12175,-0.00839225,-0.005249,0.004593,0.02675,-0.041875,0.112125,0.00062550005,0.00369275,-0.0070342496,1741898073.377126
-0.014625,0.044375,0.122375,-0.0072480002,-0.00466925,0.00413525,0.026875,-0.0415,0.112125,6.1000002e-05,0.00399775,-0.0080415,1741898073.3938901
-0.013625,0.04325,0.12175,-0.005249,-0.003769,0.0036010002,0.0265,-0.04175,0.113125,1.5250001e-05,0.0040435,-0.00842275,1741898073.406233
-0.012,0.041875,0.123,-0.004837,-0.00331125,0.0034942501,0.026375,-0.041625,0.113875,0.000534,0.00419625,-0.0091095,1741898073.420747
-0.011875,0.042375,0.123125,-0.004776,-0.0028535,0.0034942501,0.026375,-0.042375,0.114875,0.0009155,0.0043639997,-0.009521499,1741898073.435371
-0.012,0.04325,0.122,-0.00434875,-0.0023039998,0.0036010002,0.02625,-0.04325,0.114875,0.00125125,0.0045777503,-0.009948749,1741898073.4543371
-0.012125,0.042125,0.11825,-0.0039825,-0.0021057501,0.0034484998,0.026375,-0.043375,0.114625,0.00163275,0.005005,-0.010727,1741898073.464403
-0.01225,0.03925,0.117625,-0.0036162501,-0.0017395001,0.002777,0.026125,-0.044125,0.11425,0.00175475,0.00520325,-0.0111085,1741898073.4790459
-0.01175,0.033125,0.115125,-0.00381475,-0.00160225,0.0024872501,0.02525,-0.045375,0.113875,0.0015105,0.00587475,-0.011901749,1741898073.4939961
-0.011125,0.031625,0.113,-0.0049742498,-0.0014495,0.002411,0.024,-0.04875,0.111625,0.00115975,0.0062712496,-0.01216125,1741898073.508276
-0.0225,0.042875,0.14375,-0.00491325,-0.00065625,0.002243,0.024125,-0.049625,0.11075,0.0001525,0.006836,-0.01251225,1741898073.5229099
-0.0345,0.04875,0.16275,-0.0003815,0.0038757501,-4.575e-05,0.025,-0.049875,0.11075,-0.00024425,0.007019,-0.012680001,1741898073.537514
-0.0295,0.03825,0.1545,0.00181575,0.0054780003,-0.00067150005,0.025125,-0.05,0.11125,-0.00059500005,0.0073242504,-0.012832751,1741898073.5545468
-0.02025,0.034875,0.141625,0.0021515,0.00668325,-0.000534,0.025125,-0.0505,0.111375,-0.00071725,0.0075072497,-0.0128785,1741898073.566758
-0.010625,0.030375,0.12675,-0.00239575,0.0070495,-0.00048825,0.025125,-0.051,0.111,-0.0012665,0.0080567505,-0.01326,1741898073.581546
-0.003375,0.02675,0.11825,-0.0058135,0.0065612504,-0.00036625,0.025,-0.0535,0.109625,-0.0016632499,0.008285499,-0.01339725,1741898073.596396
-0.006625,0.031625,0.1215,-0.0104065,0.0054015,-0.00067150005,0.025,-0.053625,0.10975,-0.00242625,0.008651749,-0.01345825,1741898073.613556
-0.013,0.035375,0.121125,-0.010604749,0.00469975,-0.0012055,0.025375,-0.0535,0.109375,-0.0025025,0.008788999,-0.013412501,1741898073.6257448
-0.012875,0.031625,0.1155,-0.00852975,0.00302125,-0.000885,0.025,-0.055,0.108375,-0.0023497501,0.0087585,-0.013122501,1741898073.6404328
-0.01125,0.034125,0.1095,-0.0071409997,0.0020752498,-0.0001525,0.024375,-0.058,0.1055,-0.0023345,0.008636501,-0.012924249,1741898073.65522
-0.01175,0.03925,0.11125,-0.0054015,0.0005645,0.0004425,0.025,-0.0585,0.1045,-0.00245675,0.008514499,-0.01272575,1741898073.6698399
-0.01375,0.046875,0.117875,-0.0050202496,0.00010675,0.0002135,0.025875,-0.059125,0.104875,-0.0028687501,0.008133001,-0.01222225,1741898073.684469
-0.01425,0.050375,0.119625,-0.00463875,-0.0001525,-0.00019825,0.026,-0.059375,0.105375,-0.0029755002,0.00782775,-0.011856,1741898073.6991098
-0.01375,0.05225,0.1195,-0.00358575,-0.00033575002,-0.00109875,0.026,-0.06,0.105875,-0.0030365,0.00720225,-0.011016751,1741898073.715028
-0.010625,0.0515,0.117375,-0.00292975,-0.00029,-0.0013580001,0.026125,-0.061375,0.105125,-0.0030669998,0.0069274995,-0.010498,1741898073.7283561
-0.00975,0.05225,0.119,-0.00036625,6.1000002e-05,-0.0016632499,0.026375,-0.062,0.1035,-0.0030669998,0.0061645,-0.00930775,1741898073.743158
-0.008375,0.05075,0.12025,0.00109875,0.00035100002,-0.00193775,0.02775,-0.0615,0.100375,-0.0030365,0.00561525,-0.008667,1741898073.75771
-0.00625,0.04625,0.11875,0.0025940002,0.000412,-0.001892,0.027875,-0.0605,0.1005,-0.0031889998,0.00469975,-0.007553,1741898073.77688
-0.00475,0.041375,0.118625,0.002655,0.00035100002,-0.001526,0.027625,-0.059375,0.10225,-0.0033264998,0.0044555003,-0.0070647504,1741898073.787359
-0.006,0.04025,0.11975,0.0022277501,0.00030525,-0.00105275,0.027625,-0.05925,0.103125,-0.0034942501,0.0041504996,-0.006256,1741898073.802191
-0.006875,0.038,0.11925,0.00198375,0.000229,-0.0008545,0.027875,-0.058875,0.103625,-0.0034790002,0.0040587503,-0.00596625,1741898073.81673
-0.0055,0.03775,0.117625,0.00177,9.15e-05,-0.0005645,0.028125,-0.05875,0.103,-0.00325,0.003952,-0.0055085,1741898073.833687
-0.00425,0.038875,0.116875,0.00115975,-9.15e-05,-1.5250001e-05,0.029125,-0.05875,0.10175,-0.0030365,0.0037995,-0.0053252503,1741898073.8459442
-0.004625,0.041625,0.119,0.000946,-9.15e-05,0.00010675,0.029625,-0.05825,0.102125,-0.0026245,0.003418,-0.00511175,1741898073.860801
-0.006,0.04275,0.12,0.00039675,-0.00019825,0.00027475,0.03,-0.05725,0.1025,-0.00239575,0.0032655,-0.0050355,1741898073.8753889
-0.008625,0.04475,0.11925,7.625e-05,-0.00024425,0.0003205,0.0305,-0.057,0.102,-0.0017852499,0.0028687501,-0.0048217503,1741898073.893793
-0.0095,0.04525,0.11875,-0.0003205,-0.0001525,0.00016775,0.03075,-0.0575,0.101875,-0.00148,0.0026245,-0.00466925,1741898073.904742
-0.00975,0.04425,0.117125,-0.00042725,1.5250001e-05,1.5250001e-05,0.030875,-0.0575,0.1025,-0.00125125,0.002411,-0.0045012496,1741898073.919332
-0.00925,0.044,0.11575,-0.00033575002,0.00030525,-0.0002135,0.030875,-0.05775,0.104125,-0.0009765,0.00213625,-0.0041044997,1741898073.934129
-0.00825,0.045125,0.11525,4.575e-05,0.00036625,-0.00036625,0.030625,-0.057875,0.105125,-0.00090025004,0.00201425,-0.00384525,1741898073.952553
-0.0085,0.044,0.116625,0.00054925,0.00045775,-0.000534,0.0305,-0.05725,0.10575,-0.00074775,0.001831,-0.0032347501,1741898073.9634318
-0.009,0.04175,0.117875,0.000946,0.0007325,-0.00067150005,0.031125,-0.056625,0.10575,-0.00064075,0.0017395001,-0.00289925,1741898073.978256
-0.0095,0.04025,0.11875,0.00070200005,0.0007935,-0.00064075,0.031,-0.057,0.10525,-0.00048825,0.00143425,-0.00216675,1741898073.99375
-0.009375,0.041375,0.119,-0.0001525,0.0007935,-0.00080875,0.03075,-0.056875,0.105,-0.000534,0.0012207499,-0.00177,1741898074.007655
-0.007875,0.042875,0.118625,-0.00057975,0.00077825,-0.0010375,0.031,-0.0555,0.10625,-0.0007935,0.00093075,-0.00108325,1741898074.02223
-0.007,0.04275,0.118125,-0.001114,0.00062550005,-0.0015105,0.03125,-0.053125,0.109,-0.0008545,0.0008545,-0.0008545,1741898074.036839
-0.007375,0.041375,0.11875,-0.0012055,0.00051875,-0.0016175,0.031375,-0.05275,0.109375,-0.00086975005,0.00083925005,-0.000473,1741898074.053483
-0.00825,0.040875,0.118625,-0.0014037499,0.0004425,-0.0015565,0.032,-0.05125,0.109125,-0.0009155,0.000885,-0.0003815,1741898074.0661278
-0.009,0.042125,0.118125,-0.0013580001,0.00039675,-0.00148,0.032125,-0.05075,0.109125,-0.00102225,0.0009765,-0.0003205,1741898074.080756
-0.008625,0.042125,0.1185,-0.001175,0.0003205,-0.00146475,0.0325,-0.0495,0.108875,-0.00108325,0.0010375,-0.00033575002,1741898074.095426
-0.00675,0.041625,0.119875,-0.001007,0.000229,-0.0013275,0.032875,-0.04875,0.109125,-0.0013427499,0.0012055,-0.00057975,1741898074.1135201
-0.007,0.04275,0.120125,-0.00109875,0.0002595,-0.0012055,0.032375,-0.048875,0.1105,-0.00157175,0.0013427499,-0.00077825,1741898074.124841
-0.008,0.044,0.120375,-0.00131225,0.00048825,-0.00115975,0.03225,-0.04875,0.1105,-0.0023345,0.0018005001,-0.00115975,1741898074.13976
-0.011625,0.043625,0.122375,-0.001419,0.00061025,-0.0013275,0.033125,-0.0485,0.109875,-0.0027465,0.0020295,-0.0013427499,1741898074.154419
-0.013,0.042375,0.122875,-0.00320425,0.00112925,-0.0016632499,0.0335,-0.0485,0.109875,-0.0031127501,0.0022125002,-0.00148,1741898074.173144
-0.01175,0.042,0.12375,-0.0045625,0.00149525,-0.001892,0.0335,-0.048375,0.109125,-0.00358575,0.00245675,-0.001648,1741898074.183827
-0.0125,0.043875,0.12925,-0.0053252503,0.00238025,-0.0023039998,0.03325,-0.048875,0.108375,-0.0037079998,0.00254825,-0.0016785001,1741898074.198488
-0.016875,0.045375,0.12875,-0.0049590003,0.0030975002,-0.0023039998,0.03275,-0.049625,0.108,-0.004013,0.0025634998,-0.0015565,1741898074.213957
-0.015125,0.043125,0.117375,-0.0058135,0.00413525,-0.00119025,0.031875,-0.051125,0.107625,-0.00428775,0.00254825,-0.0014037499,1741898074.2278342
-0.0195,0.053,0.115,-0.00715625,0.0045012496,-0.00070200005,0.031875,-0.050875,0.10725,-0.0049590003,0.00245675,-0.001068,1741898074.24244
-0.02925,0.066625,0.12125,-0.0089569995,0.00485225,-0.00074775,0.03175,-0.0505,0.107375,-0.0052185003,0.002365,-0.00090025004,1741898074.2571268
-0.03525,0.076375,0.126,-0.009094249,0.0057220003,-0.004013,0.03125,-0.051125,0.107375,-0.00541675,0.00213625,-0.0004425,1741898074.271847
-0.02225,0.0595,0.125125,-0.0069274995,0.00640875,-0.005783,0.030625,-0.0535,0.106625,-0.0054015,0.001953,-9.15e-05,1741898074.2865238
-0.0135,0.055875,0.12275,-0.0042572496,0.0075225,-0.00720225,0.0305,-0.054375,0.10575,-0.005249,0.0012665,0.0007935,1741898074.301312
-0.00425,0.059875,0.12175,-0.00411975,0.00794975,-0.0079955,0.031375,-0.052125,0.106125,-0.00517275,0.000824,0.0012055,1741898074.3158479
-0.003875,0.06425,0.124125,-0.0038299998,0.0086975,-0.0102845,0.031875,-0.050125,0.10725,-0.00491325,0.00010675,0.0016632499,1741898074.33357
-0.004625,0.06675,0.127875,-0.0032347501,0.009155249,-0.0116425,0.032,-0.047625,0.109,-0.0047302498,-9.15e-05,0.00181575,1741898074.345098
-0.00375,0.064,0.128625,-0.0022125002,0.0102845,-0.01368725,0.03225,-0.04675,0.109375,-0.0042725,-0.00039675,0.0020752498,1741898074.359883
-0.002,0.05875,0.128125,-0.00213625,0.01086425,-0.014206001,0.032625,-0.045125,0.1115,-0.0039825,-0.00048825,0.0021515,1741898074.3745081
-0.000625,0.056125,0.12525,-0.0029449998,0.012267999,-0.01460275,0.032625,-0.04425,0.112875,-0.0034637498,-0.00035100002,0.0020599999,1741898074.390142
0.004375,0.055625,0.119625,-0.0036010002,0.012985251,-0.01460275,0.033625,-0.041875,0.1155,-0.0032655,-0.000122000005,0.00190725,1741898074.404149
0.00675,0.059,0.1195,-0.0041044997,0.01367175,-0.01469425,0.033875,-0.04125,0.117,-0.0031127501,0.00068675,0.00154125,1741898074.418752
0.008375,0.06175,0.1205,-0.00369275,0.015029999,-0.01564025,0.0345,-0.041,0.119125,-0.0031127501,0.001175,0.0013427499,1741898074.4335868
0.010125,0.0605,0.123125,-0.003006,0.0157775,-0.01617425,0.0345,-0.041375,0.1195,-0.0031127501,0.0017242499,0.0011445,1741898074.447885
0.0115,0.05825,0.120875,-0.002243,0.01705925,-0.01652525,0.03475,-0.041875,0.11875,-0.0032195,0.0029145,0.00083925005,1741898074.46241
0.016,0.052625,0.113125,-0.00204475,0.017334,-0.0163575,0.035625,-0.043,0.117125,-0.00331125,0.003418,0.000763,1741898074.476949
0.017875,0.0505,0.10975,-0.00276175,0.017578252,-0.01573175,0.0355,-0.04375,0.117375,-0.0035704998,0.004242,0.00083925005,1741898074.4928908
0.022875,0.050625,0.106875,-0.00378425,0.0175935,-0.0155030005,0.035375,-0.04425,0.11925,-0.003769,0.0047302498,0.0009765,1741898074.506026
0.0265,0.05225,0.106625,-0.0049590003,0.01747125,-0.015442001,0.036,-0.04375,0.119375,-0.0040435,0.0058135,0.0013580001,1741898074.520739
0.031,0.05275,0.105125,-0.006775,0.016723748,-0.01589975,0.039,-0.041375,0.116625,-0.003952,0.0062407497,0.0015565,1741898074.535373
0.040625,0.048125,0.101,-0.00737,0.016128499,-0.01617425,0.04075,-0.0405,0.11475,-0.00325,0.00665275,0.0019685,1741898074.5532742
0.043,0.046875,0.099625,-0.0074920002,0.0148925,-0.015976,0.043625,-0.03975,0.10975,-0.0027465,0.006668,0.0021515,1741898074.564647
0.042125,0.045875,0.094875,-0.00697325,0.014358499,-0.0156555,0.044875,-0.039625,0.107,-0.00184625,0.0062407497,0.002533,1741898074.579187
0.04275,0.0425,0.09175,-0.00531,0.013290499,-0.01460275,0.044625,-0.041125,0.106375,-0.00149525,0.0059205,0.00276175,1741898074.5937338
0.04475,0.045125,0.0935,-0.00440975,0.012909001,-0.013916001,0.044125,-0.04175,0.1075,-0.00109875,0.00561525,0.00325,1741898074.608336
0.046875,0.047625,0.095,-0.00157175,0.012847999,-0.013321,0.044875,-0.04075,0.11,-0.001007,0.00561525,0.0033875,1741898074.6228511
0.056375,0.041375,0.093125,0.000122000005,0.012802,-0.013046251,0.045,-0.039875,0.110125,-0.0009155,0.00570675,0.00343325,1741898074.637383
0.059375,0.038,0.0915,0.00131225,0.012496999,-0.012313751,0.0455,-0.039,0.109,-0.00061025,0.00590525,0.003418,1741898074.6531641
0.06,0.035,0.089625,0.0015105,0.01104725,-0.010024999,0.04575,-0.038375,0.106375,-0.00036625,0.0059510004,0.00340275,1741898074.666423
0.05675,0.033375,0.089125,0.00080875,0.010101249,-0.00883475,0.046,-0.038125,0.105375,0.0002135,0.0059815003,0.0033264998,1741898074.680943
0.055875,0.0345,0.08925,-0.000824,0.008285499,-0.0073395,0.048625,-0.036875,0.10325,0.00039675,0.0059510004,0.00331125,1741898074.695591
0.061,0.033625,0.08825,-0.0013580001,0.00744625,-0.006836,0.050375,-0.035875,0.1025,0.00090025004,0.005539,0.0032347501,1741898074.71454
0.06325,0.035375,0.0885,-0.0017395001,0.00621025,-0.0052795,0.051625,-0.0355,0.1025,0.0011445,0.0053252503,0.0032195,1741898074.724571
0.065625,0.03625,0.086625,-0.001419,0.0057677496,-0.0044555003,0.052,-0.03575,0.102,0.001236,0.0049590003,0.003296,1741898074.739033
0.065875,0.034875,0.086125,-0.0010375,0.00531,-0.0034637498,0.053875,-0.03575,0.101125,0.0012055,0.00469975,0.00334175,1741898074.7562518
0.065,0.0355,0.08725,-0.00105275,0.00440975,-0.00109875,0.05425,-0.03575,0.102,0.0011445,0.00413525,0.00340275,1741898074.767991
0.064,0.039375,0.089,-0.0012817499,0.0041044997,-0.00013725001,0.056625,-0.034125,0.101125,0.001175,0.00393675,0.0034484998,1741898074.7824378
0.065,0.041875,0.0895,-0.00149525,0.0037537501,0.0012970001,0.059375,-0.0325,0.098125,0.0012970001,0.003662,0.0034484998,1741898074.7969768
0.069125,0.04725,0.088625,-0.0013885,0.0036315,0.0017242499,0.061625,-0.031125,0.094,0.0016632499,0.0024414998,0.0031127501,1741898074.813441
0.07025,0.048875,0.0895,-0.001236,0.00334175,0.00245675,0.0615,-0.030375,0.091375,0.00184625,0.0015565,0.0028687501,1741898074.825968
0.06875,0.0515,0.091875,-0.00163275,0.0033264998,0.002884,0.06,-0.030125,0.09425,0.0025634998,0.0002135,0.002655,1741898074.840478
0.067875,0.052125,0.091375,-0.002655,0.0033722501,0.0037995,0.059625,-0.03025,0.09975,0.0030669998,-0.000122000005,0.0025787498,1741898074.854923
0.06625,0.05575,0.09125,-0.00305175,0.0035095,0.00428775,0.05875,-0.032875,0.102125,0.00340275,-0.00062550005,0.0020905002,1741898074.873399
0.066,0.05775,0.092125,-0.0033570002,0.0037537501,0.0046234997,0.05325,-0.039625,0.106,0.0028074998,-0.00064075,0.0018615,1741898074.884084
0.066125,0.058875,0.094125,-0.0038757501,0.00453175,0.0047302498,0.0515,-0.039875,0.107,0.00109875,0.000122000005,0.00177,1741898074.898667
0.065375,0.060375,0.099375,-0.0039825,0.0050202496,0.004547,0.0525,-0.035625,0.10925,0.0007935,0.00064075,0.00175475,1741898074.913962
0.064,0.060875,0.1015,-0.00328075,0.0061950004,0.0041504996,0.052875,-0.035125,0.110375,0.00163275,0.0013427499,0.001648,1741898074.92764
0.062375,0.0615,0.10125,-0.0025787498,0.0068969997,0.00390625,0.053375,-0.037125,0.105875,0.0023039998,0.00143425,0.0015565,1741898074.942088
0.064,0.05875,0.098875,-0.001526,0.00798025,0.0034637498,0.0535,-0.038625,0.102375,0.00289925,0.0012207499,0.001419,1741898074.956712
0.06875,0.053125,0.0925,-0.001648,0.008133001,0.0034942501,0.05225,-0.039875,0.10225,0.00396725,0.0004425,0.00143425,1741898074.973867
0.070625,0.051875,0.089875,-0.0021515,0.00801075,0.003662,0.049375,-0.039875,0.107125,0.00434875,0.00048825,0.0016175,1741898074.985792
0.07125,0.0525,0.088375,-0.00367725,0.0072175004,0.003769,0.049625,-0.039375,0.10925,0.00444025,0.00125125,0.0019225,1741898075.000232
0.072125,0.055,0.08925,-0.00444025,0.0067445002,0.003418,0.05125,-0.039625,0.106375,0.0042267498,0.001526,0.00190725,1741898075.014771
0.0725,0.05725,0.09175,-0.0048217503,0.0059510004,0.0023039998,0.0515,-0.03975,0.1025,0.0037385002,0.0012817499,0.001709,1741898075.030047
0.07275,0.060875,0.093625,-0.0042725,0.00587475,0.00169375,0.049375,-0.039375,0.101125,0.00369275,0.00096125,0.00169375,1741898075.043773
0.072875,0.062,0.091875,-0.0020905002,0.00585925,0.000824,0.048375,-0.038875,0.10225,0.00408925,0.000763,0.001953,1741898075.058243
0.0715,0.0625,0.087875,-0.00080875,0.0058287503,0.00045775,0.0505,-0.03675,0.099375,0.00437925,0.00064075,0.0020752498,1741898075.073856
0.070625,0.061,0.087375,0.00019825,0.005844,4.575e-05,0.052125,-0.0355,0.095,0.00531,-0.00024425,0.0021057501,1741898075.087371
0.07,0.059125,0.088625,0.00054925,0.00567625,-0.0007325,0.047875,-0.04,0.09775,0.00587475,-0.00067150005,0.0021515,1741898075.101863
0.0705,0.054875,0.089125,0.00013725001,0.0055847503,-0.00093075,0.0425,-0.045875,0.108,0.0061950004,-0.0005645,0.00245675,1741898075.116357
0.071375,0.05375,0.086875,-0.00119025,0.0051269997,-0.00054925,0.0385,-0.049875,0.11975,0.0071409997,0.00531,0.00364675,1741898075.1327958
0.073,0.052375,0.082375,-0.001831,0.0047455,-0.000122000005,0.04575,-0.0485,0.112,0.0079345,0.01098625,0.00372325,1741898075.1453838
0.073875,0.0505,0.082125,-0.001953,0.00428775,0.0007325,0.05275,-0.045875,0.101125,0.0080415,0.01289375,0.00228875,1741898075.159783
0.073375,0.05025,0.08075,-0.00149525,0.0043335,0.00109875,0.058375,-0.0415,0.091125,0.008545,0.010147001,0.001709,1741898075.1743412
0.07325,0.04975,0.076625,-0.0008545,0.004303,0.0013885,0.05625,-0.042375,0.0885,0.012375,0.00469975,0.0013580001,1741898075.188874
0.073375,0.048375,0.073125,0.0007325,0.0034637498,0.0026245,0.052125,-0.047125,0.090375,0.013626001,0.00289925,0.0011445,1741898075.203236
0.07475,0.044625,0.071875,0.00149525,0.0029907501,0.00352475,0.051875,-0.0485,0.092125,0.0111085,0.0012055,0.000946,1741898075.2177348
0.075875,0.042,0.072125,0.0025634998,0.00228875,0.00514225,0.057,-0.049375,0.093875,0.008514499,0.00045775,0.00112925,1741898075.237731
0.075625,0.041,0.075875,0.0024414998,0.001831,0.00614925,0.060625,-0.0495,0.0935,0.0061645,-0.00036625,0.00148,1741898075.246759
0.073875,0.04575,0.07975,0.0022735,0.0012970001,0.008194,0.0635,-0.05125,0.0905,0.0034484998,-0.00213625,0.0024414998,1741898075.2613308
0.0705,0.052125,0.0845,0.00254825,0.00119025,0.008865249,0.062375,-0.052625,0.090125,0.00289925,-0.0032655,0.0028535,1741898075.2787468
0.068875,0.054625,0.08575,0.00302125,0.001175,0.009506251,0.061375,-0.053875,0.090625,0.00267025,-0.0056609996,0.0033722501,1741898075.294482
0.06775,0.0565,0.0855,0.0036010002,0.0012207499,0.010391249,0.0605,-0.0565,0.092375,0.002777,-0.00665275,0.0037079998,1741898075.304862
0.066625,0.0585,0.083375,0.0033570002,0.00115975,0.010727,0.06,-0.057625,0.0925,0.0032347501,-0.00842275,0.0049895,1741898075.319478
0.0655,0.059875,0.083625,0.00279225,0.0012970001,0.011031999,0.058375,-0.06,0.08975,0.00364675,-0.009369001,0.00579825,1741898075.334543
0.0645,0.059375,0.086875,0.0025025,0.00146475,0.01092525,0.057625,-0.0615,0.088375,0.005066,-0.01142875,0.0075835,1741898075.348779
0.064875,0.06,0.08875,0.00154125,0.00190725,0.01121525,0.05375,-0.065625,0.086625,0.00590525,-0.012436,0.00862125,1741898075.3634088
0.06725,0.06575,0.087625,0.001114,0.00216675,0.0114744995,0.052375,-0.0675,0.085875,0.0071409997,-0.014510999,0.01127625,1741898075.377884
0.068875,0.067375,0.08475,0.0007325,0.00238025,0.011627249,0.051125,-0.06825,0.084,0.0070495,-0.0157775,0.01289375,1741898075.395021
0.07025,0.06825,0.081875,4.575e-05,0.0025025,0.011917,0.05025,-0.06775,0.083375,0.0056304997,-0.018859752,0.016296498,1741898075.406893
0.069,0.073125,0.082125,-1.5250001e-05,0.00251775,0.011825499,0.05075,-0.057625,0.08575,0.00413525,-0.0205535,0.01776125,1741898075.421509
0.067625,0.072875,0.084375,0.000473,0.00305175,0.010681249,0.05225,-0.0485,0.08975,0.00231925,-0.022354,0.018707251,1741898075.436078
0.066125,0.07125,0.086625,0.0007935,0.00340275,0.01019275,0.052625,-0.040875,0.094,-0.00039675,-0.02522275,0.01838675,1741898075.45271
0.066125,0.07325,0.08625,0.00112925,0.0037385002,0.009887749,0.049125,-0.03575,0.09925,-0.00051875,-0.02619925,0.0177765,1741898075.465436
0.066375,0.076,0.0855,0.00187675,0.00440975,0.009262,0.0465,-0.03575,0.101625,0.0003205,-0.0252075,0.017501751,1741898075.48003
0.065625,0.0815,0.085,0.0020752498,0.0046234997,0.008773751,0.04125,-0.037125,0.108625,0.00036625,-0.022918751,0.016922,1741898075.494703
0.065,0.081875,0.084625,0.002533,0.0049895,0.0074615004,0.038625,-0.037625,0.114875,0.00019825,-0.018753,0.01513675,1741898075.51025
0.064625,0.073125,0.080375,0.0025940002,0.00520325,0.0067902496,0.036375,-0.035125,0.1245,0.00016775,-0.01747125,0.014343251,1741898075.524055
0.064625,0.06925,0.077625,0.00160225,0.0050965,0.0059967497,0.03675,-0.032375,0.125625,0.00029,-0.0153807495,0.012634249,1741898075.53877
0.063125,0.070875,0.077125,0.00115975,0.0048979996,0.0058287503,0.0365,-0.031375,0.12425,0.00039675,-0.01446525,0.0116425,1741898075.5537002
0.062375,0.07275,0.078375,0.001175,0.004776,0.00564575,0.03525,-0.032625,0.12325,0.00064075,-0.01324475,0.00982675,1741898075.56787
0.0625,0.07325,0.078875,0.00201425,0.0045165,0.0053252503,0.03125,-0.033875,0.121875,0.000824,-0.012802,0.009201,1741898075.582352
0.064,0.073,0.078625,0.002243,0.00428775,0.00517275,0.029,-0.032625,0.1225,0.0009765,-0.011627249,0.00830075,1741898075.5968719
0.063875,0.07225,0.07875,0.00148,0.0035704998,0.0048065,0.02675,-0.0275,0.1235,0.001007,-0.010879501,0.007782,1741898075.613089
0.062375,0.06975,0.081375,0.00061025,0.0032655,0.00469975,0.0265,-0.02675,0.121625,0.00102225,-0.010086001,0.00717175,1741898075.6258528
0.06175,0.068,0.083125,-0.000946,0.0031889998,0.004837,0.02625,-0.0275,0.119125,0.00099175,-0.0087585,0.006012,1741898075.640408
0.061,0.06575,0.0855,-0.00143425,0.00334175,0.0051574996,0.025,-0.03075,0.1185,0.0009155,-0.008285499,0.0054932497,1741898075.654874
0.0605,0.06525,0.086,-0.0016632499,0.0034942501,0.0055847503,0.024125,-0.03225,0.1195,0.0005035,-0.0070037497,0.0046234997,1741898075.6694028
0.060125,0.065625,0.086375,-0.00148,0.00378425,0.0068207504,0.02575,-0.03325,0.119,0.0001525,-0.006302,0.0042267498,1741898075.6838589
0.061625,0.06875,0.0865,-0.0013275,0.004013,0.00737,0.026875,-0.033125,0.118375,-0.000412,-0.00555425,0.0033722501,1741898075.698441
0.0625,0.06975,0.085125,-0.00067150005,0.0047607496,0.00830075,0.0275,-0.034125,0.11675,-0.000534,-0.0054932497,0.0029755002,1741898075.71603
0.062375,0.069375,0.082875,-0.00045775,0.0050355,0.0086975,0.02725,-0.035125,0.11475,-0.00080875,-0.00585925,0.002411,1741898075.72766
0.0615,0.070125,0.083125,-0.0003205,0.0052795,0.0091705,0.025,-0.0375,0.112,-0.001007,-0.0062255003,0.0023039998,1741898075.742516
0.06025,0.073,0.08175,-0.000183,0.005249,0.009292499,0.023375,-0.038125,0.111875,-0.00157175,-0.0068055,0.002411,1741898075.757189
0.060375,0.07425,0.0795,0.0,0.00517275,0.009430001,0.02275,-0.037875,0.112,-0.00184625,-0.0069580004,0.0024872501,1741898075.773358
0.060625,0.075625,0.0775,0.00061025,0.0051269997,0.00962825,0.023125,-0.03775,0.11325,-0.00242625,-0.0072175004,0.0024872501,1741898075.7864552
0.0615,0.076875,0.07525,0.00119025,0.0052185003,0.009506251,0.025,-0.036125,0.11475,-0.00270075,-0.0072937496,0.002411,1741898075.801087
0.061875,0.07675,0.075,0.001709,0.00517275,0.00935375,0.026375,-0.034625,0.11325,-0.00289925,-0.007309,0.0022277501,1741898075.815825
0.060625,0.07825,0.075125,0.00181575,0.0050965,0.009491,0.026625,-0.032,0.111125,-0.00296025,-0.0075682504,0.00169375,1741898075.834643
0.05925,0.080375,0.076125,0.0020599999,0.005066,0.009552,0.025,-0.03225,0.112375,-0.0028535,-0.00773625,0.00146475,1741898075.845112
0.058,0.0815,0.076875,0.00308225,0.00517275,0.0090637505,0.0225,-0.033375,0.115125,-0.00292975,-0.0074004997,0.00137325,1741898075.8597918
0.05825,0.07975,0.075375,0.0034790002,0.00520325,0.008773751,0.02025,-0.036125,0.1205,-0.0029907501,-0.0068055,0.0013427499,1741898075.874572
0.05875,0.079625,0.0745,0.00340275,0.0047912505,0.0087585,0.0205,-0.03725,0.12225,-0.00263975,-0.00567625,0.00112925,1741898075.8934112
0.0585,0.082375,0.074,0.003128,0.0043639997,0.0088195,0.0215,-0.0375,0.123375,-0.00242625,-0.0052947504,0.000885,1741898075.903778
0.057875,0.085,0.074125,0.00242625,0.0035095,0.00833125,0.022125,-0.0365,0.122875,-0.0020599999,-0.0047455,0.00027475,1741898075.918665
0.057125,0.087,0.0725,0.0021819999,0.0030365,0.007843,0.022125,-0.033875,0.1215,-0.00184625,-0.004547,-1.5250001e-05,1741898075.9340641
0.057,0.0865,0.071625,0.0021972498,0.0024872501,0.00741575,0.021125,-0.03275,0.121,-0.001587,-0.004074,-0.000534,1741898075.9481971
0.056375,0.087,0.07125,0.002472,0.0014037499,0.00662225,0.02025,-0.029625,0.11975,-0.001587,-0.0037079998,-0.00086975005,1741898075.962877
0.05575,0.087625,0.071125,0.0025787498,0.000885,0.00614925,0.01975,-0.02875,0.119875,-0.0013885,-0.0028687501,-0.00160225,1741898075.977552
0.0565,0.0865,0.071125,0.0027160002,6.1000002e-05,0.0054475004,0.019375,-0.0285,0.120625,-0.00102225,-0.00242625,-0.0019225,1741898075.993748
0.05675,0.085625,0.071875,0.0025787498,-0.00024425,0.0052795,0.01925,-0.028875,0.12125,-0.000122000005,-0.0016175,-0.00270075,1741898076.0069919
0.05575,0.08675,0.07275,0.0021057501,-0.0007325,0.00491325,0.018875,-0.029375,0.12275,0.00013725001,-0.0012055,-0.003128,1741898076.021693
0.053375,0.0875,0.074625,0.001953,-0.000885,0.00460825,0.019625,-0.0285,0.1225,0.00027475,-0.0003815,-0.00416575,1741898076.03647
0.0525,0.087,0.0755,0.00190725,-0.0009155,0.0042725,0.019125,-0.028,0.122,0.00033575002,-7.625e-05,-0.0047302498,1741898076.0527601
0.052625,0.08525,0.075625,0.0020905002,-0.00083925005,0.0037079998,0.01825,-0.028875,0.121625,0.00048825,0.0004425,-0.00561525,1741898076.0657768
0.05425,0.083125,0.075,0.0019989999,-0.0009155,0.00367725,0.017625,-0.03,0.119875,0.0005035,0.00068675,-0.00593575,1741898076.080426
0.054625,0.084,0.07575,0.0012970001,-0.001175,0.0037537501,0.018,-0.030625,0.119125,0.0005035,0.0008545,-0.00621025,1741898076.095297
0.053625,0.085875,0.07825,0.0008545,-0.0012207499,0.0036315,0.017375,-0.03175,0.119875,0.000412,0.00093075,-0.0066374997,1741898076.1132858
0.0525,0.086125,0.07925,0.0002595,-0.0012055,0.0031889998,0.0165,-0.03225,0.121,0.0003205,0.00102225,-0.0068207504,1741898076.1244428
0.051125,0.086375,0.079125,6.1000002e-05,-0.001236,0.00292975,0.01625,-0.03225,0.1215,7.625e-05,0.00154125,-0.00708,1741898076.138956
0.050625,0.08625,0.078625,-0.00019825,-0.00125125,0.00263975,0.015875,-0.032,0.121875,-7.625e-05,0.00181575,-0.00723275,1741898076.1541271
0.050125,0.08525,0.07875,-0.00108325,-0.00105275,0.00190725,0.0155,-0.032375,0.121375,-0.00019825,0.002472,-0.0075225,1741898076.1684911
0.048875,0.083125,0.083,-0.001526,-0.000763,0.00148,0.015875,-0.03425,0.118625,-0.00019825,0.0027160002,-0.0076295,1741898076.1832561
0.047625,0.0835,0.086125,-0.00154125,0.0002595,0.00061025,0.016,-0.0355,0.118,-0.0003815,0.00283825,-0.0077972496,1741898076.197808
0.046375,0.082125,0.089,-0.0007935,0.000946,0.0002135,0.01575,-0.036375,0.119125,-0.0005645,0.002884,-0.00785825,1741898076.2165399
0.046625,0.081125,0.09075,0.0021057501,0.0024414998,9.15e-05,0.015625,-0.035875,0.119875,-0.0009155,0.0032195,-0.00794975,1741898076.227255
0.04925,0.0835,0.088875,0.0032347501,0.0028229998,-3.0500001e-05,0.01625,-0.034125,0.120875,-0.0009765,0.0034790002,-0.0080415,1741898076.2420611
0.05025,0.083875,0.086875,0.00396725,0.0025787498,-0.00016775,0.016375,-0.03375,0.121125,-0.0007935,0.00402825,-0.00823975,1741898076.2568378
0.050375,0.08375,0.086125,0.00428775,0.00225825,-0.00016775,0.016125,-0.034375,0.119,-0.00057975,0.0042725,-0.008285499,1741898076.273634
0.050375,0.084125,0.086625,0.0036162501,0.00231925,-0.00013725001,0.01625,-0.034625,0.117375,-0.000183,0.0044707498,-0.008407501,1741898076.286144
0.050375,0.08525,0.08675,0.0016175,0.00228875,-0.0004425,0.016125,-0.035625,0.11575,-0.000122000005,0.0044707498,-0.008499251,1741898076.3008041
0.05125,0.0875,0.086125,0.00077825,0.00228875,-0.000763,0.016,-0.035875,0.1165,-0.00033575002,0.00463875,-0.008636501,1741898076.315458
0.05175,0.089,0.08525,0.0002595,0.00228875,-0.00108325,0.01625,-0.03575,0.11775,-0.00048825,0.0048217503,-0.008651749,1741898076.3335638
0.05325,0.089625,0.083375,0.00035100002,0.00242625,-0.0018005001,0.016625,-0.036125,0.117,-0.00061025,0.0049590003,-0.00868225,1741898076.344841
0.053875,0.0895,0.08225,0.00048825,0.00270075,-0.0022125002,0.01725,-0.037875,0.114125,-0.00071725,0.0048674997,-0.008712751,1741898076.3594801
0.0545,0.089125,0.081125,0.00010675,0.00352475,-0.00302125,0.016875,-0.0385,0.113375,-0.00068675,0.0046234997,-0.00868225,1741898076.374061
0.055875,0.088375,0.079625,-0.00048825,0.004074,-0.0034484998,0.016875,-0.038125,0.11325,-0.00059500005,0.00419625,-0.00845325,1741898076.389382
0.0565,0.088875,0.077875,-0.00181575,0.0050202496,-0.0042725,0.017,-0.036875,0.11575,-0.000534,0.00411975,-0.00833125,1741898076.4034328
0.057875,0.088,0.07575,-0.0021972498,0.00514225,-0.00460825,0.016625,-0.03725,0.1175,-0.00019825,0.00440975,-0.0081025,1741898076.41814
0.059,0.086625,0.07625,-0.0016785001,0.0050965,-0.00520325,0.017375,-0.039,0.117875,4.575e-05,0.00463875,-0.0079955,1741898076.433697
0.061375,0.084625,0.077375,-0.0010375,0.0050812503,-0.0054932497,0.01825,-0.03975,0.1165,0.000412,0.0047150003,-0.0078735,1741898076.447466
0.06175,0.0845,0.07675,-0.00065625,0.00511175,-0.0057372497,0.01875,-0.040875,0.114625,0.00035100002,0.0045625,-0.00782775,1741898076.4620311
0.06175,0.0845,0.07575,-0.00067150005,0.0052642496,-0.0061035,0.018625,-0.04075,0.115,0.000122000005,0.00437925,-0.00764475,1741898076.476733
0.062375,0.083,0.074625,-0.00054925,0.0053709997,-0.0062865,0.018,-0.04225,0.117,0.00016775,0.00434875,-0.00741575,1741898076.4938502
0.062625,0.083125,0.0735,-7.625e-05,0.00570675,-0.0065917503,0.01825,-0.0425,0.11775,0.000229,0.00460825,-0.0069885002,1741898076.5059001
0.062375,0.081375,0.070375,-9.15e-05,0.0056304997,-0.006668,0.019625,-0.04175,0.1165,0.0002135,0.0047455,-0.0068665,1741898076.520333
0.0625,0.07975,0.070125,-0.00090025004,0.00517275,-0.00668325,0.01975,-0.04175,0.115625,0.00039675,0.0047150003,-0.0065307496,1741898076.534886
0.064625,0.07825,0.07225,-0.00131225,0.00491325,-0.0067902496,0.0195,-0.042375,0.116625,0.0005035,0.00466925,-0.0062407497,1741898076.552693
0.065375,0.077875,0.07275,-0.001587,0.0047150003,-0.00691225,0.01975,-0.043,0.116875,0.00064075,0.00469975,-0.0059510004,1741898076.56386
0.066,0.077625,0.072875,-0.0017395001,0.00444025,-0.00691225,0.02025,-0.043625,0.116375,0.00070200005,0.004837,-0.00541675,1741898076.578378
0.066625,0.076875,0.0715,-0.0015565,0.004303,-0.006836,0.02175,-0.043,0.1155,0.00054925,0.0049285004,-0.0051880004,1741898076.593415
0.068,0.075625,0.06925,-0.00086975005,0.00384525,-0.0065002497,0.022625,-0.042625,0.114625,0.00042725,0.0049590003,-0.0046845004,1741898076.607386
0.071,0.075625,0.06825,-0.00074775,0.00364675,-0.00614925,0.022875,-0.044875,0.110125,0.000534,0.0047150003,-0.00437925,1741898076.6219678
0.071125,0.076125,0.06925,-0.0018615,0.00381475,-0.0054475004,0.022375,-0.046125,0.10825,0.00086975005,0.00369275,-0.0036162501,1741898076.636791
0.070875,0.07425,0.0715,-0.0028229998,0.004013,-0.005066,0.02125,-0.047,0.108,0.00090025004,0.0032195,-0.00325,1741898076.6545951
0.06925,0.073625,0.071875,-0.003418,0.0039825,-0.004303,0.021,-0.047125,0.107625,0.00048825,0.002533,-0.00238025,1741898076.6660779
0.069875,0.07225,0.068875,-0.00283825,0.00364675,-0.0040435,0.021,-0.048125,0.10675,0.0003205,0.0020752498,-0.00187675,1741898076.680716
0.0715,0.07125,0.06725,-0.0020752498,0.00325,-0.0038299998,0.020625,-0.048,0.107375,0.000229,0.00099175,-0.00090025004,1741898076.695677
0.072375,0.070625,0.066,-0.001419,0.00292975,-0.0032347501,0.02,-0.045125,0.11075,0.00019825,0.00065625,-0.000473,1741898076.7097862
0.072625,0.069375,0.064,-0.0015565,0.002884,-0.002884,0.020625,-0.042875,0.112,0.00033575002,0.00033575002,0.000183,1741898076.724331
