L-AccX,L-AccY,L-AccZ,L-GyrX,L-GyrY,L-GyrZ,R-AccX,R-AccY,R-AccZ,R-GyrX,R-GyrY,R-GyrZ,timestamp
-0.00625,0.10775,0.009125,-0.0325775,-0.009216251,-0.00631725,-0.020375,-0.01325,0.118125,-0.00024425,-0.00263975,-0.0019685,1741897996.896338
-0.00825,0.113875,0.00975,-0.0329895,-0.01165775,-0.0054015,-0.022,-0.01525,0.119375,0.0,-0.00283825,-0.001953,1741897996.9075341
-0.012125,0.124,0.0055,-0.029693501,-0.011383001,-0.00579825,-0.026875,-0.01775,0.144375,0.000885,-0.0020295,-0.0017242499,1741897996.922248
-0.014625,0.1275,0.00275,-0.020462,-0.009887749,-0.0074615004,-0.0285,-0.021375,0.150625,0.0028535,0.00115975,-0.00146475,1741897996.936928
-0.017375,0.1285,-0.001,-0.016021749,-0.00897225,-0.008270251,-0.022875,-0.0265,0.14325,0.00279225,0.0026854998,-0.00105275,1741897996.953779
-0.01475,0.12375,-0.001875,-0.008407501,-0.0068969997,-0.00883475,-0.02025,-0.029125,0.135,0.0021057501,0.003662,-0.00065625,1741897996.966294
-0.00475,0.111125,-0.003,-0.0062407497,-0.0062712496,-0.008270251,-0.02275,-0.033125,0.1285,0.001175,0.00292975,0.00035100002,1741897996.9808261
-0.0025,0.107375,-0.002125,-0.005005,-0.0060425,-0.0061645,-0.044,-0.044875,0.125625,0.00193775,0.0017395001,0.0018005001,1741897996.9953122
0.0005,0.098125,-0.00025,-0.0058287503,-0.006302,-0.00505075,-0.056625,-0.047375,0.1275,0.0064545004,-0.00019825,0.00801075,1741897997.012162
0.000875,0.09875,0.00225,-0.0072175004,-0.0066985004,-0.00378425,-0.0765,-0.05075,0.154375,0.010604749,-0.0001525,0.0125275,1741897997.024605
-0.001125,0.103,0.000125,-0.00930775,-0.0070952503,-0.0021972498,-0.08175,-0.05925,0.173625,0.022995,0.00364675,0.022873,1741897997.039223
-0.006375,0.1175,-0.004125,-0.01150525,-0.008148249,-0.00169375,-0.073625,-0.073625,0.18975,0.02977,0.0060882503,0.0272065,1741897997.053758
-0.0065,0.1205,-0.003,-0.01239025,-0.0085755,-0.001236,-0.062125,-0.075625,0.1845,0.04158025,0.0087585,0.03230275,1741897997.068259
-0.00325,0.11475,-0.004,-0.0114135,-0.0079955,-0.0008545,-0.047875,-0.0875,0.1685,0.047592252,0.008346501,0.0345,1741897997.082734
-0.003875,0.115,-0.003875,-0.009781,-0.00737,0.00027475,-0.041125,-0.088125,0.16175,0.061950747,0.0042572496,0.04122925,1741897997.097261
-0.009875,0.127875,0.00475,-0.00579825,-0.00570675,0.000229,-0.03225,-0.08775,0.144625,0.0681305,0.00163275,0.04458625,1741897997.115187
-0.010875,0.12625,0.0045,0.010162249,0.0024414998,-0.00143425,-0.029625,-0.096375,0.139375,0.0683135,-0.00074775,0.052795503,1741897997.126417
-0.00725,0.118125,-0.011375,0.0101165,0.0022125002,-0.00054925,-0.02625,-0.089625,0.132125,0.0605315,0.002411,0.056366,1741897997.140966
-0.0065,0.123,-0.011375,-0.002533,-0.003769,0.0007325,-0.025875,-0.08375,0.1235,0.049469,0.00770575,0.057541,1741897997.1554701
-0.010125,0.13,-0.003375,-0.0052337497,-0.00488275,0.00024425,-0.025375,-0.088,0.118875,0.01953125,0.0222015,0.057846002,1741897997.172281
-0.012375,0.12975,-0.00275,-0.004242,-0.0043639997,-0.00042725,-0.023625,-0.0885,0.095125,0.0049742498,0.02948,0.06044,1741897997.1845498
-0.014625,0.130375,-0.003125,-0.00067150005,-0.00263975,-0.00125125,-0.01125,-0.06725,0.08875,-0.00845325,0.035873502,0.06678775,1741897997.1991491
-0.01475,0.129625,-0.002375,0.000534,-0.0020752498,-0.00160225,0.022375,-0.0265,0.074125,-0.010391249,0.037902746,0.066543505,1741897997.213752
-0.0145,0.1275,-0.002,0.003006,-0.0007325,-0.0021515,0.029,-0.008625,0.070125,-0.011123749,0.039276,0.060028,1741897997.233514
-0.013375,0.123875,-0.00225,0.0039825,-9.15e-05,-0.0021819999,0.038,0.017,0.049625,-0.01019275,0.0385285,0.05567925,1741897997.2426372
-0.012875,0.1235,-0.001875,0.0044707498,0.00061025,-0.001953,0.045,0.02275,0.032875,-0.0066374997,0.033981252,0.045944247,1741897997.2571661
-0.012,0.123375,-0.0015,0.0042725,0.00071725,-0.00190725,0.048125,0.01175,0.008125,-0.00157175,0.029251,0.0415345,1741897997.274592
-0.01175,0.123125,-0.001125,0.0040435,0.0009155,-0.00175475,0.048625,0.00825,-0.001125,0.013000499,0.0154725,0.0352325,1741897997.285991
-0.010875,0.121375,0.0,0.00413525,0.001175,-0.0016785001,0.0565,0.010125,-0.017375,0.017151,0.0075225,0.031723,1741897997.300436
-0.010375,0.12075,-0.0005,0.00408925,0.00163275,-0.00148,0.060625,0.00875,-0.020875,0.018509,-0.0004425,0.028015248,1741897997.314924
-0.00975,0.1265,-0.0035,0.004013,0.00163275,-0.00149525,0.062,0.009375,-0.02075,0.01814275,-0.016037,0.0216675,1741897997.3322518
-0.00925,0.130125,-0.004625,0.0049895,0.00163275,-0.0022277501,0.0585,0.013625,-0.0155,0.017547501,-0.02374275,0.0186615,1741897997.343961
-0.0065,0.1285,-0.003125,0.00590525,0.00187675,-0.0027465,0.0585,0.02025,-0.012875,0.019989,-0.0395965,0.011825499,1741897997.3584168
-0.005375,0.126375,-0.002125,0.0067445002,0.00216675,-0.00308225,0.05425,0.030625,-0.015125,0.02359,-0.047821,0.0072175004,1741897997.373041
-0.0045,0.124875,-0.001,0.0077667497,0.002533,-0.003418,0.0455,0.024625,-0.01775,0.02946475,-0.063797005,-0.0047912505,1741897997.3875341
-0.0025,0.118625,0.00175,0.007782,0.0026854998,-0.003418,0.019625,-0.003375,-0.005375,0.028366,-0.069595255,-0.0109709995,1741897997.4023979
-0.002,0.118375,0.00225,0.0068969997,0.00238025,-0.002777,0.0055,-0.009875,0.016375,0.01811225,-0.07472225,-0.02180475,1741897997.416956
-0.00175,0.122875,0.001875,0.00643925,0.0019225,-0.0025025,-0.036625,-0.0385,0.098375,0.012847999,-0.07475275,-0.0262145,1741897997.43185
-0.00275,0.12825,-0.000375,0.0067597497,0.00065625,-0.0027160002,-0.0555,-0.0725,0.14275,0.01036075,-0.07041925,-0.028656,1741897997.446336
-0.0055,0.146375,-0.00325,0.008514499,0.0,-0.0037385002,-0.145375,-0.235875,0.356625,0.015518251,-0.061233502,-0.02702325,1741897997.4610748
-0.004875,0.149125,-0.00125,0.0168305,0.0001525,-0.00801075,-0.11425,-0.299,0.42525,0.01808175,-0.0397645,-0.01940925,1741897997.475884
0.000625,0.1295,0.00625,0.021606501,0.0010375,-0.009796251,0.01525,-0.186625,0.319,-0.00289925,0.0128632495,0.00302125,1741897997.4927628
0.003875,0.12125,0.0105,0.02528375,0.00169375,-0.01036075,0.04525,-0.13275,0.2,-0.008346501,0.02757275,0.0101775,1741897997.506646
0.007125,0.117375,0.0155,0.02879325,0.00115975,-0.009323,0.025375,-0.088,0.12725,0.00279225,0.02439875,0.011673001,1741897997.520992
0.01175,0.119625,0.020125,0.029876752,0.00033575002,-0.008606,0.00175,-0.091375,0.152125,0.0090637505,0.023178,0.01367175,1741897997.535469
0.012125,0.128125,0.02075,0.03433225,-0.0021515,-0.008545,0.015625,-0.07275,0.131625,-0.00440975,0.0321045,0.02091975,1741897997.550821
0.014875,0.129375,0.027125,0.03854375,-0.0029449998,-0.00962825,0.028,-0.060125,0.100375,-0.01165775,0.03610225,0.02313225,1741897997.564567
0.016625,0.118625,0.03,0.0470885,-0.003006,-0.01036075,0.0335,-0.049875,0.071875,-0.0160675,0.03854375,0.0206145,1741897997.579169
0.016,0.101125,0.03975,0.049759,-0.00279225,-0.00903325,0.033625,-0.035625,0.019625,-0.015625,0.037658747,0.01737975,1741897997.595794
0.0125,0.1015,0.041375,0.0506135,-0.00276175,-0.00712575,0.0395,-0.017125,-0.011875,-0.010498,0.03047175,0.00997925,1741897997.6082509
0.009375,0.10925,0.0425,0.051574748,-0.0047150003,-0.00402825,0.05975,0.03575,-0.08375,-0.0040435,0.023040751,0.005249,1741897997.622814
0.0105,0.105875,0.04625,0.052536,-0.00617975,-0.003662,0.064,0.050625,-0.111,0.014221249,-9.15e-05,-0.00546275,1741897997.637444
0.01275,0.085875,0.051,0.0447235,-0.00880425,-0.002655,0.055,0.05425,-0.11,0.02041625,-0.0158385,-0.00997925,1741897997.6520839
0.009375,0.06575,0.068375,0.037475497,-0.00975025,0.00393675,0.047375,0.0515,-0.0845,0.01228325,-0.050827,-0.019027751,1741897997.6666381
0.004375,0.11525,0.072,0.033966,-0.01077275,0.00794975,0.009,0.015625,0.0265,0.0021057501,-0.065445,-0.026062,1741897997.681329
-0.000875,0.088125,0.080125,0.03031925,-0.01071175,0.0042572496,-0.062,-0.0625,0.14625,1.5250001e-05,-0.07418825,-0.0345,1741897997.6961422
-0.004125,0.097375,0.081625,0.02241525,-0.009262,0.0048065,-0.149,-0.360625,0.36225,0.01036075,-0.05874625,-0.02873225,1741897997.713216
-0.002625,0.124125,0.078125,0.0243225,-0.00817875,0.0020295,-0.05225,-0.324875,0.3895,0.01519775,-0.0048065,-0.0016785001,1741897997.725648
-0.002,0.1095,0.081375,0.02763375,-0.0075835,-0.001892,0.032125,-0.14125,0.246625,0.0068969997,0.0150605,0.0038299998,1741897997.740157
-0.0025,0.10125,0.09075,0.02510075,-0.0072480002,-0.00413525,0.02875,-0.1145,0.1535,0.00242625,0.023101749,0.0056304997,1741897997.7545621
-0.003875,0.0915,0.098875,0.025589,-0.005844,-0.00364675,0.005,-0.1085,0.1175,0.0068207504,0.021453751,0.011688249,1741897997.7726588
-0.005375,0.0935,0.09725,0.02409375,-0.0037995,-0.0020905002,-0.0225,-0.103375,0.15625,0.00184625,0.02418525,0.0170745,1741897997.783596
-0.00625,0.099125,0.0935,0.02098075,-0.0036010002,-0.0024414998,-0.001625,-0.085,0.1445,-0.0138702495,0.03480525,0.026550248,1741897997.798208
-0.005375,0.09825,0.091,0.01852425,-0.0033570002,-0.0037995,0.034,-0.06025,0.06675,-0.01670825,0.037063498,0.0263825,1741897997.812747
-0.0035,0.094375,0.089125,0.01918025,-0.00325,-0.0044250004,0.03975,-0.04475,0.029625,-0.01649475,0.0356445,0.01905825,1741897997.831379
-0.002625,0.089625,0.090625,0.021087749,-0.0032347501,-0.0056609996,0.051875,0.0035,-0.037375,-0.013702501,0.03170775,0.014267,1741897997.8418062
-0.002,0.077,0.094375,0.0196685,-0.003418,-0.006073,0.059875,0.032125,-0.069,-0.00384525,0.016159,0.0044555003,1741897997.8562849
-0.00225,0.073375,0.092375,0.01658625,-0.003769,-0.00611875,0.065375,0.0695,-0.10975,0.0037079998,0.00514225,-0.00054925,1741897997.872937
-0.00325,0.07475,0.093625,0.009842,-0.00511175,-0.00546275,0.060375,0.073625,-0.11075,0.0148772495,-0.0239715,-0.01148975,1741897997.886882
-0.0045,0.076125,0.097125,0.011184749,-0.00488275,-0.0054015,0.05275,0.06925,-0.079625,0.012267999,-0.040420502,-0.01814275,1741897997.901717
-0.005,0.076125,0.09775,0.014510999,-0.004303,-0.00514225,0.041625,0.056,-0.034,0.00204475,-0.066268995,-0.03453075,1741897997.916327
-0.004875,0.065,0.094375,0.014038,-0.0043944996,-0.00517275,-0.13125,-0.15025,0.201625,0.0058899997,-0.070877,-0.03848275,1741897997.933248
-0.004125,0.05975,0.09475,0.00691225,-0.00614925,-0.0034790002,-0.2135,-0.337,0.364625,0.03302,-0.038803,-0.0212555,1741897997.945848
-0.00375,0.055375,0.097875,0.00643925,-0.0065307496,-0.00254825,-0.016625,-0.30475,0.376125,0.02677925,-0.0075377496,-0.0042115003,1741897997.960554
-0.0045,0.056625,0.096375,0.00614925,-0.0069274995,-0.000885,0.041,-0.203375,0.251625,-0.00485225,0.027069,0.008636501,1741897997.9750972
-0.004375,0.067625,0.097375,0.007019,-0.0070037497,-0.0012665,0.01525,-0.100125,0.09575,-0.00830075,0.028442498,0.0112915,1741897997.993072
-0.003,0.0685,0.098875,0.00794975,-0.0071409997,-0.0018005001,-0.016625,-0.091375,0.128375,-0.005005,0.026886,0.014709501,1741897998.00415
-0.00175,0.07175,0.1015,0.008270251,-0.0073395,-0.00201425,-0.029875,-0.093625,0.16525,-0.00723275,0.032196,0.025085501,1741897998.018761
0.001625,0.07525,0.106125,0.00747675,-0.0071409997,-0.00228875,0.017625,-0.07075,0.107875,-0.0112915,0.03607175,0.02934275,1741897998.03363
0.0035,0.074,0.10725,0.009933501,-0.0067597497,-0.0035095,0.04325,-0.048625,0.053625,-0.0118407495,0.037262,0.02607725,1741897998.047989
0.00325,0.06325,0.109,0.011245751,-0.0066985004,-0.00354,0.070125,0.009375,-0.035125,-0.0104065,0.034729,0.01953125,1741897998.062569
0.001125,0.067,0.111125,0.0091095,-0.006363,-0.0024414998,0.071,0.027875,-0.067375,-0.0019685,0.020584,0.0065765,1741897998.077236
-0.002125,0.071125,0.11225,0.0094604995,-0.0058287503,-0.0030975002,0.065,0.043875,-0.098875,0.0041810004,0.009643501,0.002411,1741897998.096767
-0.00275,0.069625,0.112,0.0112305,-0.00469975,-0.0043335,0.07,0.058875,-0.098375,0.011917,-0.01681525,-0.0066985004,1741897998.106273
-0.005625,0.064875,0.1115,0.011169501,-0.0041504996,-0.0046234997,0.074,0.07025,-0.06725,0.01077275,-0.031952,-0.01345825,1741897998.1209788
-0.00875,0.059875,0.10975,0.009445249,-0.0035704998,-0.0049590003,0.06225,0.060875,-0.044375,0.006607,-0.057983503,-0.029174749,1741897998.135547
-0.007,0.057375,0.108375,0.0037385002,-0.0032655,-0.00538625,-0.079625,-0.09525,0.13025,0.009384249,-0.06520075,-0.03367625,1741897998.153761
-0.003375,0.06375,0.10825,0.0033722501,-0.00352475,-0.0054475004,-0.18725,-0.25925,0.29,0.02796925,-0.049179003,-0.02333075,1741897998.164979
-0.013125,0.056625,0.10925,0.00364675,-0.003952,-0.0064239996,-0.053375,-0.351875,0.373,0.026397752,-0.0237275,-0.008224499,1741897998.1797938
-0.042875,0.039375,0.102375,0.0018615,-0.0038605002,-0.0072632497,0.008375,-0.24875,0.3015,-0.00102225,0.02105725,0.0080872495,1741897998.194313
-0.018,0.04425,0.104125,-0.00149525,-0.0039825,-0.0057220003,0.00475,-0.131375,0.142125,-0.00833125,0.028747499,0.0091095,1741897998.213675
0.016,0.056875,0.11225,-0.00071725,-0.004242,-0.00381475,-0.008375,-0.12025,0.14225,-0.0070647504,0.02996825,0.011612001,1741897998.2234309
0.008,0.0565,0.113625,0.0045625,-0.0045777503,-0.001236,-0.016125,-0.11825,0.16375,-0.008377,0.034484748,0.026062,1741897998.238295
0.003875,0.072375,0.112625,0.0056609996,-0.0045012496,-0.0003815,0.014375,-0.078875,0.115125,-0.01475525,0.038452253,0.032943748,1741897998.25347
-0.001375,0.0615,0.1185,0.00561525,-0.00440975,-0.00077825,0.038625,-0.044875,0.058125,-0.01927175,0.03993225,0.0321045,1741897998.26828
-0.0155,0.028375,0.1235,-0.013793999,-0.0028687501,-0.0013885,0.0625,0.00725,-0.036125,-0.01599125,0.0364075,0.02563475,1741897998.281879
-0.024625,0.05225,0.11125,-0.020584,-0.0021515,0.00030525,0.068375,0.034125,-0.07,-0.0049742498,0.02130125,0.01136775,1741897998.296462
-0.017625,0.068125,0.106875,-0.013916001,-0.001953,-0.00042725,0.088125,0.092875,-0.107,0.0026854998,0.009842,0.00463875,1741897998.3136299
-0.0115,0.061625,0.1085,-0.0115967505,-0.0018615,-0.00090025004,0.09275,0.09975,-0.106125,0.013564999,-0.019455,-0.00985725,1741897998.3255732
-0.011375,0.058375,0.108875,-0.01867675,-0.001648,-0.00051875,0.07475,0.0765,-0.07775,0.012130749,-0.0345765,-0.017685,1741897998.340329
-0.007875,0.067,0.10275,-0.02076725,-0.0019225,-3.0500001e-05,0.058875,0.067625,-0.050125,0.00485225,-0.058426,-0.0358125,1741897998.354943
-0.006875,0.06725,0.106875,-0.022094749,-0.0025940002,0.00062550005,-0.060625,-0.069375,0.108125,0.00773625,-0.065384,-0.04129025,1741897998.373972
-0.013,0.08175,0.104625,-0.03601075,-0.00096125,0.00019825,-0.163,-0.21475,0.26125,0.030716,-0.054580748,-0.0327605,1741897998.384367
-0.011625,0.084625,0.0995,-0.039779752,-0.00231925,-0.0039825,-0.119875,-0.429625,0.3535,0.03108225,-0.033752497,-0.019195499,1741897998.3991091
-0.012125,0.083625,0.099875,-0.03800975,-0.0037385002,-0.0055085,-0.023375,-0.318375,0.306875,0.016632,-0.00862125,-0.00296025,1741897998.414527
-0.01325,0.08175,0.095625,-0.03952025,-0.00444025,-0.00617975,0.020625,-0.156375,0.158,-0.008361749,0.0265045,0.01248175,1741897998.4337971
-0.011875,0.081875,0.0905,-0.04190075,-0.004547,-0.0041810004,0.009,-0.12875,0.11725,-0.009582501,0.030578502,0.0161895,1741897998.443104
-0.007625,0.079875,0.09175,-0.0529785,-0.00228875,-0.00083925005,-0.011375,-0.11975,0.111875,-0.008194,0.03005975,0.0262145,1741897998.4578419
-0.011125,0.112375,0.06325,-0.073761,0.00090025004,0.00057975,-0.012375,-0.0905,0.128125,-0.012085,0.03224175,0.032547,1741897998.4734452
-0.012,0.109875,0.04925,-0.057327252,-0.0017242499,-0.0025634998,0.02025,-0.062375,0.099625,-0.0183715,0.037506,0.03660575,1741897998.487218
-0.0075,0.0915,0.06475,-0.0352325,-0.005783,-0.00402825,0.0705,0.000375,0.013625,-0.016418502,0.03610225,0.032333247,1741897998.501567
-0.009,0.047375,0.05125,-0.065384,-0.0007325,0.0021819999,0.075875,0.02625,-0.0185,-0.007553,0.024688749,0.01753225,1741897998.51618
-0.02075,0.116,-0.015875,-0.045105,-0.00254825,0.01498425,0.082375,0.07125,-0.065125,-0.0027160002,0.0159455,0.01019275,1741897998.534935
-0.017,0.166875,0.031625,-0.013198749,-0.0072785,0.0081635,0.085125,0.083125,-0.0785,0.00631725,-0.00561525,-0.0038757501,1741897998.5486138
-0.00925,0.147,0.04325,-0.00538625,-0.0060425,-0.000183,0.083875,0.08725,-0.071625,0.0074004997,-0.01719675,-0.011321999,1741897998.563236
-0.007875,0.134125,0.03075,-0.00587475,0.001709,-0.0049285004,0.07075,0.10025,-0.04475,0.0051574996,-0.03923025,-0.0298615,1741897998.5779068
-0.009,0.1355,0.029375,-0.0025025,0.0042267498,-0.0043335,0.022125,0.0415,0.003875,0.0076142503,-0.049606252,-0.0398255,1741897998.598017
-0.008,0.132875,0.03275,0.0038605002,0.0072937496,-0.00466925,-0.060125,-0.08375,0.079875,0.0229035,-0.060318,-0.041366503,1741897998.607378
-0.005125,0.129125,0.03675,0.003769,0.007843,-0.0065612504,-0.153625,-0.295125,0.2565,0.02967825,-0.0563965,-0.03395075,1741897998.622296
-0.00525,0.1305,0.036125,-0.0076295,0.0062255003,-0.0151215,-0.161625,-0.39325,0.3605,0.030731251,-0.022766002,-0.0127105,1741897998.637145
0.00075,0.10075,0.039625,-0.013321,0.0052185003,-0.018631,-0.02375,-0.29925,0.253625,0.01896675,0.0007935,0.00587475,1741897998.6542249
0.001875,0.089875,0.04125,-0.009872501,0.0030669998,-0.016098,0.021,-0.211625,0.158125,-0.0045012496,0.026519751,0.021347,1741897998.6662772
0.000875,0.099125,0.042875,-0.0055237496,0.0017852499,-0.013092,-0.00675,-0.148,0.1145,-0.011321999,0.02893075,0.0256805,1741897998.680802
0.0015,0.10675,0.043125,-0.0025025,0.00070200005,-0.010559,-0.02025,-0.11925,0.123375,-0.016845752,0.0313415,0.03828425,1741897998.695603
0.00275,0.109625,0.044625,0.00086975005,0.0007325,-0.0064850003,-0.002125,-0.05625,0.09975,-0.02088925,0.0331115,0.04237375,1741897998.713782
0.007625,0.104125,0.0525,0.00355525,0.0008545,-0.005005,0.029,-0.01275,0.065125,-0.02459725,0.03524775,0.039276,1741897998.7247932
0.010375,0.1005,0.05675,0.00839225,0.00010675,-0.0035704998,0.0765,0.048125,-0.00675,-0.018875,0.032608002,0.03155525,1741897998.7392871
0.01,0.097125,0.059625,0.009155249,4.575e-05,-0.0021057501,0.081625,0.05325,-0.027875,-0.00494375,0.0184785,0.01345825,1741897998.754186
0.009625,0.101875,0.057875,0.01390075,0.00093075,0.00402825,0.091625,0.087375,-0.055875,-0.0004425,0.0091705,0.0059815003,1741897998.769023
0.0045,0.11475,0.058125,0.018448,0.00115975,0.00617975,0.095375,0.106375,-0.064875,0.0032195,-0.00083925005,-0.00181575,1741897998.7832131
0.0025,0.117,0.062,0.02238475,0.0012665,0.0067597497,0.084,0.105125,-0.062,0.009582501,-0.022293,-0.02015675,1741897998.797798
-0.00025,0.116625,0.065625,0.02636725,0.0016632499,0.0054015,0.077375,0.103625,-0.05725,0.0114744995,-0.0319215,-0.03009025,1741897998.813807
-0.006375,0.10975,0.07225,0.027587999,0.001892,0.0047150003,0.0565,0.087,-0.0345,0.017135499,-0.047546502,-0.049942,1741897998.8269792
-0.007125,0.10275,0.074125,0.0289155,0.0028074998,0.00372325,-0.08775,-0.10725,0.114625,0.02330025,-0.052124,-0.05340575,1741897998.84169
-0.020875,0.092125,0.082625,0.03268425,0.002533,0.0042267498,-0.198,-0.271875,0.278,0.049423248,-0.041687,-0.038269002,1741897998.856378
-0.02125,0.089875,0.091125,0.01794425,0.0017395001,0.0031585,-0.114125,-0.418125,0.291625,0.0442505,-0.0201875,-0.02009575,1741897998.8738298
-0.010125,0.088,0.085375,0.008072,0.0023497501,0.00372325,0.003375,-0.324875,0.198625,-0.00177,0.01820375,0.0052185003,1741897998.885582
-0.008,0.093,0.080875,0.00239575,0.00325,0.0051574996,0.028625,-0.17875,0.101375,-0.01525875,0.02456675,0.01177975,1741897998.900224
-0.008375,0.10075,0.07475,0.0022735,0.0038299998,0.00671375,0.00975,-0.12125,0.104125,-0.01661675,0.0239105,0.0206605,1741897998.91488
-0.012375,0.10875,0.07225,0.0028535,0.00355525,0.0067445002,-0.014375,-0.098625,0.125,-0.01091,0.022369498,0.027481,1741897998.933175
-0.010625,0.11325,0.071625,-0.00160225,0.0042725,0.0041810004,-0.010125,-0.1,0.13275,-0.0102845,0.02412425,0.039322,1741897998.9442902
-0.012,0.1075,0.0735,-0.00216675,0.0047302498,0.0030365,0.033125,-0.072375,0.11325,-0.01504525,0.02848825,0.040099997,1741897998.958805
-0.01375,0.107625,0.076125,-0.00157175,0.0056609996,0.00308225,0.0455,-0.056375,0.09175,-0.0214385,0.03627025,0.032364,1741897998.973687
-0.0135,0.10975,0.0755,-0.0010375,0.0061645,0.0032347501,0.04675,-0.03175,0.049375,-0.0212555,0.03739925,0.02796925,1741897998.994022
-0.0115,0.10875,0.07225,-0.00083925005,0.0065765,0.00325,0.051875,-0.01,0.026625,-0.020202748,0.0365905,0.024292,1741897999.002534
-0.009,0.1075,0.06825,-0.0010375,0.0066985004,0.0030669998,0.073875,0.036625,-0.017,-0.015335,0.029220501,0.0157165,1741897999.017236
-0.00225,0.1065,0.063,-0.00137325,0.0062712496,0.0028535,0.08825,0.063,-0.03625,-0.01086425,0.02278125,0.009674,1741897999.036005
0.0025,0.1065,0.061375,-0.00177,0.004593,0.0021057501,0.093,0.08925,-0.05425,0.00148,0.0052795,-0.0073395,1741897999.0478091
0.011375,0.106375,0.062125,-0.00143425,0.0035095,0.001709,0.075125,0.073,-0.05375,0.00880425,-0.0049590003,-0.016128499,1741897999.062538
0.014625,0.105875,0.063125,0.0012207499,0.0013885,0.00102225,0.040375,0.045,-0.0535,0.0201875,-0.025848499,-0.02896125,1741897999.0774221
0.018,0.106375,0.066875,0.0034637498,0.00045775,0.0007325,0.030625,0.03475,-0.0475,0.0219115,-0.0359345,-0.03556825,1741897999.098159
0.01775,0.10525,0.069375,0.006073,-0.00035100002,0.00045775,0.010875,0.003,-0.0255,0.021087749,-0.05207825,-0.04862975,1741897999.106699
0.016625,0.1015,0.072875,0.011764499,-0.00149525,0.00036625,-0.057625,-0.126375,0.082,0.02053825,-0.056335498,-0.051178,1741897999.1213949
0.014125,0.08975,0.08075,0.0143737495,-0.00177,0.00074775,-0.090625,-0.21075,0.152125,0.0239715,-0.05160525,-0.04422,1741897999.136353
0.013875,0.085,0.083625,0.01782225,-0.0020905002,0.0019225,-0.12775,-0.43925,0.309,0.02790825,-0.03898625,-0.0331115,1741897999.1538408
0.016125,0.083625,0.0865,0.0182495,-0.0024872501,0.00254825,-0.088375,-0.41175,0.314,0.00839225,0.0062407497,0.0022125002,1741897999.165733
0.017125,0.088375,0.0865,0.01794425,-0.003769,0.00372325,0.0135,-0.203875,0.177,-0.0039825,0.02186575,0.012847999,1741897999.180305
0.013125,0.103125,0.084,0.019104,-0.0040587503,0.0043182503,0.0165,-0.152,0.126,-0.011306751,0.02693175,0.02351375,1741897999.194805
0.008375,0.10825,0.082,0.021606501,-0.003891,0.0048217503,-0.008625,-0.119875,0.1195,-0.01127625,0.026733499,0.02769475,1741897999.215471
0.002375,0.11,0.07925,0.02359,-0.00325,0.0043182503,-0.005125,-0.10275,0.11475,-0.01631175,0.030731251,0.03781125,1741897999.224202
-0.01,0.107125,0.076875,0.0233155,-0.003006,0.0034484998,0.031125,-0.05675,0.062375,-0.0213775,0.032821752,0.0394135,1741897999.238691
-0.013375,0.10175,0.077875,0.021469,-0.0026245,0.000763,0.045,-0.03575,0.03575,-0.0261535,0.03256225,0.03291325,1741897999.2540128
-0.014125,0.09425,0.081625,0.0197295,-0.002533,-0.00039675,0.058625,0.002375,0.000375,-0.02386475,0.0299225,0.0269165,1741897999.2677162
-0.01475,0.093,0.0845,0.01570125,-0.00251775,-0.0017395001,0.06575,0.019375,-0.016375,-0.0189515,0.0254975,0.02067575,1741897999.282185
-0.016875,0.0895,0.088125,0.014724749,-0.002243,-0.00181575,0.092125,0.072125,-0.04975,-0.0053405,0.0114440005,0.008270251,1741897999.296768
-0.01675,0.086125,0.0865,0.01071175,-0.00160225,-0.001831,0.100625,0.090875,-0.05775,0.0016785001,0.0022735,0.000534,1741897999.314399
-0.014,0.08375,0.07875,0.008499251,-0.00143425,-0.0015565,0.0965,0.089875,-0.056,0.012405501,-0.018615749,-0.016983,1741897999.325803
-0.012625,0.083125,0.078625,0.0071105,-0.0013427499,-0.0012055,0.06475,0.053375,-0.043875,0.01463325,-0.02873225,-0.0246735,1741897999.342898
-0.01225,0.083875,0.081,0.0056,-0.0012055,-0.00105275,0.0465,0.032,-0.033125,0.01445,-0.0454255,-0.03828425,1741897999.355111
-0.0125,0.084375,0.085375,0.00485225,-0.00131225,-0.00148,-0.03475,-0.076875,0.051625,0.01570125,-0.05122375,-0.04240425,1741897999.374026
-0.012,0.081875,0.086875,0.0034637498,-0.001892,-0.0021515,-0.077125,-0.154875,0.119875,0.02342225,-0.051880002,-0.038742002,1741897999.384737
-0.010875,0.076375,0.08975,0.0034637498,-0.002121,-0.00177,-0.115875,-0.339375,0.28075,0.02931225,-0.043808,-0.033691503,1741897999.399499
-0.010625,0.074875,0.091125,0.0016175,-0.002365,-0.00077825,-0.09725,-0.423375,0.2815,0.01756275,-0.008209251,-0.0070647504,1741897999.414328
-0.01075,0.078,0.092375,-0.00024425,-0.0025025,-0.0005035,-0.0055,-0.24875,0.185875,0.0007325,0.011673001,0.008209251,1741897999.4342248
-0.011,0.082,0.094,-0.002533,-0.002777,-0.00062550005,0.010875,-0.17475,0.13125,-0.012985251,0.0273285,0.0204315,1741897999.443491
-0.010375,0.08125,0.094375,-0.0034942501,-0.002884,-0.001068,-0.010125,-0.12775,0.107375,-0.012130749,0.0261535,0.02301025,1741897999.458128
-0.00975,0.074375,0.096875,-0.0013275,-0.00340275,-0.000885,-0.020375,-0.12125,0.118625,-0.009811499,0.0251465,0.03367625,1741897999.473988
-0.025625,0.065375,0.098375,-0.00245675,-0.0029907501,-0.0005645,0.009375,-0.08025,0.095375,-0.013382,0.02696225,0.03857425,1741897999.487442
-0.033125,0.0705,0.094375,-0.00585925,-0.00193775,-0.00090025004,0.032125,-0.055375,0.068625,-0.022613501,0.030456498,0.038314752,1741897999.501976
-0.0025,0.082625,0.097,-0.0097045,-0.0005645,-0.002243,0.063,-0.000625,0.01525,-0.0241395,0.03044125,0.033783,1741897999.5164711
-0.0045,0.075875,0.103,-0.009155249,-0.00083925005,-0.00213625,0.074,0.02575,-0.005,-0.02288825,0.028137252,0.02746575,1741897999.5359502
-0.01175,0.077,0.104125,-0.008773751,-0.000885,-0.0012817499,0.082375,0.045375,-0.01875,-0.013275251,0.01631175,0.013351499,1741897999.5458088
-0.0035,0.09875,0.09675,-0.00643925,-0.00062550005,-0.0007325,0.091,0.063125,-0.029375,-0.00570675,0.0075835,0.00691225,1741897999.560328
0.000375,0.1025,0.094875,-0.0012665,-0.000122000005,-0.0029449998,0.090875,0.063,-0.029125,0.006836,-0.011139,-0.0063934997,1741897999.577773
-0.003375,0.096625,0.0955,-0.0021057501,0.00057975,-0.00520325,0.08125,0.061875,-0.02225,0.00947575,-0.019714251,-0.01425175,1741897999.59343
-0.0035,0.103375,0.09625,-0.00918575,0.00198375,-0.00982675,0.07525,0.06525,-0.01825,0.0133667495,-0.034423754,-0.03202825,1741897999.604311
-0.0065,0.11225,0.091125,-0.012924249,0.0020752498,-0.013916001,0.04375,0.040625,0.005625,0.016967751,-0.040527247,-0.0407715,1741897999.618807
-0.0055,0.110625,0.08775,-0.01245125,0.00093075,-0.021087749,0.00075,-0.01825,0.042125,0.027740499,-0.04789725,-0.048995998,1741897999.634027
-0.000125,0.104625,0.080375,-0.00918575,7.625e-05,-0.02247625,-0.135875,-0.256875,0.18625,0.032714747,-0.046569753,-0.0457915,1741897999.655902
-0.00075,0.1005,0.078,-0.00637825,-0.00108325,-0.023376498,-0.184,-0.412875,0.274625,0.032180753,-0.022094749,-0.025299,1741897999.6629171
-0.00525,0.105625,0.086625,0.000122000005,-0.004593,-0.02626025,-0.059375,-0.352625,0.21725,0.0128175,0.00378425,-0.008285499,1741897999.6777952
-0.00625,0.06075,0.091375,0.0007935,-0.005783,-0.03056325,0.0015,-0.237,0.15275,-0.009948749,0.03152475,0.011856,1741897999.694931
-0.0015,0.011125,0.094875,-0.001236,-0.00511175,-0.016922,0.005625,-0.122875,0.12025,-0.00924675,0.03161625,0.017212,1741897999.706935
-0.003375,0.06125,0.098625,0.0014037499,-0.00201425,-0.0033264998,-0.003375,-0.117125,0.125,-0.00741575,0.0246125,0.026947001,1741897999.72151
-0.004875,0.0725,0.09775,0.003662,0.0028535,0.0070037497,0.0075,-0.097375,0.096125,-0.00839225,0.02250675,0.03575125,1741897999.736005
0.003125,0.06875,0.099125,0.00691225,0.0039825,0.011245751,0.02875,-0.063125,0.070125,-0.01278675,0.022796748,0.0421295,1741897999.754055
0.008625,0.080625,0.093375,0.0174865,0.00434875,0.02227775,0.050375,-0.02625,0.0485,-0.023407,0.025177,0.03993225,1741897999.7651699
0.01375,0.111875,0.082875,0.032013,0.00413525,0.02719125,0.07925,0.03,0.006375,-0.0249635,0.025390498,0.0327605,1741897999.779791
-0.014625,0.101,0.10925,0.043701246,0.00396725,0.027984502,0.085375,0.0485,-0.012375,-0.01651,0.017273001,0.012436,1741897999.7942212
-0.029125,0.085375,0.106875,0.0078735,0.00723275,0.011688249,0.079125,0.0505,-0.0275,-0.00845325,0.00883475,0.0036315,1741897999.814559
-0.021,0.098125,0.094625,-0.00511175,0.0069580004,0.0055695,0.083875,0.063875,-0.03375,0.004837,-0.008773751,-0.010879501,1741897999.8237948
-0.01275,0.086875,0.095,-0.0053709997,0.00488275,0.00115975,0.089375,0.097375,-0.035,0.0091095,-0.0168305,-0.02105725,1741897999.838309
-0.0155,0.07375,0.09925,-0.0045012496,0.00494375,0.0021057501,0.078,0.08975,-0.025875,0.01890575,-0.03114325,-0.041992247,1741897999.856575
-0.017375,0.078875,0.099375,-0.00646975,0.0060272496,0.0044250004,0.005125,-0.01,0.026125,0.024292,-0.0376435,-0.048568748,1741897999.868503
-0.01675,0.082625,0.094625,-0.00712575,0.006607,0.0048065,-0.055875,-0.112625,0.078375,0.03070075,-0.04660025,-0.048660252,1741897999.8824131
-0.016,0.08175,0.092375,-0.00715625,0.0070647504,0.0050202496,-0.1695,-0.41275,0.2785,0.03329475,-0.0438385,-0.042846747,1741897999.8973608
-0.014875,0.081875,0.091,-0.0055237496,0.0077667497,0.0056,-0.1225,-0.468125,0.26475,0.011016751,-0.005066,-0.0045012496,1741897999.914782
-0.009125,0.081875,0.0875,-0.0020905002,0.0077972496,0.006012,0.000875,-0.256625,0.132,-0.00672925,0.0137635,0.00924675,1741897999.926644
-0.006625,0.078375,0.091125,0.00013725001,0.0076905,0.0073242504,0.008,-0.181625,0.105125,-0.014358499,0.023193251,0.01968375,1741897999.9414148
-0.00275,0.075375,0.092375,-0.00402825,0.00798025,0.0076295,-0.002,-0.123375,0.120125,-0.0115815,0.02127075,0.023468,1741897999.956023
-0.001875,0.0745,0.091375,-0.010589501,0.008667,0.0088805,-0.00525,-0.112875,0.122625,-0.009491,0.02026375,0.029449498,1741897999.97506
0.002875,0.08175,0.08425,-0.0119934995,0.008941749,0.009674,0.028125,-0.0485,0.07775,-0.01579275,0.023346001,0.04093925,1741897999.985295
0.0065,0.084125,0.080375,-0.01248175,0.0089875,0.0102235,0.05325,-0.007125,0.046625,-0.020782499,0.02500925,0.04031375,1741897999.999997
0.010375,0.087875,0.077375,-0.0151825,0.00823975,0.010498,0.073625,0.03175,0.01975,-0.0230865,0.023940999,0.026062,1741898000.015669
0.015875,0.089875,0.074125,-0.016876249,0.007431,0.01065075,0.07875,0.059375,-0.009375,-0.01924125,0.02026375,0.01504525,1741898000.028982
0.01575,0.09175,0.0745,-0.021927001,0.005066,0.011123749,0.069375,0.050125,-0.0175,-0.00538625,0.00671375,-0.0017395001,1741898000.043565
0.011375,0.094125,0.077,-0.02357475,0.0041810004,0.0112,0.08325,0.081875,-0.042625,0.00054925,-0.00154125,-0.00883475,1741898000.0581849
0.008375,0.095875,0.0765,-0.02610775,0.0031585,0.011260999,0.091125,0.09925,-0.045625,0.011306751,-0.01893625,-0.029601999,1741898000.077653
0.007375,0.10225,0.072,-0.030578502,0.00238025,0.01083375,0.063125,0.05825,-0.0225,0.0177765,-0.026855499,-0.0396575,1741898000.087543
0.00625,0.104,0.068625,-0.034362752,0.00146475,0.010024999,0.015625,-0.013125,0.013375,0.027984502,-0.040145747,-0.048446752,1741898000.102201
0.00625,0.109625,0.065,-0.03648375,-0.0002595,0.008270251,-0.10275,-0.219,0.154375,0.0293885,-0.044113252,-0.04591375,1741898000.116919
0.00575,0.135125,0.077625,-0.034606997,-0.00125125,0.0065917503,-0.1435,-0.365,0.247875,0.030609248,-0.02981575,-0.02613825,1741898000.1340292
0.003125,0.131125,0.08375,-0.017273001,0.0019225,0.0010375,-0.06675,-0.39225,0.21325,0.01744075,-0.0062407497,-0.0056,1741898000.1465988
0.00075,0.09925,0.068,-0.01794425,0.0030669998,0.00061025,-0.01325,-0.285625,0.14925,-0.0097045,0.024887,0.01358025,1741898000.161319
-0.003375,0.10875,0.070625,-0.0209655,0.003006,0.0029755002,0.0045,-0.136125,0.1035,-0.0114135,0.02664175,0.01744075,1741898000.175915
-0.00575,0.124875,0.077875,-0.018859752,0.00411975,0.0028535,0.00225,-0.1105,0.121625,-0.009734999,0.02417,0.020629998,1741898000.193849
-0.00625,0.131,0.081,-0.013916001,0.0063934997,0.00149525,0.012,-0.086,0.1105,-0.009155249,0.02053825,0.033584498,1741898000.205018
-0.005125,0.11925,0.06675,0.005066,0.013839751,-0.00148,0.028625,-0.056625,0.080625,-0.014007499,0.0210725,0.039322,1741898000.2195032
-0.004875,0.115,0.066375,0.02076725,0.020584,-0.00216675,0.045375,-0.024875,0.05075,-0.0239105,0.0220795,0.0361175,1741898000.234114
-0.0045,0.080625,0.02525,0.00314325,0.01390075,0.00090025004,0.0695,0.021375,0.004125,-0.024810748,0.02064525,0.0285035,1741898000.2541308
-0.004125,0.101625,0.060875,-0.0076295,0.0063934997,0.0048217503,0.07575,0.036,-0.015875,-0.01728825,0.012924249,0.010238751,1741898000.26311
-0.004125,0.110625,0.065125,-0.0116425,0.00355525,0.00535575,0.084125,0.0645,-0.045375,-0.010162249,0.0058135,0.001892,1741898000.2778492
-0.006625,0.114125,0.062625,-0.011856,0.004074,0.0037995,0.08675,0.079875,-0.047625,0.0031127501,-0.012146,-0.015090999,1741898000.294535
-0.007,0.10975,0.057875,-0.011901749,0.0045165,0.0026854998,0.077375,0.082,-0.029,0.00715625,-0.02098075,-0.0247345,1741898000.307125
-0.0055,0.110875,0.0475,-0.01324475,0.0036010002,0.0029449998,0.0645,0.06825,-0.0145,0.013351499,-0.03636175,-0.042678747,1741898000.3220859
-0.00575,0.115625,0.04725,-0.013351499,0.0026854998,0.00317375,-0.022875,-0.058375,0.061875,0.01708975,-0.04273975,-0.04783625,1741898000.336707
-0.008375,0.12375,0.05775,-0.00517275,0.0047150003,0.0018615,-0.092625,-0.174625,0.134125,0.02978525,-0.0453185,-0.040710498,1741898000.3542788
-0.007375,0.102875,0.045875,0.0032655,0.00839225,0.0007935,-0.160625,-0.448625,0.26675,0.03300475,-0.03468325,-0.027984502,1741898000.366431
-0.00275,0.092,0.04,-0.009017999,0.004593,0.0037385002,-0.085875,-0.40125,0.23775,0.007782,0.0076142503,0.0025787498,1741898000.381036
0.001625,0.1065,0.038125,-0.017929,0.00125125,0.0052185003,0.020375,-0.19425,0.10925,-0.0036315,0.020599252,0.00874325,1741898000.395495
-0.000125,0.11575,0.0385,-0.0244445,-0.0019989999,0.00469975,0.009,-0.14675,0.103,-0.0081635,0.0254365,0.0119630005,1741898000.4135392
-0.004,0.113875,0.034875,-0.02459725,-0.0022735,0.00367725,-0.02,-0.13475,0.139,-0.00469975,0.0236665,0.021789499,1741898000.424822
-0.00425,0.109875,0.03175,-0.02449025,-0.0023497501,0.00331125,-0.01175,-0.12,0.12425,-0.004837,0.02265925,0.03056325,1741898000.43958
-0.003375,0.107375,0.0295,-0.02616875,-0.0031585,0.00419625,0.011,-0.0885,0.094,-0.0151825,0.02386475,0.04005425,1741898000.454355
-0.004125,0.114375,0.026375,-0.027404752,-0.00402825,0.0047302498,0.0535,-0.021625,0.0325,-0.02038575,0.02528375,0.03733825,1741898000.474369
-0.005125,0.118375,0.025625,-0.02622975,-0.00514225,0.00463875,0.066875,0.00825,0.00575,-0.0226745,0.02323925,0.02360525,1741898000.4832299
-0.00675,0.1215,0.024875,-0.023620501,-0.0048979996,0.0042115003,0.0835,0.0585,-0.036,-0.01857,0.01823425,0.01498425,1741898000.497717
-0.007375,0.1185,0.023875,-0.01905825,-0.0034637498,0.0033570002,0.0815,0.06625,-0.048375,-0.00364675,0.0026245,-0.0019685,1741898000.5164502
-0.00925,0.117875,0.01975,-0.018341,-0.00334175,0.0034484998,0.0835,0.091125,-0.057125,0.003128,-0.00671375,-0.01048275,1741898000.527037
-0.010125,0.121,0.0205,-0.015747,-0.0035095,0.00358575,0.08575,0.099125,-0.049625,0.0111085,-0.026122998,-0.03205875,1741898000.5417368
-0.009625,0.120125,0.01725,-0.01463325,-0.0035095,0.0034484998,0.060875,0.066125,-0.01625,0.01490775,-0.035339247,-0.04245,1741898000.558221
-0.0095,0.120375,0.01625,-0.01475525,-0.00390625,0.0034637498,0.01175,-0.001875,0.026,0.02412425,-0.050536998,-0.053177,1741898000.574097
-0.01025,0.12125,0.017,-0.01460275,-0.0044250004,0.0034637498,-0.2005,-0.297625,0.284375,0.032714747,-0.05293275,-0.05116275,1741898000.5857291
-0.014,0.126625,0.0175,-0.0135345,-0.00413525,0.00328075,-0.2155,-0.44025,0.318875,0.0267945,-0.013412501,-0.01054375,1741898000.600415
-0.0155,0.127875,0.017,-0.0116425,-0.0032655,0.0025634998,-0.004375,-0.288,0.139125,0.0066985004,0.0122375,0.00399775,1741898000.615029
-0.016875,0.126,0.01475,-0.0115815,-0.0030365,0.00238025,0.02175,-0.195375,0.0855,-0.0086975,0.024643,0.00546275,1741898000.634212
-0.01675,0.124125,0.01375,-0.01260375,-0.0032655,0.0025787498,-0.011125,-0.13375,0.1165,-0.00868225,0.02342225,0.0074004997,1741898000.644214
-0.016375,0.12475,0.011625,-0.01301575,-0.0034942501,0.002533,-0.01675,-0.13675,0.136625,-0.0026245,0.020279,0.0161895,1741898000.658942
-0.0165,0.1255,0.0105,-0.01216125,-0.0033570002,0.0018615,-0.006125,-0.1255,0.12775,-0.0068512503,0.019775499,0.03860475,1741898000.673789
-0.015625,0.12175,0.010125,-0.01054375,-0.002777,0.0016632499,0.035625,-0.0555,0.06675,-0.0143737495,0.021576,0.041992247,1741898000.692829
-0.015,0.11825,0.009,-0.009552,-0.0023345,0.0016175,0.047,-0.025875,0.036875,-0.02247625,0.023620501,0.032043498,1741898000.702743
-0.015125,0.117125,0.008,-0.0110625,-0.003418,0.0025025,0.055375,0.004125,-0.006875,-0.021927001,0.022186251,0.024078252,1741898000.717257
-0.016875,0.12125,0.008125,-0.01206975,-0.004486,0.0030975002,0.06375,0.027125,-0.02475,-0.014221249,0.0133667495,0.00842275,1741898000.733223
-0.018375,0.124,0.008125,-0.011673001,-0.00555425,0.0036010002,0.092375,0.088625,-0.053125,-0.007309,0.0060577504,0.00010675,1741898000.746351
-0.018,0.1235,0.0065,-0.009781,-0.005249,0.00390625,0.10025,0.103875,-0.05475,0.0075835,-0.01295475,-0.019592252,1741898000.76124
-0.017625,0.12375,0.005125,-0.007019,-0.004547,0.00428775,0.07575,0.071875,-0.030625,0.012176501,-0.02351375,-0.029174749,1741898000.775933
-0.0185,0.128,0.0035,-0.0068055,-0.0045165,0.00428775,0.048375,0.035875,-0.006625,0.0151215,-0.04173275,-0.04322825,1741898000.7941492
-0.018125,0.1285,0.00375,-0.00715625,-0.0043182503,0.00434875,-0.084375,-0.152375,0.11675,0.01741025,-0.047424253,-0.045043997,1741898000.805417
-0.01675,0.1295,0.004,-0.00737,-0.00396725,0.004242,-0.17075,-0.322375,0.228125,0.0306245,-0.034606997,-0.02581775,1741898000.820197
-0.017125,0.130125,0.003,-0.00697325,-0.0033264998,0.00413525,-0.092,-0.38475,0.248,0.023056,-0.009506251,-0.005249,1741898000.8349051
-0.016875,0.129875,0.001125,-0.0048065,-0.0017242499,0.0039215,0.0035,-0.26225,0.161,-0.0052947504,0.02244575,0.00935375,1741898000.853687
-0.01725,0.131,-0.00125,-0.004242,-0.00143425,0.0035704998,0.025625,-0.13025,0.094625,-0.00817875,0.023193251,0.01048275,1741898000.8639412
-0.016375,0.130875,-0.001875,-0.0045165,-0.00143425,0.0028535,-0.00225,-0.1325,0.114375,-0.00463875,0.02079775,0.014099,1741898000.878495
-0.013,0.132,-0.005375,-0.0054475004,-0.00163275,0.0027312501,-0.019,-0.141125,0.125,-0.003128,0.01985175,0.03056325,1741898000.894491
-0.012625,0.1335,-0.007,-0.00773625,-0.0026245,0.00163275,0.00925,-0.092625,0.093875,-0.009384249,0.02165225,0.036972,1741898000.907752
-0.015375,0.13625,-0.007625,-0.00738525,-0.0027465,0.00102225,0.03125,-0.0635,0.071125,-0.0187225,0.024704,0.03512575,1741898000.922174
-0.016375,0.137,-0.008625,-0.004303,-0.0016785001,-0.00029,0.055,-0.0225,0.02225,-0.01930225,0.024704,0.0298615,1741898000.936629
-0.018875,0.13725,-0.010875,-0.00276175,-0.00096125,-0.0010375,0.0645,0.005125,-0.00425,-0.01576225,0.02006525,0.01664725,1741898000.954711
-0.01925,0.135875,-0.0115,-0.00071725,0.00016775,-0.0029907501,0.086,0.060125,-0.04675,-0.011139,0.014389,0.009491,1741898000.9661388
-0.018625,0.131125,-0.011875,9.15e-05,0.00054925,-0.00372325,0.09175,0.074,-0.05875,0.00239575,-0.0021057501,-0.0057677496,1741898000.980725
-0.017375,0.129375,-0.0115,0.00061025,0.00077825,-0.00411975,0.0835,0.0785,-0.053375,0.0073395,-0.01206975,-0.01490775,1741898000.995782
-0.01525,0.124125,-0.010875,0.0003815,0.00071725,-0.0048217503,0.077375,0.077,-0.04075,0.009231499,-0.031952,-0.035461497,1741898001.0156858
-0.014,0.121875,-0.011,0.00048825,0.0007325,-0.00511175,0.03475,0.023625,0.0125,0.010024999,-0.04135125,-0.0448455,1741898001.024697
-0.01325,0.119125,-0.012375,0.00181575,0.00131225,-0.0054932497,-0.047,-0.07375,0.09775,0.0253295,-0.05355825,-0.04885875,1741898001.039399
-0.01375,0.117625,-0.015375,0.0027465,0.001526,-0.0054015,-0.218,-0.422125,0.322375,0.035492,-0.0447845,-0.0353545,1741898001.0587158
-0.014,0.118125,-0.015,0.0037079998,0.00177,-0.0047912505,-0.103125,-0.40725,0.255,0.009079001,0.00741575,0.00419625,1741898001.074431
-0.012875,0.119,-0.011625,0.003296,0.001648,-0.00440975,0.0335,-0.190375,0.091125,-0.0069274995,0.020584,0.005249,1741898001.083404
-0.012,0.1195,-0.009625,0.0014037499,0.00090025004,-0.0038605002,0.01525,-0.134375,0.078875,-0.013351499,0.0239715,0.00276175,1741898001.097994
-0.0105,0.1185,-0.008,0.00059500005,0.00059500005,-0.00367725,-0.01375,-0.127,0.1045,-0.0028074998,0.019226,0.010147001,1741898001.1141162
-0.010125,0.118625,-0.008125,-4.575e-05,0.00036625,-0.0035095,-0.018375,-0.144625,0.1295,0.0018615,0.016693002,0.02224725,1741898001.127131
-0.01025,0.121625,-0.008875,-0.00029,0.00013725001,-0.0032347501,0.005625,-0.1245,0.112625,-0.009674,0.0179595,0.038955748,1741898001.1416728
-0.01,0.12225,-0.010625,0.00016775,0.00019825,-0.00314325,0.041,-0.066375,0.060125,-0.01716625,0.020691,0.03891,1741898001.156229
-0.009625,0.1225,-0.011375,0.00036625,-0.00010675,-0.0027312501,0.05025,-0.03825,0.035375,-0.02111825,0.02288825,0.028946,1741898001.173325
-0.010375,0.1245,-0.011,0.00027475,-0.000412,-0.0025025,0.0725,0.022125,-0.007,-0.019012501,0.0208435,0.021927001,1741898001.18524
-0.011125,0.127,-0.01,0.000412,-0.00090025004,-0.0025634998,0.081375,0.045125,-0.026625,-0.010162249,0.009872501,0.00791925,1741898001.199913
-0.009375,0.125125,-0.008,0.00096125,-0.00083925005,-0.002777,0.09125,0.07525,-0.059875,-0.00428775,0.0022735,0.00054925,1741898001.214452
-0.008,0.121,-0.00775,0.00239575,-9.15e-05,-0.0027312501,0.09,0.08275,-0.060125,0.0054780003,-0.01501475,-0.01849375,1741898001.233453
-0.00875,0.119375,-0.008875,0.00267025,0.00019825,-0.00251775,0.071375,0.073375,-0.030625,0.00842275,-0.02430725,-0.02911375,1741898001.243747
-0.0095,0.121625,-0.008625,0.0019225,0.0,-0.0022277501,0.05475,0.053625,-0.007,0.010528499,-0.03353875,-0.03848275,1741898001.258572
-0.01,0.12525,-0.007,0.0014037499,-0.0002595,-0.0022277501,-0.101375,-0.143875,0.174375,0.017181499,-0.049682498,-0.04837025,1741898001.273879
-0.009875,0.12625,-0.006875,0.00119025,-0.00045775,-0.00231925,-0.215625,-0.358,0.3075,0.028442498,-0.0505675,-0.042282,1741898001.28805
-0.00975,0.12675,-0.006875,0.00184625,-0.0003815,-0.0026854998,-0.174875,-0.444375,0.28875,0.0168305,-0.00839225,-0.00030525,1741898001.302825
-0.008375,0.12325,-0.00625,0.002472,-7.625e-05,-0.00276175,0.02675,-0.221625,0.101,-0.00016775,0.0106355,0.00579825,1741898001.317415
-0.007375,0.121125,-0.0065,0.00289925,0.00035100002,-0.002365,0.031,-0.138,0.07125,-0.010391249,0.0206145,-0.00080875,1741898001.3346539
-0.005875,0.119875,-0.00725,0.0025025,0.00019825,-0.0020295,-0.02075,-0.127375,0.12675,-0.0035704998,0.01876825,0.001068,1741898001.34653
-0.0055,0.120625,-0.00775,0.001114,-0.00061025,-0.00157175,-0.024125,-0.14325,0.13875,0.0047455,0.01525875,0.022171,1741898001.3611038
-0.006625,0.12625,-0.009875,0.00068675,-0.001068,-0.00154125,0.016875,-0.116875,0.10725,-0.0016785001,0.01646425,0.030853251,1741898001.375824
-0.007125,0.127375,-0.01075,0.0014037499,-0.001648,-0.0019989999,0.034,-0.088625,0.084125,-0.016632,0.0234375,0.0315095,1741898001.395041
-0.00625,0.12225,-0.009625,0.002243,-0.001648,-0.00213625,0.05025,-0.037,0.032875,-0.018875,0.02604675,0.026596,1741898001.404935
-0.0055,0.118875,-0.00825,0.0028535,-0.001587,-0.0020752498,0.061,-0.008875,0.0055,-0.0148925,0.022033751,0.01513675,1741898001.419481
-0.00425,0.11525,-0.005625,0.0027465,-0.0016785001,-0.001419,0.08075,0.041375,-0.038125,-0.01133725,0.015915,0.008651749,1741898001.434007
-0.003375,0.114875,-0.005,0.0021819999,-0.0018615,-0.0010375,0.086125,0.061875,-0.050875,-0.0012055,0.00051875,-0.0059510004,1741898001.4486248
-0.002125,0.114125,-0.005,0.00102225,-0.00231925,-0.00030525,0.083,0.073875,-0.045875,0.0038299998,-0.008850001,-0.0148925,1741898001.4631438
-0.001,0.11475,-0.00675,0.0005035,-0.0025787498,0.000122000005,0.075625,0.064375,-0.031875,0.00694275,-0.01908875,-0.02409375,1741898001.4777431
-0.001125,0.115375,-0.00725,-0.00029,-0.0031889998,0.0008545,0.043,0.025625,0.009,0.008285499,-0.038314752,-0.04049675,1741898001.496014
-0.00125,0.11625,-0.006125,-0.00057975,-0.00343325,0.00119025,-0.02625,-0.05575,0.079125,0.00953675,-0.045868002,-0.04618825,1741898001.507076
-0.00125,0.1175,-0.005875,-0.00108325,-0.0035704998,0.0017852499,-0.157375,-0.2345,0.22025,0.028122,-0.043075502,-0.033325247,1741898001.52184
-0.001875,0.119125,-0.005875,-0.0012817499,-0.00354,0.0019989999,-0.146375,-0.41075,0.261,0.025512751,-0.01997375,-0.0097045,1741898001.53882
-0.002125,0.119625,-0.006625,-0.00201425,-0.0034637498,0.0022735,-0.027875,-0.283625,0.155875,-0.0043335,0.021026501,0.00453175,1741898001.554778
-0.0035,0.123125,-0.0095,-0.0025787498,-0.00354,0.0021819999,0.01425,-0.138375,0.092625,-0.008026,0.02548225,0.00051875,1741898001.565978
-0.005,0.12475,-0.00975,-0.00302125,-0.00369275,0.001831,-0.01175,-0.1415,0.125,0.0052642496,0.0209655,0.0106355,1741898001.5804539
-0.007125,0.1235,-0.009,-0.0033875,-0.0037385002,0.00074775,-0.009,-0.143875,0.131,0.0084379995,0.018509,0.0228425,1741898001.5952199
-0.008,0.123,-0.00875,-0.003418,-0.00355525,0.00029,0.0065,-0.1245,0.107875,-0.0053709997,0.020523,0.037506,1741898001.614033
-0.00875,0.1235,-0.008625,-0.0032195,-0.003128,-0.000473,0.039125,-0.061375,0.060125,-0.01605225,0.02462775,0.036987253,1741898001.6247208
-0.00875,0.124,-0.008125,-0.00302125,-0.00289925,-0.0008545,0.04825,-0.03225,0.03825,-0.022171,0.02810675,0.02545175,1741898001.6392589
-0.007875,0.12375,-0.008125,-0.00328075,-0.0026245,-0.001175,0.0575,0.005125,-0.00675,-0.018737748,0.025421249,0.01905825,1741898001.654196
-0.006875,0.127375,-0.0075,-0.0037079998,-0.00270075,-0.00115975,0.06825,0.027625,-0.0295,-0.008545,0.0138702495,0.007965,1741898001.668459
-0.00725,0.13,-0.007,-0.0041044997,-0.00289925,-0.00160225,0.094625,0.069875,-0.06,-0.0025634998,0.006302,0.0008545,1741898001.682935
-0.008125,0.1315,-0.008,-0.003952,-0.0028535,-0.0019685,0.097125,0.0745,-0.059875,0.00372325,-0.00213625,-0.00764475,1741898001.697532
-0.008625,0.132125,-0.009,-0.00354,-0.0026854998,-0.002533,0.074875,0.056875,-0.03875,0.0114440005,-0.02050775,-0.02633675,1741898001.714748
-0.009375,0.136,-0.0125,-0.0036162501,-0.002777,-0.0027465,0.05975,0.04225,-0.02325,0.011673001,-0.02981575,-0.035476748,1741898001.7270012
-0.010875,0.141,-0.01475,-0.0036010002,-0.0034484998,-0.0037385002,0.021625,-0.0045,0.00775,0.0123595,-0.0470275,-0.04721075,1741898001.7416692
-0.015125,0.147375,-0.015375,-0.003006,-0.00369275,-0.0047912505,-0.130125,-0.20925,0.172875,0.017547501,-0.0520325,-0.045578,1741898001.756345
-0.017,0.14825,-0.015,-0.00204475,-0.003662,-0.0059815003,-0.19225,-0.37225,0.276625,0.028854249,-0.03259275,-0.01805125,1741898001.774275
-0.020125,0.1485,-0.0175,0.000412,-0.003128,-0.008606,-0.053875,-0.347125,0.204375,0.01498425,-0.0051880004,0.00225825,1741898001.7859662
-0.020375,0.14825,-0.018125,0.0013885,-0.00292975,-0.00997925,0.012375,-0.224125,0.12025,-0.010589501,0.024047751,0.00897225,1741898001.800443
-0.01925,0.146375,-0.01575,0.00239575,-0.0027160002,-0.0128632495,0.006625,-0.12925,0.092375,-0.009079001,0.023650998,0.008148249,1741898001.815027
-0.013625,0.140125,-0.007875,0.0027312501,-0.0023039998,-0.0142365,-0.017625,-0.145,0.117625,0.001419,0.0206145,0.021576,1741898001.833726
-0.006375,0.1205,-0.011375,0.0081635,-0.0026092501,-0.013336251,-0.00425,-0.12875,0.11425,-0.0016632499,0.0221405,0.031158501,1741898001.8442419
0.054875,-0.16875,0.0935,0.013092,0.001236,-0.0026854998,0.01925,-0.099,0.09475,-0.014785751,0.0263825,0.03804025,1741898001.8589098
0.008375,-0.141875,0.06025,-0.014007499,0.00801075,0.024261499,0.0405,-0.053125,0.05275,-0.0178985,0.027771,0.03508,1741898001.873504
-0.0505,0.227875,-0.05675,-0.029571502,-0.00013725001,0.022232,0.044625,-0.033875,0.0295,-0.017044,0.02731325,0.024658252,1741898001.889132
-0.031375,0.240125,-0.05075,-0.02197275,-0.0056304997,0.0038299998,0.0715,0.024375,-0.01775,-0.01446525,0.0244445,0.018982,1741898001.902614
-0.008625,0.157875,-0.03075,-0.01634225,-0.0024414998,0.00384525,0.08725,0.048375,-0.0355,-0.0105742505,0.019455,0.012771499,1741898001.917254
-0.01275,0.16725,-0.034875,-0.013092,0.00093075,0.0065917503,0.099125,0.067625,-0.060375,0.00070200005,0.0050965,-0.00109875,1741898001.933763
-0.00825,0.16175,-0.03825,-0.0025025,0.0057372497,0.0068207504,0.0895,0.064625,-0.058375,0.006012,-0.003662,-0.00962825,1741898001.946507
0.00575,0.121125,-0.022875,0.00062550005,0.0057220003,0.0057372497,0.077125,0.058875,-0.048,0.00982675,-0.0230255,-0.029251,1741898001.961285
0.00425,0.124875,-0.021875,-0.00225825,0.00187675,0.0045625,0.049875,0.03275,-0.01375,0.00982675,-0.03367625,-0.03872675,1741898001.97588
-0.00625,0.15925,-0.040875,-0.0045777503,-0.00067150005,0.0033875,0.002125,-0.026625,0.02375,0.014618,-0.05355825,-0.047881998,1741898001.9968052
-0.010625,0.173625,-0.05025,-0.00444025,-0.00416575,-0.0013580001,-0.13325,-0.23025,0.183625,0.019867001,-0.058486998,-0.046981752,1741898002.0053399
-0.01025,0.184875,-0.048125,-0.0016785001,-0.004547,-0.00463875,-0.1735,-0.396875,0.265,0.0230865,-0.029022248,-0.01586925,1741898002.020297
-0.007875,0.18075,-0.03925,0.0058135,-0.00279225,-0.011016751,-0.05,-0.331375,0.190125,0.0085755,0.00099175,0.0039825,1741898002.0350761
-0.00525,0.165375,-0.025625,0.008270251,-0.001953,-0.0137635,0.00925,-0.21275,0.1225,-0.013351499,0.026855499,0.007187,1741898002.054272
-0.0025,0.154375,-0.022,0.00842275,-0.0026245,-0.018127501,0.00075,-0.14125,0.114875,-0.009017999,0.026122998,0.0066374997,1741898002.064341
-0.001375,0.13425,-0.01575,0.0078125,-0.00355525,-0.01953125,-0.014875,-0.152,0.13125,0.002533,0.022521999,0.02186575,1741898002.078978
0.033375,0.005875,0.051125,0.01316825,-0.003769,-0.019042999,0.007625,-0.124,0.107125,-0.00148,0.0230865,0.03138725,1741898002.093487
0.062,-0.224,0.12575,0.0117035,0.010589501,0.013290499,0.026375,-0.09525,0.081,-0.0153502505,0.0260315,0.037979253,1741898002.1080582
-0.0495,0.016625,-0.033125,-0.019470248,0.0065917503,0.03067025,0.041625,-0.04925,0.034375,-0.01867675,0.026840251,0.034973253,1741898002.122655
-0.05825,0.2275,-0.079375,-0.040283248,-0.012771499,0.013626001,0.04825,-0.024125,0.01175,-0.0185395,0.024353001,0.02371225,1741898002.1371799
-0.00525,0.197,-0.0485,-0.023650998,-0.00903325,0.0027465,0.07275,0.037,-0.031875,-0.016128499,0.02023325,0.01728825,1741898002.154411
-0.00075,0.160875,-0.046,-0.0066985004,0.001892,0.0058135,0.082875,0.057625,-0.047,-0.0117035,0.01390075,0.010589501,1741898002.166341
-0.01075,0.14975,-0.03425,-0.0033264998,0.00466925,0.009506251,0.08825,0.066,-0.056125,0.0021515,-0.0037385002,-0.00384525,1741898002.180994
-0.008125,0.125375,-0.0215,0.0010375,0.0063477503,0.010162249,0.08325,0.06275,-0.047875,0.0073242504,-0.013443,-0.0124665005,1741898002.195534
-0.007875,0.118625,-0.014625,-0.001007,0.0050355,0.009292499,0.07725,0.059625,-0.037,0.00830075,-0.0312805,-0.0321655,1741898002.214408
-0.012875,0.14625,-0.0315,-0.0041044997,0.0030669998,0.008072,0.04975,0.038375,-0.009125,0.00785825,-0.039672747,-0.04208375,1741898002.224743
-0.01675,0.17575,-0.05425,-0.0059205,-0.000824,0.003128,-0.002875,-0.022,0.029375,0.013031,-0.05514525,-0.052612253,1741898002.2394612
-0.0155,0.208625,-0.074,-0.00381475,-0.00213625,-0.00061025,-0.1925,-0.2925,0.261625,0.020813,-0.05894475,-0.051437248,1741898002.25425
-0.015125,0.211375,-0.07,0.006302,-0.0012970001,-0.00935375,-0.2095,-0.421625,0.312375,0.0210725,-0.015228249,-0.007904,1741898002.2744
-0.01725,0.195,-0.051625,0.012115501,-0.00016775,-0.01358025,-0.01725,-0.275875,0.145,0.00541675,0.01326,0.007843,1741898002.2838578
-0.012875,0.179875,-0.040625,0.01675425,-0.00074775,-0.02041625,0.023625,-0.189125,0.099375,-0.01033025,0.025177,0.0046234997,1741898002.298666
0.00125,0.139,-0.02025,0.0155030005,-0.0023039998,-0.022643998,-0.007375,-0.152875,0.117625,-0.0048674997,0.02262875,0.0070037497,1741898002.313997
0.02675,0.034375,0.0635,0.025085501,0.0029145,-0.016037,-0.02125,-0.162125,0.1295,0.00328075,0.020584,0.02781675,1741898002.3284512
0.00875,-0.261125,0.089,0.021209748,0.012832751,0.00593575,0.0025,-0.12875,0.0965,-0.0012817499,0.02159125,0.03771975,1741898002.3426719
-0.054125,-0.02025,-0.049875,-0.0088805,0.010559,0.028,0.0235,-0.098,0.071,-0.014510999,0.02487175,0.042328,1741898002.357271
-0.05825,0.210875,-0.107375,-0.03869625,-0.013412501,0.0144805005,0.04125,-0.053125,0.031375,-0.018188499,0.025940001,0.0390625,1741898002.3741639
-0.003875,0.202,-0.03275,-0.0202485,-0.009292499,0.00184625,0.049125,-0.0255,0.0135,-0.01956175,0.025787251,0.034362752,1741898002.38642
-0.003125,0.157125,-0.034125,-0.00160225,0.0046539996,0.003769,0.072625,0.036625,-0.0205,-0.01664725,0.0199585,0.0233155,1741898002.400994
-0.024125,0.143875,-0.033375,-0.0005645,0.00662225,0.009201,0.083375,0.06,-0.03525,-0.012267999,0.01408375,0.0170135,1741898002.415766
-0.020875,0.126625,-0.0285,0.00029,0.0068055,0.0100555,0.091375,0.074625,-0.046125,0.0012207499,-0.00245675,0.0020295,1741898002.435482
-0.005125,0.126625,-0.034125,-0.00187675,0.00505075,0.0080567505,0.080125,0.061625,-0.04175,0.0076905,-0.012085,-0.00662225,1741898002.4454248
0.000625,0.155875,-0.048875,-0.0055847503,0.00064075,0.0031889998,0.06575,0.043875,-0.028625,0.01156625,-0.02977,-0.0243225,1741898002.460175
0.00725,0.1995,-0.073375,-0.0041810004,-0.00065625,-0.00013725001,0.053375,0.040125,-0.004,0.01077275,-0.0372925,-0.033966,1741898002.476989
0.00375,0.201375,-0.0725,-0.00102225,-0.001526,-0.003769,0.01775,-0.006125,0.0275,0.01542675,-0.05116275,-0.047973752,1741898002.489462
-0.006875,0.177375,-0.05,0.0072785,-0.00238025,-0.0102845,-0.108375,-0.207875,0.15375,0.01968375,-0.05464175,-0.0472565,1741898002.5043468
-0.007875,0.164125,-0.041125,0.010559,-0.00276175,-0.01310725,-0.146,-0.355,0.23525,0.0229645,-0.03382875,-0.02854925,1741898002.519113
-0.00475,0.1525,-0.032625,0.012039251,-0.0051269997,-0.0178375,-0.08375,-0.3885,0.221125,0.0153655,-0.0054475004,-0.0061950004,1741898002.5353658
0.0045,0.094875,0.05275,0.01171875,-0.00646975,-0.0190735,-0.01725,-0.276,0.157,-0.0065765,0.02955625,0.013137749,1741898002.553851
0.028375,-0.10425,0.144,0.0219575,0.0087585,-0.0017395001,0.013125,-0.140625,0.12425,-0.00991825,0.0306245,0.014389,1741898002.563283
-0.0475,-0.07575,-0.019625,0.00137325,0.011321999,0.02038575,0.00425,-0.135,0.13025,-0.0044707498,0.02189625,0.0255585,1741898002.5777988
-0.049625,0.16925,-0.110125,-0.03866575,-0.01228325,0.01620475,-0.00175,-0.130875,0.100875,-0.0041044997,0.019134501,0.03578175,1741898002.594579
0.000125,0.2245,-0.027625,-0.0234375,-0.01165775,0.002655,0.009,-0.104375,0.075625,-0.018509,0.02247625,0.0464935,1741898002.606977
0.00025,0.1715,-0.013875,0.00270075,0.0064850003,-0.002533,0.032625,-0.05125,0.03725,-0.0257415,0.02474975,0.04489125,1741898002.621652
-0.0165,0.136625,-0.03,0.00334175,0.009658749,0.0032655,0.04325,-0.028875,0.022375,-0.02819825,0.024993999,0.0348815,1741898002.63596
-0.0125,0.13575,-0.038125,0.001587,0.0091705,0.0072937496,0.065875,0.03275,-0.013375,-0.024643,0.02313225,0.02838125,1741898002.655225
-0.006625,0.13225,-0.044,-0.00343325,0.003296,0.00463875,0.077125,0.06525,-0.033375,-0.0184785,0.01905825,0.02050775,1741898002.665227
-0.00225,0.138,-0.03975,-0.00469975,0.000824,0.0022735,0.08425,0.084625,-0.04625,-0.0003205,0.0032347501,0.0027160002,1741898002.6799219
0.00075,0.148125,-0.044,-0.0013885,-9.15e-05,-0.0007935,0.08,0.085375,-0.043375,0.0072937496,-0.00587475,-0.006546,1741898002.694892
0.00125,0.165125,-0.0585,0.0013885,-0.000473,-0.0025787498,0.072125,0.081,-0.03525,0.013000499,-0.02186575,-0.0264435,1741898002.714559
-0.002125,0.167,-0.05775,0.00546275,-0.0028074998,-0.0067597497,0.054375,0.06025,-0.008125,0.01330575,-0.02948,-0.03718575,1741898002.7237399
-0.006875,0.1575,-0.044125,0.0068969997,-0.00402825,-0.008651749,0.020125,0.003,0.0225,0.01823425,-0.0440215,-0.05137625,1741898002.738343
-0.00475,0.1475,-0.034625,0.00845325,-0.0058287503,-0.0117035,-0.0755,-0.185375,0.109875,0.0221405,-0.0482635,-0.050918497,1741898002.755373
0.0065,0.085875,0.047125,0.00903325,-0.00593575,-0.0128175,-0.087875,-0.26625,0.136875,0.02522275,-0.0405885,-0.038772497,1741898002.768055
0.030125,-0.088625,0.129375,0.014679,-0.000824,-0.010391249,-0.124625,-0.432375,0.254625,0.02360525,-0.021789499,-0.02513125,1741898002.7828639
0.005,-0.201125,0.08975,0.00381475,0.01194775,0.020049999,-0.116875,-0.399125,0.25325,0.00463875,0.024704,0.0115967505,1741898002.797363
-0.06075,0.171875,-0.119375,-0.023254499,0.000763,0.026000999,0.0115,-0.197125,0.142125,-0.0059815003,0.03152475,0.02101125,1741898002.815062
-0.019125,0.22625,-0.073875,-0.02357475,-0.0101775,0.00691225,0.030125,-0.146125,0.122375,-0.012130749,0.03120425,0.030365,1741898002.826686
0.00475,0.155375,0.002625,-0.00930775,-0.00093075,0.00231925,0.007625,-0.118625,0.108875,-0.01062,0.03022775,0.0365905,1741898002.841125
-0.01375,0.141625,-0.015,-0.00061025,0.012039251,0.00640875,0.009125,-0.091375,0.08475,-0.018188499,0.0309295,0.045578,1741898002.855655
-0.020625,0.13575,-0.032875,-0.00169375,0.012191749,0.00941475,0.04225,-0.0155,0.026625,-0.024765,0.0306245,0.04429625,1741898002.87468
-0.013625,0.131875,-0.040375,-0.0069885002,0.00694275,0.0072480002,0.061,0.014,0.002625,-0.0280915,0.02886975,0.038971,1741898002.884665
-0.0135,0.137125,-0.042375,-0.0086975,0.003952,0.00564575,0.074875,0.03325,-0.018125,-0.02186575,0.02130125,0.0218505,1741898002.899246
-0.017375,0.15075,-0.046125,-0.007904,0.002472,0.004593,0.082875,0.0525,-0.047125,-0.014679,0.015304499,0.01339725,1741898002.9153888
-0.02,0.16675,-0.058625,-0.0020752498,0.001709,0.001648,0.0865,0.065375,-0.057,0.00048825,-0.00054925,-0.00305175,1741898002.9283462
-0.02,0.185125,-0.07925,0.00054925,0.00024425,-0.00086975005,0.098,0.111875,-0.056625,0.00665275,-0.0100555,-0.0139770005,1741898002.943033
-0.01725,0.179875,-0.074875,0.0061645,-0.00320425,-0.00596625,0.093375,0.116625,-0.044875,0.01396175,-0.03044125,-0.03970325,1741898002.957782
-0.011625,0.16275,-0.054875,0.009094249,-0.0042572496,-0.0085755,0.03625,0.04225,0.004,0.01617425,-0.040283248,-0.049591,1741898002.979222
-0.008375,0.155375,-0.046625,0.013061499,-0.0055695,-0.013733,-0.028625,-0.053125,0.051875,0.0208435,-0.05581675,-0.054306,1741898002.9872499
-0.0045,0.134375,-0.018375,0.01368725,-0.006256,-0.0158385,-0.127625,-0.272625,0.16425,0.023407,-0.05853275,-0.049606252,1741898003.002157
0.022875,0.019125,0.0745,0.01994325,0.00331125,-0.009903,-0.13525,-0.40125,0.219375,0.0214385,-0.029724,-0.022491502,1741898003.0170019
-0.03475,-0.08275,-0.00075,0.01820375,0.010498,0.0037385002,-0.082625,-0.398,0.223875,0.012252751,0.0022125002,7.625e-05,1741898003.035487
-0.07375,0.09125,-0.0825,-0.00090025004,0.00396725,0.01351925,-0.03075,-0.2745,0.166,-0.00564575,0.03129575,0.02034,1741898003.046154
0.01,0.165125,-0.031375,-0.0217285,-0.012695249,0.006775,0.02025,-0.137,0.12275,-0.0074615004,0.028716998,0.02272025,1741898003.060781
0.0135,0.15025,0.002375,-0.012741,-0.009094249,0.00343325,0.013375,-0.13675,0.121875,-0.00355525,0.022232,0.03556825,1741898003.0754821
-0.0095,0.1485,-0.011875,0.0016632499,0.0051269997,0.00187675,0.007625,-0.101,0.083,-0.0084379995,0.02333075,0.0434875,1741898003.095253
-0.027875,0.135625,-0.034375,0.00279225,0.00712575,0.00331125,0.02425,-0.05525,0.05675,-0.0182495,0.025543248,0.047180247,1741898003.1046772
-0.017,0.125,-0.030375,-0.002121,0.00399775,0.00372325,0.064875,0.016875,0.0135,-0.03096,0.026474,0.038025003,1741898003.119112
-0.006,0.130875,-0.03575,-0.0052337497,0.001526,0.00289925,0.078125,0.038,-0.0075,-0.028686501,0.023925751,0.02946475,1741898003.135835
-0.007,0.143,-0.03975,-0.0047912505,-0.000885,0.00109875,0.0855,0.053875,-0.02725,-0.01440425,0.0125885,0.0129395,1741898003.154828
-0.01375,0.1665,-0.056125,-0.001953,-0.0009765,-0.00051875,0.09225,0.08475,-0.05075,-0.00671375,0.0043639997,0.00463875,1741898003.162994
-0.018875,0.178125,-0.065875,0.00080875,-0.0015105,-0.00270075,0.10075,0.116,-0.055625,0.0052947504,-0.0135955,-0.017578252,1741898003.177675
-0.01875,0.172875,-0.061625,0.0055695,-0.00393675,-0.00791925,0.08825,0.12425,-0.037625,0.01020825,-0.02285775,-0.0313415,1741898003.1958241
-0.014625,0.160875,-0.051875,0.007904,-0.0048065,-0.0104065,0.06625,0.095625,-0.02,0.01857,-0.04060375,-0.0522765,1741898003.206974
-0.010125,0.152375,-0.044375,0.0105742505,-0.006363,-0.01510625,-0.042125,-0.0615,0.065375,0.0214385,-0.047958247,-0.057006747,1741898003.22177
0.002125,0.11675,0.012875,0.010788,-0.007431,-0.01716625,-0.152375,-0.226,0.164,0.02604675,-0.050277747,-0.045807,1741898003.236525
0.03025,-0.022125,0.13125,0.023056,0.009323,-0.008209251,-0.133875,-0.4715,0.260625,0.0224305,-0.03433225,-0.025238002,1741898003.2552938
-0.052375,-0.090375,-0.033,0.017608749,0.018402,0.008072,-0.02875,-0.3735,0.19575,0.003891,0.01620475,0.006012,1741898003.265963
-0.06525,0.12325,-0.124,-0.028411752,-0.0064545004,0.01737975,-0.01275,-0.192375,0.1005,-0.00064075,0.027740499,0.008377,1741898003.280515
0.02625,0.1825,-0.032,-0.025528,-0.011825499,0.009674,-0.0215,-0.1605,0.109,0.0012817499,0.0254975,0.01216125,1741898003.2950258
0.013,0.161375,0.003875,-0.0028535,0.00119025,0.002411,-0.003625,-0.15825,0.121375,0.00514225,0.019989,0.02050775,1741898003.315808
-0.0235,0.150125,-0.026375,0.0027312501,0.0076599997,0.00254825,0.005875,-0.149,0.104625,0.0047150003,0.01670825,0.03211975,1741898003.324113
-0.014625,0.127,-0.03225,0.0042115003,0.009887749,0.00419625,0.017625,-0.120375,0.0835,-0.0137635,0.01953125,0.045776248,1741898003.33866
-0.000875,0.116,-0.031875,-0.0026245,0.0047455,0.00708,0.051375,-0.034125,0.04425,-0.0229645,0.02224725,0.04444875,1741898003.3551512
0.0025,0.12175,-0.03475,-0.0064239996,0.0013427499,0.006775,0.068125,0.00525,0.025,-0.026245002,0.021606501,0.032074,1741898003.374517
-0.0035,0.12625,-0.03025,-0.0048217503,-0.00030525,0.00541675,0.089,0.055,-0.017125,-0.0222625,0.017852752,0.023697,1741898003.382367
-0.015875,0.12275,-0.02325,-0.001709,0.00093075,0.0045165,0.091125,0.0655,-0.033125,-0.00868225,0.003418,0.00708,1741898003.396999
-0.021125,0.12775,-0.029,-7.625e-05,0.0014495,0.0037079998,0.09275,0.08775,-0.038875,-0.002411,-0.0050202496,-0.001587,1741898003.4180832
-0.023375,0.13925,-0.04175,-0.00096125,0.0004425,0.0034637498,0.092375,0.103125,-0.031875,0.005005,-0.02088925,-0.024475,1741898003.426326
-0.020375,0.142875,-0.044375,-0.001526,-0.0012207499,0.0021057501,0.06925,0.08625,-0.0055,0.008651749,-0.0289765,-0.036849998,1741898003.440966
-0.02175,0.161375,-0.053625,-0.0002595,-0.0015565,0.00030525,0.031875,0.034375,0.0215,0.019195499,-0.043624748,-0.05140675,1741898003.458615
-0.02575,0.16975,-0.05925,0.00201425,-0.00175475,-0.00239575,-0.075625,-0.146875,0.092875,0.02456675,-0.04667675,-0.050293,1741898003.470315
-0.028375,0.171875,-0.060875,0.0075377496,-0.0023497501,-0.00862125,-0.124125,-0.2685,0.14325,0.02940375,-0.0370025,-0.034729,1741898003.485056
-0.0205,0.155875,-0.04625,0.009582501,-0.00276175,-0.0111085,-0.119375,-0.4345,0.248875,0.022949249,-0.0173645,-0.01814275,1741898003.500024
-0.012625,0.14475,-0.035875,0.010437001,-0.00381475,-0.014495751,-0.05,-0.34075,0.189125,0.00296025,0.024414,0.0088195,1741898003.514658
0.00975,0.0935,0.00175,0.00962825,-0.004547,-0.015518251,-0.008,-0.1785,0.105125,-0.00251775,0.029129,0.012680001,1741898003.5349278
0.03525,-0.03675,0.08075,0.01266475,0.0023039998,-0.00251775,-0.00875,-0.154625,0.112375,-0.0038757501,0.027404752,0.015686,1741898003.5441191
-0.0235,-0.090875,0.0195,0.0049742498,0.0075377496,0.0143737495,-0.00575,-0.15525,0.11325,0.00193775,0.0193635,0.030853251,1741898003.5588858
-0.043375,0.104,-0.08225,-0.0291595,-0.006775,0.01829525,0.0055,-0.130625,0.092125,-0.0012207499,0.01829525,0.040969748,1741898003.5748749
-0.003375,0.204375,-0.03575,-0.02230825,-0.009887749,0.008285499,0.02575,-0.084875,0.067875,-0.0220795,0.02313225,0.04841625,1741898003.588455
0.00025,0.15875,-0.01525,-0.0075835,-0.0040435,0.00190725,0.0635,0.003375,0.027,-0.0292815,0.02487175,0.04467775,1741898003.6025531
-0.012875,0.14125,-0.0215,0.00143425,0.00637825,0.005783,0.07525,0.028125,0.00975,-0.02832025,0.02256775,0.0286255,1741898003.617051
-0.022375,0.145875,-0.026375,0.000122000005,0.0067902496,0.0089875,0.096,0.064,-0.02725,-0.023376498,0.018158002,0.01849375,1741898003.634938
-0.013125,0.133,-0.0295,-0.0034790002,0.00364675,0.00773625,0.101625,0.081125,-0.038375,-0.00830075,0.0034484998,-0.00042725,1741898003.646272
-0.013125,0.133125,-0.037125,-0.0054780003,0.0012665,0.0063477503,0.108375,0.118625,-0.0385,0.00065625,-0.0057525,-0.0111085,1741898003.660884
-0.02025,0.14625,-0.042125,-0.0038299998,-0.00068675,0.00334175,0.09625,0.106875,-0.026375,0.01560975,-0.02513125,-0.034652747,1741898003.6756191
-0.02775,0.16075,-0.054125,-0.0009155,-0.000534,0.00131225,0.0355,0.02225,0.0135,0.0206605,-0.03353875,-0.04293825,1741898003.6943092
-0.025875,0.157375,-0.053875,0.0033264998,-0.00083925005,-0.0025634998,-0.016125,-0.053125,0.048125,0.02572625,-0.0454255,-0.047989,1741898003.704882
-0.019,0.14625,-0.044875,0.00437925,-0.0012817499,-0.004013,-0.090625,-0.200875,0.13175,0.02687075,-0.047530998,-0.04502875,1741898003.719815
-0.01875,0.14775,-0.044625,0.0049590003,-0.0018005001,-0.0055085,-0.10825,-0.306625,0.1795,0.028991751,-0.034423754,-0.026550248,1741898003.73492
-0.019375,0.150625,-0.046125,0.0058135,-0.00320425,-0.0094604995,-0.093375,-0.401375,0.180625,0.019012501,-0.0161895,-0.0075072497,1741898003.755738
-0.016,0.143625,-0.040875,0.0063934997,-0.00384525,-0.011627249,-0.031,-0.279,0.13375,-0.010101249,0.0141755,0.014618,1741898003.7640908
-0.0135,0.138125,-0.034375,0.0076599997,-0.00437925,-0.015075751,0.01225,-0.119375,0.102,-0.013778751,0.01661675,0.0134735005,1741898003.7791
0.021375,0.01075,0.057125,0.0080567505,-0.003418,-0.015152001,0.00325,-0.125625,0.109625,-0.009017999,0.013854999,0.013290499,1741898003.794841
0.032125,-0.14625,0.10475,0.0050202496,0.007553,0.008407501,-0.004875,-0.148,0.1135,-0.0016175,0.011016751,0.025848499,1741898003.8077781
-0.06375,0.097,-0.062625,-0.00947575,0.0048674997,0.018737748,0.010125,-0.13075,0.0955,-0.00715625,0.01361075,0.032852247,1741898003.822382
-0.042125,0.199375,-0.099125,-0.02041625,-0.0067597497,0.005539,0.027375,-0.099125,0.07875,-0.024292,0.0215455,0.035461497,1741898003.837076
0.004875,0.151,-0.0165,-0.009506251,-0.0043182503,0.001007,0.053,-0.05025,0.048375,-0.02876275,0.02415475,0.032897998,1741898003.854815
-0.010625,0.142,-0.014125,-0.00146475,0.0016175,0.00071725,0.06425,-0.024875,0.032,-0.0272065,0.02278125,0.026122998,1741898003.8659809
-0.025,0.145625,-0.0225,6.1000002e-05,0.00773625,0.0052185003,0.087125,0.034625,-0.002375,-0.0229035,0.0185395,0.02142325,1741898003.880707
-0.017125,0.134625,-0.0245,-0.001709,0.0072480002,0.0057525,0.094875,0.051875,-0.0145,-0.009643501,0.0049895,0.008209251,1741898003.89566
-0.01125,0.131,-0.03025,-0.006302,0.0035704998,0.0027312501,0.0965,0.050625,-0.022375,-0.00331125,-0.00263975,0.00057975,1741898003.910228
-0.012625,0.139,-0.036625,-0.0066374997,0.0022277501,0.0013885,0.096,0.05175,-0.022125,0.00279225,-0.01667775,-0.016159,1741898003.924584
-0.013125,0.14075,-0.037625,-0.00201425,0.00302125,-0.001114,0.09125,0.07225,-0.00925,0.004486,-0.0229645,-0.025543248,1741898003.939189
-0.0165,0.149,-0.046,9.15e-05,0.0033722501,-0.0025940002,0.06525,0.05325,0.013125,0.01266475,-0.03367625,-0.041961752,1741898003.958549
-0.01875,0.15325,-0.04975,0.0020905002,0.0023345,-0.00555425,-0.047375,-0.08625,0.09225,0.01899725,-0.03692625,-0.043151747,1741898003.96836
-0.0205,0.151625,-0.052625,0.003006,0.0015565,-0.0070495,-0.08125,-0.147,0.117,0.02436825,-0.037048247,-0.0395965,1741898003.9830558
-0.019125,0.1475,-0.05225,0.00416575,0.000885,-0.008636501,-0.12425,-0.378375,0.225,0.02864075,-0.03123475,-0.02876275,1741898003.997893
-0.01675,0.14525,-0.05075,0.006546,-0.000534,-0.01194775,-0.094375,-0.39625,0.226,0.021698,-0.020324752,-0.014495751,1741898004.0157619
-0.007125,0.1375,-0.042125,0.00741575,-0.001419,-0.013488751,-0.020875,-0.287875,0.168,-0.001831,0.01086425,0.010391249,1741898004.035059
-0.003375,0.13175,-0.03525,0.0077210004,-0.00328075,-0.015625,0.034375,-0.124125,0.09175,-0.008377,0.018035999,0.010803251,1741898004.041949
0.034125,-0.044875,0.110375,0.0084379995,-0.0007325,-0.013564999,0.015,-0.111375,0.101125,-0.0036162501,0.01753225,0.012680001,1741898004.056688
0.017875,-0.1445,0.09525,0.002533,0.012436,0.011886501,-0.006,-0.125125,0.110625,1.5250001e-05,0.0158385,0.01823425,1741898004.074657
-0.05775,0.159125,-0.11325,-0.014862,0.004013,0.017746,0.003625,-0.11525,0.09975,-0.0052642496,0.016540501,0.028747499,1741898004.0860958
-0.02,0.196125,-0.09625,-0.01867675,-0.008072,0.0048217503,0.0315,-0.080875,0.071625,-0.010559,0.01890575,0.0298005,1741898004.101017
-0.0005,0.142125,-0.006,-0.00747675,-0.0031889998,0.0017242499,0.03875,-0.07075,0.060625,-0.01589975,0.02256775,0.02598575,1741898004.115312
-0.020125,0.14375,-0.016875,-0.000229,0.0034637498,0.0012207499,0.04925,-0.0475,0.0435,-0.0155030005,0.0220795,0.02330025,1741898004.134702
-0.02,0.13675,-0.03575,0.00160225,0.008316,0.0035704998,0.05625,-0.02775,0.03575,-0.011886501,0.01756275,0.01741025,1741898004.1444101
-0.009125,0.13575,-0.041,-0.0012665,0.00640875,0.0042725,0.08325,0.037,0.004375,-0.0094604995,0.0143737495,0.012619001,1741898004.159113
-0.00525,0.140375,-0.045875,-0.0077972496,-3.0500001e-05,0.0028229998,0.09775,0.06825,-0.016625,-0.001587,0.0034942501,-0.00325,1741898004.174381
-0.01,0.154375,-0.047625,-0.0069580004,-0.00146475,0.00149525,0.089875,0.06625,-0.02825,0.0041044997,-0.0046539996,-0.0129395,1741898004.194409
-0.012,0.154625,-0.04875,0.0012817499,-0.0004425,-0.00270075,0.06125,0.027625,-0.0165,0.012130749,-0.01976025,-0.02619925,1741898004.2060318
-0.018875,0.159125,-0.054625,0.00444025,-0.0005645,-0.0050202496,0.04725,0.031375,-0.005,0.0106355,-0.02507025,-0.0317535,1741898004.220787
-0.0195,0.156625,-0.053125,0.0068512503,-0.0026245,-0.00842275,0.055375,0.05575,0.0025,0.0056609996,-0.03636175,-0.051422,1741898004.2354429
-0.012375,0.141125,-0.043625,0.0069274995,-0.00378425,-0.009384249,-0.04925,-0.07575,0.115875,0.008850001,-0.04252625,-0.05773925,1741898004.254922
-0.00875,0.136875,-0.039875,0.0064850003,-0.00590525,-0.0114135,-0.16025,-0.25725,0.238375,0.02908325,-0.042785753,-0.0427705,1741898004.265388
-0.0025,0.129875,-0.03325,0.0066985004,-0.006607,-0.012542751,-0.116875,-0.4195,0.24225,0.02693175,-0.024078252,-0.01982125,1741898004.280082
0.00875,0.09175,0.018125,0.0073395,-0.0068665,-0.01339725,-0.022,-0.3075,0.157125,0.0016632499,0.015304499,0.00177,1741898004.2947829
0.02875,-0.035125,0.113125,0.015518251,0.00688175,-0.00254825,0.005875,-0.154875,0.076,-0.00541675,0.0222015,0.00096125,1741898004.314573
-0.033125,-0.055125,-0.021625,0.0079345,0.012085,0.01330575,-0.009125,-0.13275,0.092875,-0.0025634998,0.0233155,0.0039825,1741898004.323991
-0.044375,0.13325,-0.1075,-0.026062,-0.0070342496,0.01779175,-0.023625,-0.150625,0.125125,0.0038605002,0.021408001,0.0125275,1741898004.338485
0.007375,0.17275,-0.024625,-0.02091975,-0.010009751,0.009582501,-0.01575,-0.153625,0.114375,0.0034942501,0.019134501,0.032547,1741898004.3543758
-0.0005,0.147875,-0.00475,-0.00148,0.0026092501,0.0052337497,0.021875,-0.11225,0.078125,-0.004074,0.020813,0.03683475,1741898004.367742
-0.03175,0.15075,-0.036875,0.0012665,0.006775,0.00646975,0.032875,-0.090125,0.067125,-0.01200875,0.0239105,0.036987253,1741898004.3823109
-0.026125,0.144875,-0.043125,-0.001236,0.0054475004,0.007904,0.042625,-0.0565,0.0465,-0.019577,0.02934275,0.03237925,1741898004.397065
-0.01375,0.14875,-0.04875,-0.0046845004,0.0023345,0.00637825,0.04625,-0.0415,0.0365,-0.018920999,0.029754749,0.029831,1741898004.416219
-0.01575,0.15825,-0.050625,-0.0065612504,-0.00016775,0.0042572496,0.04975,-0.027125,0.028,-0.013839751,0.025833251,0.022995,1741898004.4264278
-0.01725,0.16625,-0.05275,-0.0012055,-0.0003205,-0.0008545,0.05775,-0.0005,0.0175,-0.0105742505,0.022232,0.018875,1741898004.440992
-0.021375,0.172625,-0.059375,0.0028535,0.000229,-0.00402825,0.06275,0.007375,0.0155,-0.00334175,0.013549751,0.009521499,1741898004.4587798
-0.02325,0.170125,-0.0585,0.00770575,-0.00070200005,-0.0095672505,0.0715,0.01325,0.011125,-0.0003205,0.0088805,0.0042572496,1741898004.4697878
-0.01725,0.153125,-0.048,0.00883475,-0.001587,-0.01145925,0.07175,0.009875,0.009125,0.0042725,-0.0008545,-0.007187,1741898004.4844391
-0.0115,0.146,-0.044125,0.00941475,-0.0035704998,-0.01454175,0.06,-0.00525,0.0065,0.0062407497,-0.0058135,-0.0126495,1741898004.499087
-0.001625,0.133625,-0.033375,0.00924675,-0.0047150003,-0.01582325,0.053875,-0.00275,0.001625,0.0104674995,-0.01617425,-0.02297975,1741898004.5145879
0.008625,0.097375,0.0115,0.011673001,-0.0031585,-0.0154725,0.04625,0.012625,-0.015375,0.01358025,-0.022369498,-0.028854249,1741898004.53455
0.017,-0.14625,0.1095,0.016998248,0.0063477503,-0.0068207504,0.04025,0.012125,-0.01575,0.02015675,-0.036209,-0.04158025,1741898004.54321
-0.029125,-0.07325,-0.003,0.011245751,0.012741,0.0089875,0.01125,-0.031625,0.00875,0.020874001,-0.042358503,-0.0470885,1741898004.557782
-0.04425,0.114625,-0.100625,-0.023407,-0.004486,0.0153502505,-0.020375,-0.08325,0.04125,0.016388,-0.050949,-0.051178,1741898004.57481
0.003,0.189875,-0.03425,-0.019622749,-0.009140001,0.0062865,-0.15875,-0.34225,0.26025,0.0150605,-0.052429248,-0.047973752,1741898004.587399
0.000625,0.15575,-0.003,0.0020905002,0.0031585,0.00016775,-0.133125,-0.4365,0.282625,0.011612001,-0.042648252,-0.031158501,1741898004.602009
-0.01925,0.1275,-0.02075,0.0049285004,0.008270251,0.00242625,-0.01625,-0.2965,0.1755,-0.012313751,0.00596625,0.010147001,1741898004.6167219
-0.01525,0.124,-0.02675,0.000229,0.008072,0.0062865,0.01625,-0.18275,0.126625,-0.02000425,0.019622749,0.01452625,1741898004.6347892
-0.007,0.136375,-0.041875,-0.00381475,0.005249,0.00538625,0.028375,-0.108375,0.103,-0.01033025,0.01914975,0.0114135,1741898004.6461089
-0.011125,0.1485,-0.04775,-0.00646975,0.00108325,0.00270075,0.007875,-0.10625,0.107,0.000412,0.01496875,0.014145001,1741898004.660514
-0.015625,0.159125,-0.052,-0.0034942501,0.0012055,0.0009155,-0.005375,-0.114375,0.10975,0.0084379995,0.014221249,0.02886975,1741898004.675089
-0.0185,0.162,-0.0565,0.0002135,0.0016785001,-0.001526,-0.0,-0.110625,0.095375,0.0033875,0.016876249,0.033889752,1741898004.694648
-0.021125,0.16275,-0.059375,0.0049895,0.00019825,-0.00712575,0.015125,-0.098875,0.079875,-0.01210025,0.0248565,0.03506475,1741898004.70431
-0.0145,0.151,-0.0525,0.0062865,-0.00109875,-0.009155249,0.02775,-0.079375,0.058625,-0.01794425,0.028564502,0.0330505,1741898004.718923
-0.007,0.144875,-0.046875,0.0072937496,-0.0035704998,-0.01177975,0.0295,-0.06875,0.050125,-0.022171,0.031356752,0.028427,1741898004.735803
0.005875,0.13375,-0.03675,0.007187,-0.00494375,-0.012802,0.039,-0.03775,0.02725,-0.020691,0.03005975,0.02592475,1741898004.7480571
0.017,0.0885,0.019625,0.009445249,-0.00378425,-0.01156625,0.045375,-0.02025,0.0135,-0.012680001,0.02301025,0.0190735,1741898004.762607
0.014,-0.1455,0.10225,0.01431275,0.0057220003,-0.0021057501,0.060375,0.016625,-0.019625,-0.007599,0.0177155,0.014297499,1741898004.777181
-0.0345,-0.054375,-0.0125,-0.013733,0.0038757501,0.02244575,0.066875,0.0315,-0.03625,0.0020295,0.00444025,0.0021819999,1741898004.794703
-0.0155,0.20025,-0.087125,-0.0266875,-0.00691225,0.0179595,0.075375,0.049125,-0.053875,0.00764475,-0.0032655,-0.0044707498,1741898004.8062139
0.005625,0.181875,-0.025375,-0.021408001,-0.01013175,0.0093995,0.068875,0.041625,-0.048625,0.01345825,-0.0114440005,-0.01136775,1741898004.820776
-0.00075,0.157,-0.00575,0.00036625,0.00367725,0.0031585,0.056625,0.022625,-0.039125,0.0184785,-0.028411752,-0.02474975,1741898004.835465
-0.02475,0.144,-0.028125,0.0031889998,0.008209251,0.00494375,0.043625,-0.0065,-0.00975,0.015228249,-0.036743253,-0.03170775,1741898004.855844
-0.018875,0.13975,-0.031125,-0.00071725,0.0072937496,0.0077210004,0.022875,-0.04,0.033,0.0066985004,-0.05216975,-0.044098,1741898004.864876
-0.010125,0.145375,-0.046375,-0.0045165,0.00440975,0.00640875,-0.053375,-0.183875,0.15575,0.0077515002,-0.0558015,-0.044067502,1741898004.87957
-0.01525,0.16125,-0.056125,-0.0069580004,-0.00039675,0.0026245,-0.070875,-0.277625,0.19325,0.017151,-0.0423125,-0.029068,1741898004.897088
-0.0145,0.170125,-0.062875,-0.0034790002,-0.00064075,-6.1000002e-05,-0.08975,-0.428,0.254375,0.015594499,-0.02449025,-0.01412975,1741898004.90942
-0.01325,0.168625,-0.06625,0.0045165,-0.001236,-0.00637825,-0.07325,-0.334375,0.251875,-0.00340275,0.02297975,0.015747,1741898004.924096
-0.009875,0.165375,-0.067,0.0065612504,-0.00314325,-0.009079001,0.029875,-0.127375,0.14675,-0.00889575,0.03211975,0.0197295,1741898004.938702
-0.00575,0.15775,-0.06,0.0075225,-0.0056,-0.0109709995,0.034875,-0.1095,0.12075,-0.004547,0.02879325,0.024582,1741898004.959358
-0.00225,0.150375,-0.051625,0.0080415,-0.010009751,-0.013336251,0.004125,-0.104125,0.1005,-0.0047150003,0.02775575,0.029892,1741898004.968108
0.00075,0.1355,-0.0345,0.008499251,-0.0114744995,-0.01452625,0.0065,-0.0805,0.085,-0.016113251,0.03005975,0.036209,1741898004.982774
0.0185,0.052875,0.05775,0.012695249,-0.0067445002,-0.01095575,0.037125,-0.032125,0.043125,-0.02183525,0.03053275,0.034317,1741898004.997308
-0.006375,-0.192,0.110125,0.014938249,0.00564575,0.00325,0.048625,-0.01675,0.021125,-0.024108998,0.02796925,0.023834249,1741898005.015459
-0.066625,-0.008125,-0.047,-0.0222625,-0.00157175,0.02572625,0.058375,0.008,-0.0185,-0.02088925,0.0245515,0.017654499,1741898005.026431
-0.01325,0.226625,-0.096125,-0.03038025,-0.012146,0.015564,0.065875,0.026125,-0.037,-0.015579251,0.01950075,0.01150525,1741898005.041007
0.006,0.189375,-0.01975,-0.002121,-0.0034942501,0.000229,0.0815,0.062375,-0.0635,-0.00137325,0.00463875,-0.0022125002,1741898005.0556622
-0.027125,0.159125,-0.015125,0.0073547503,0.0057525,-0.00064075,0.07975,0.06325,-0.061875,0.00631725,-0.0046845004,-0.01019275,1741898005.075503
-0.032,0.1485,-0.031,0.009155249,0.010162249,0.00112925,0.071625,0.051875,-0.05175,0.0134735005,-0.0237275,-0.026474,1741898005.0849102
-0.023375,0.142,-0.036875,0.00027475,0.00646975,0.0040435,0.06025,0.039375,-0.029875,0.011795,-0.032486,-0.0343475,1741898005.099479
-0.008625,0.145,-0.043,-0.0045165,0.00314325,0.0025025,0.04075,0.015625,-0.002875,0.009002751,-0.049469,-0.048278753,1741898005.115168
-0.008625,0.152,-0.044625,-0.0038605002,0.00074775,-0.0014495,-0.061125,-0.13575,0.125375,0.01095575,-0.056152247,-0.05001825,1741898005.135575
-0.008875,0.14975,-0.046,0.00048825,0.00148,-0.0035704998,-0.12,-0.266375,0.219875,0.021988,-0.0509795,-0.03837575,1741898005.1436439
-0.012125,0.15025,-0.049875,0.00587475,0.00090025004,-0.00785825,-0.101875,-0.460125,0.264125,0.020462,-0.028305,-0.02034,1741898005.158423
-0.01475,0.14775,-0.0495,0.0061950004,-0.00065625,-0.009277251,-0.055,-0.35825,0.231625,0.00062550005,0.02371225,0.01062,1741898005.175515
-0.011375,0.142,-0.045,0.006012,-0.00352475,-0.010314999,0.029,-0.1385,0.13275,-0.003891,0.032516498,0.0138855,1741898005.187729
-0.0025,0.1325,-0.039,0.00617975,-0.00460825,-0.01095575,0.0245,-0.118625,0.116625,0.001175,0.029022248,0.0187835,1741898005.202235
0.000625,0.12825,-0.0335,0.00662225,-0.005539,-0.011886501,-0.008875,-0.12325,0.10975,0.0019989999,0.026977502,0.0258025,1741898005.2168388
0.03175,-0.084125,0.123375,0.013092,-9.15e-05,-0.00918575,-0.00675,-0.107625,0.093875,-0.009079001,0.027435249,0.037552,1741898005.2350452
-0.0005,-0.138875,0.061125,0.017028749,0.01019275,0.0023039998,0.026,-0.0605,0.048,-0.01628125,0.02807625,0.03816225,1741898005.246328
-0.0485,0.0115,-0.059,-0.017608749,-0.00062550005,0.0222625,0.038625,-0.042375,0.02675,-0.02360525,0.02760325,0.03038025,1741898005.261065
-0.00775,0.196375,-0.060125,-0.026291,-0.010376001,0.01510625,0.062,0.000625,-0.013875,-0.022812,0.02557375,0.024810748,1741898005.27573
0.0105,0.168,-0.007375,-0.0054015,-0.00148,0.0046845004,0.07425,0.026875,-0.03375,-0.01924125,0.02159125,0.018814,1741898005.294529
-0.019625,0.146875,-0.0235,0.00160225,0.00585925,0.0041044997,0.0825,0.045875,-0.048875,-0.00517275,0.00747675,0.0055085,1741898005.3048131
-0.02425,0.140125,-0.034375,0.001419,0.008072,0.006775,0.08275,0.05925,-0.05525,0.00270075,-0.00137325,-0.00146475,1741898005.319417
-0.013875,0.142875,-0.041625,-0.00160225,0.00567625,0.0065155,0.077625,0.0575,-0.047,0.009216251,-0.021026501,-0.01800525,1741898005.334542
-0.016625,0.150375,-0.044125,-0.0045165,0.0029907501,0.0050812503,0.068,0.050125,-0.027875,0.0075377496,-0.03082275,-0.02693175,1741898005.3488572
-0.019375,0.15775,-0.045375,-0.00396725,0.00071725,0.00163275,0.056375,0.03775,-0.010125,0.006668,-0.048584,-0.0432435,1741898005.363311
-0.016625,0.157375,-0.052125,-0.00074775,0.00105275,-0.00064075,-0.039875,-0.09325,0.10425,0.01013175,-0.05558775,-0.04685975,1741898005.3785
-0.019125,0.162875,-0.062,0.003296,-0.0007325,-0.00617975,-0.12375,-0.239,0.213,0.02398675,-0.05216975,-0.0365905,1741898005.396877
-0.02075,0.174,-0.07275,0.00396725,-0.0030669998,-0.00874325,-0.1055,-0.456,0.269125,0.02091975,-0.030655,-0.0188445,1741898005.407816
-0.016125,0.170625,-0.067625,0.00564575,-0.0075225,-0.013061499,-0.041,-0.34475,0.2285,-0.0013885,0.020599252,0.008941749,1741898005.422413
-0.002125,0.1525,-0.049375,0.0068512503,-0.0091095,-0.015213001,0.017875,-0.135375,0.131125,-0.00517275,0.03125,0.010376001,1741898005.4385128
0.002375,0.14125,-0.037,0.009155249,-0.01098625,-0.01864625,0.012125,-0.1205,0.117625,0.0016175,0.0296325,0.014038,1741898005.4548118
0.033375,-0.13975,0.172375,0.0154725,-0.00358575,-0.01445,-0.00125,-0.11975,0.1135,0.004013,0.0272675,0.02114875,1741898005.466281
-0.0175,-0.185125,0.084875,0.0019989999,0.011550999,0.01763925,0.004625,-0.10525,0.09825,-0.00535575,0.026291,0.034179747,1741898005.480831
-0.0445,0.194375,-0.138,-0.02339175,-0.001175,0.02224725,0.032625,-0.067375,0.0555,-0.013031,0.0263215,0.0355835,1741898005.495369
0.00775,0.22225,-0.088875,-0.030639749,-0.012039251,0.0123595,0.040875,-0.054375,0.036125,-0.01876825,0.0262145,0.0332185,1741898005.5146198
0.02175,0.187375,-0.0155,-0.0025634998,-0.0038299998,-0.0013580001,0.04575,-0.042375,0.017375,-0.021453751,0.023758,0.023834249,1741898005.524412
-0.02375,0.161125,-0.0055,0.0063934997,0.00538625,-0.002533,0.06275,-0.000875,-0.016625,-0.0187225,0.02026375,0.019195499,1741898005.5391512
-0.02225,0.13275,-0.01775,0.00611875,0.01077275,0.00062550005,0.07625,0.026,-0.031375,-0.0075072497,0.00794975,0.008361749,1741898005.554817
-0.0005,0.11975,-0.02575,0.0013427499,0.008270251,0.0020905002,0.093125,0.061625,-0.0475,-0.000763,-0.00019825,0.001587,1741898005.574403
-0.00125,0.1295,-0.03025,-0.0046234997,0.0034790002,0.00108325,0.089625,0.060875,-0.041,0.00785825,-0.01800525,-0.0138702495,1741898005.583124
-0.006375,0.1455,-0.03725,-0.00334175,0.00305175,0.00029,0.06675,0.033625,-0.013375,0.0081635,-0.026764,-0.021362249,1741898005.597825
-0.004875,0.146875,-0.042125,0.002533,0.00396725,-0.00242625,0.064875,0.034,-0.004125,0.0060272496,-0.042099,-0.036316004,1741898005.613557
-0.0055,0.158125,-0.062125,0.0040435,0.00317375,-0.0042115003,0.025875,-0.002,0.04725,0.00694275,-0.048782248,-0.043899503,1741898005.627017
-0.007625,0.162125,-0.069375,0.004486,0.00125125,-0.00593575,-0.033875,-0.082,0.10075,0.01766975,-0.05451975,-0.0452575,1741898005.641709
-0.009625,0.16225,-0.071,0.0049590003,-0.00396725,-0.0091705,-0.16225,-0.36925,0.2685,0.0271455,-0.0489045,-0.03701775,1741898005.6564212
-0.004875,0.15125,-0.06025,0.0057372497,-0.0063477503,-0.01115425,-0.14325,-0.4555,0.256625,0.011550999,-0.0088805,-0.0055695,1741898005.675322
0.0,0.143625,-0.05075,0.00817875,-0.009658749,-0.01504525,-0.00325,-0.23,0.1415,-0.00328075,0.014495751,0.0049742498,1741898005.685982
0.032125,-0.048875,0.153625,0.01289375,-0.0062255003,-0.013839751,0.02175,-0.1435,0.108,-0.00715625,0.030181998,0.0056609996,1741898005.700944
0.005875,-0.185125,0.1325,0.012634249,0.01542675,0.012985251,-0.01,-0.13325,0.1265,-0.00177,0.02769475,0.00823975,1741898005.7153559
-0.064625,0.15,-0.129625,-0.014800999,0.00434875,0.024643,-0.021625,-0.1445,0.12925,0.0026245,0.023117,0.0271455,1741898005.734795
-0.012125,0.22175,-0.107375,-0.026275748,-0.014510999,0.0089875,0.0045,-0.1165,0.088625,-0.00184625,0.022643998,0.035705503,1741898005.744707
0.009375,0.177,0.009125,-0.010086001,-0.0075835,0.00305175,0.025,-0.090375,0.0675,-0.0086975,0.023117,0.03945925,1741898005.7594519
-0.01675,0.167625,0.002,0.0017852499,0.0023345,0.00033575002,0.03775,-0.067375,0.05275,-0.02038575,0.026092501,0.035659753,1741898005.7753532
-0.02275,0.139375,-0.01525,0.0052795,0.010391249,0.0022735,0.0565,-0.01225,0.021125,-0.022338752,0.0274505,0.03179925,1741898005.794639
-0.00025,0.119625,-0.025125,0.0009765,0.008224499,0.00491325,0.067875,0.02175,-0.00225,-0.01734925,0.022949249,0.01985175,1741898005.8028438
0.001125,0.128125,-0.027375,-0.00637825,0.00267025,0.0045012496,0.073625,0.041375,-0.039375,-0.011856,0.0158385,0.01206975,1741898005.817469
-0.007625,0.145375,-0.035625,-0.006073,0.0018005001,0.0034637498,0.073875,0.042625,-0.046625,-0.00045775,-0.001953,-0.00187675,1741898005.835168
-0.0085,0.153,-0.044375,-0.00030525,0.00267025,0.00054925,0.084625,0.0795,-0.035,0.003952,-0.010376001,-0.01048275,1741898005.846729
-0.00625,0.164625,-0.0625,0.001953,0.00231925,-0.00163275,0.082,0.0805,-0.020875,0.0101775,-0.027130252,-0.03096,1741898005.861403
-0.00575,0.166625,-0.066625,0.0032655,0.00108325,-0.003769,0.0455,0.02725,0.008125,0.012847999,-0.035903998,-0.039245497,1741898005.877307
-0.00375,0.157375,-0.0625,0.0049285004,-0.0029449998,-0.0075377496,-0.00375,-0.043875,0.039625,0.01725775,-0.049179003,-0.0456695,1741898005.8973818
-0.000125,0.14925,-0.056375,0.0056915004,-0.0050965,-0.0093995,-0.121,-0.252,0.178875,0.02023325,-0.05043025,-0.042419497,1741898005.905293
0.003375,0.1425,-0.049,0.00708,-0.00874325,-0.0128632495,-0.13725,-0.397,0.2565,0.019104,-0.025085501,-0.01722725,1741898005.920005
0.02275,0.035375,0.0855,0.00862125,-0.008773751,-0.013198749,-0.03825,-0.334125,0.221875,0.00671375,0.0002595,0.00010675,1741898005.939451
0.023125,-0.137,0.155375,0.016861,0.011856,0.0068055,0.00475,-0.215375,0.159875,-0.0042725,0.01911925,0.008590749,1741898005.955395
-0.074,0.073875,-0.0985,-0.0020752498,0.00817875,0.021606501,0.01025,-0.125125,0.112625,-0.0053252503,0.028183,0.01042175,1741898005.963865
-0.0465,0.20975,-0.129875,-0.029358,-0.016113251,0.01165775,-0.00175,-0.133625,0.121,-0.00019825,0.026535,0.013839751,1741898005.9784262
0.011875,0.17575,0.002875,-0.01596075,-0.013061499,0.00364675,-0.0065,-0.133875,0.121375,-0.001114,0.02592475,0.028716998,1741898005.996224
-0.006625,0.161875,0.0085,-0.0009155,-0.0026092501,0.0001525,0.02075,-0.0915,0.085125,-0.008255,0.02661125,0.03421025,1741898006.007547
-0.02025,0.143125,-0.013,0.0073547503,0.00941475,0.00105275,0.035875,-0.07,0.06375,-0.020355249,0.0272675,0.03421025,1741898006.0220969
-0.01075,0.123,-0.029875,0.0035704998,0.00801075,0.00367725,0.046,-0.046375,0.026,-0.02241525,0.02687075,0.03047175,1741898006.03666
-0.006125,0.13175,-0.032375,-0.0047455,0.0023345,0.00393675,0.049625,-0.03275,0.00525,-0.0194245,0.02333075,0.02241525,1741898006.055328
-0.0085,0.146125,-0.037625,-0.00561525,0.0009155,0.002777,0.07025,0.017875,-0.035875,-0.0149535,0.01937875,0.01799,1741898006.065817
-0.00525,0.1465,-0.040375,-0.00027475,0.00169375,0.00045775,0.079375,0.03675,-0.047875,-0.00042725,0.0061035,0.0067597497,1741898006.08036
-0.002625,0.147625,-0.053875,0.0024414998,0.00177,-0.0010375,0.089125,0.055375,-0.047,0.0068665,-0.001892,0.0003205,1741898006.094906
-0.0065,0.15225,-0.06075,0.0034942501,-0.00190725,-0.0040587503,0.08625,0.053875,-0.03475,0.013061499,-0.0203095,-0.016021749,1741898006.115144
-0.012375,0.154125,-0.062875,0.0032655,-0.0046234997,-0.0052947504,0.0735,0.040625,-0.013625,0.0119630005,-0.029739501,-0.0245515,1741898006.124108
-0.010875,0.1495,-0.05825,0.0040435,-0.0089875,-0.008072,0.055875,0.023,0.001125,0.0106965,-0.038452253,-0.03262325,1741898006.138701
-0.00325,0.139625,-0.045,0.00485225,-0.010437001,-0.009613,0.017625,-0.02275,0.0335,0.014007499,-0.052353002,-0.04226675,1741898006.155673
-0.00125,0.135375,-0.0355,0.0056915004,-0.01150525,-0.011139,-0.07125,-0.156625,0.1405,0.018020751,-0.055724997,-0.0417785,1741898006.1691442
0.012375,0.0665,0.04775,0.011169501,-0.0064239996,-0.0085602505,-0.1065,-0.276375,0.214,0.027130252,-0.03996275,-0.02661125,1741898006.183241
-0.01675,-0.15975,0.09,0.014160249,0.00440975,0.00466925,-0.0975,-0.413,0.2795,0.018814,-0.01419075,-0.00662225,1741898006.197948
-0.071,0.00675,-0.044125,-0.02371225,-0.0043182503,0.02519225,-0.022625,-0.27925,0.207875,-0.00637825,0.02861025,0.01646425,1741898006.216875
-0.0155,0.2405,-0.0775,-0.032837003,-0.014587499,0.01452625,0.03725,-0.1025,0.109625,-0.00842275,0.03312675,0.0147705,1741898006.227176
0.00775,0.20675,-0.01225,-0.00381475,-0.00408925,-0.00213625,0.018875,-0.104125,0.11675,-0.0016785001,0.03034975,0.01805125,1741898006.241722
-0.01675,0.154875,-0.010375,0.0063325,0.0055085,-0.00305175,0.005125,-0.10375,0.108875,-0.0024872501,0.02948,0.025085501,1741898006.256417
-0.021625,0.134875,-0.02,0.0049285004,0.0093995,0.00181575,0.02175,-0.081,0.08425,-0.01358025,0.028061,0.03312675,1741898006.274996
-0.007875,0.13025,-0.02225,0.0009155,0.00723275,0.0025025,0.04975,-0.0465,0.04275,-0.017883249,0.027130252,0.03120425,1741898006.285761
-0.005,0.1335,-0.027375,-0.00187675,0.00520325,0.0013275,0.05125,-0.03675,0.025625,-0.01924125,0.02474975,0.021408001,1741898006.300413
-0.003375,0.13825,-0.032625,-0.0012817499,0.00369275,-0.00039675,0.058125,0.0,-0.012,-0.016418502,0.02211,0.01622,1741898006.3150258
-0.001125,0.143375,-0.042875,0.001236,0.003952,-0.0011445,0.066,0.0215,-0.031125,-0.0054015,0.011810251,0.0055847503,1741898006.335196
-0.0045,0.144875,-0.04975,0.0048979996,0.0028535,-0.0034942501,0.0775,0.044125,-0.054125,0.00154125,0.004242,-0.00045775,1741898006.344407
-0.01125,0.1445,-0.057,0.0052947504,0.001007,-0.00460825,0.079125,0.043375,-0.050375,0.0099945,-0.013931249,-0.01525875,1741898006.359196
-0.011,0.141,-0.0565,0.00535575,-0.00325,-0.00596625,0.07525,0.031375,-0.026625,0.009491,-0.023376498,-0.0230255,1741898006.3780842
-0.00675,0.1395,-0.051875,0.00546275,-0.005249,-0.0067445002,0.072375,0.028375,-0.015375,0.008514499,-0.032897998,-0.03047175,1741898006.388767
-0.00275,0.1365,-0.045875,0.00646975,-0.008148249,-0.009079001,0.0015,-0.0625,0.059125,0.0115967505,-0.05043025,-0.0419465,1741898006.403448
0.002375,0.12325,-0.016375,0.00715625,-0.0089875,-0.0102845,-0.091875,-0.186,0.1735,0.01510625,-0.056961,-0.042846747,1741898006.419083
0.01725,0.0375,0.078875,0.0093995,-0.00798025,-0.010391249,-0.096,-0.416375,0.2595,0.01817325,-0.0436095,-0.022216748,1741898006.434541
0.022375,-0.141,0.138875,0.0157165,0.01065075,0.01142875,-0.027,-0.3405,0.2085,0.00830075,-0.013931249,-0.001831,1741898006.447743
-0.06625,0.05925,-0.0775,-0.0057220003,0.0077515002,0.02749625,0.002,-0.221125,0.166375,-0.00715625,0.02519225,0.01091,1741898006.462357
-0.04425,0.220125,-0.1145,-0.032608002,-0.013931249,0.0139770005,0.008625,-0.107875,0.12375,-0.0052947504,0.02702325,0.0075377496,1741898006.4768262
0.008625,0.186875,-0.002875,-0.01823425,-0.0099945,0.00411975,0.00975,-0.1135,0.12275,0.003418,0.02224725,0.011016751,1741898006.494949
-0.005125,0.16625,-0.0045,0.00352475,0.008270251,0.001007,0.004375,-0.119625,0.115375,0.0017852499,0.023101749,0.01852425,1741898006.505853
-0.023375,0.144625,-0.03375,0.00416575,0.010849,0.00331125,0.013,-0.105125,0.097875,-0.010498,0.026764,0.02857975,1741898006.520444
-0.01575,0.140875,-0.034625,-0.00105275,0.0069885002,0.00416575,0.039125,-0.07325,0.05725,-0.014846751,0.027542,0.027893,1741898006.535061
-0.00875,0.1415,-0.03725,-0.0034942501,0.00428775,0.00238025,0.0455,-0.06125,0.03675,-0.017105,0.026886,0.02088925,1741898006.5551229
-0.008,0.14725,-0.039,-0.00411975,0.002411,0.0010375,0.0625,-0.017375,-0.00775,-0.01596075,0.025055,0.0168915,1741898006.5644312
-0.005125,0.1495,-0.04175,0.00045775,0.001831,-0.00112925,0.075125,0.010625,-0.02675,-0.0080567505,0.0158845,0.00744625,1741898006.578977
-0.004,0.1475,-0.049625,0.002777,0.0013427499,-0.0026092501,0.086875,0.046375,-0.048875,-0.001831,0.0085755,0.00175475,1741898006.5948029
-0.007125,0.148625,-0.0525,0.0039825,-0.0022277501,-0.0050812503,0.079125,0.042625,-0.046375,0.0042725,-0.00045775,-0.004547,1741898006.6081269
-0.0125,0.14575,-0.052625,0.00402825,-0.0043335,-0.005783,0.052125,0.005125,-0.016875,0.0088805,-0.021225,-0.01681525,1741898006.622742
-0.012375,0.140875,-0.05,0.0047455,-0.0076295,-0.0072937496,0.05375,0.00475,-0.008125,0.007187,-0.030304002,-0.0222625,1741898006.637526
-0.00575,0.131375,-0.039125,0.00535575,-0.0087585,-0.008346501,0.05825,0.010125,0.00025,0.00593575,-0.0450745,-0.035492,1741898006.655165
-0.003375,0.12775,-0.031625,0.00668325,-0.009506251,-0.01033025,-0.001875,-0.069625,0.07175,0.00891125,-0.051056,-0.040420502,1741898006.6668348
0.027125,-0.096,0.1375,0.010742251,-0.00416575,-0.0070342496,-0.064875,-0.15725,0.15675,0.02272025,-0.0522155,-0.035705503,1741898006.681532
-0.009375,-0.178125,0.0945,0.00146475,0.009796251,0.023803748,-0.13175,-0.433,0.283,0.02474975,-0.03942875,-0.0231475,1741898006.696233
-0.071125,0.19425,-0.133625,-0.02256775,-0.0009765,0.02943425,-0.07025,-0.391875,0.239375,-0.0019685,0.01133725,0.00912475,1741898006.715924
-0.028125,0.251375,-0.099875,-0.03373725,-0.012619001,0.018509,0.012875,-0.14925,0.119625,-0.009674,0.02674875,0.012634249,1741898006.7256792
0.000375,0.209125,-0.027125,-0.00798025,-0.0056,-4.575e-05,0.009125,-0.115625,0.107375,-0.0050812503,0.0295105,0.0099639995,1741898006.740234
-0.022375,0.16825,-0.02275,0.0019225,0.00340275,-0.00065625,-0.009375,-0.141,0.124875,0.0001525,0.027298,0.015518251,1741898006.754805
-0.0265,0.158,-0.035125,0.00413525,0.00833125,0.00149525,-0.006125,-0.134125,0.114375,-0.0014037499,0.026092501,0.03253175,1741898006.7748601
-0.00775,0.136625,-0.033,0.001709,0.00643925,0.00105275,0.025625,-0.08975,0.0645,-0.0070495,0.02610775,0.03686525,1741898006.7839592
-0.004875,0.13825,-0.032875,-0.00289925,0.001709,-0.0018615,0.0375,-0.07375,0.043375,-0.017852752,0.0264435,0.03462225,1741898006.798443
-0.00425,0.13575,-0.028625,-0.0019989999,0.00105275,-0.0028229998,0.047875,-0.043625,0.014,-0.020691,0.02595525,0.031066999,1741898006.8148758
-0.00275,0.128875,-0.028375,0.0027465,0.0018615,-0.0036315,0.05475,-0.021625,0.00125,-0.020904498,0.02412425,0.02737425,1741898006.827759
-0.008625,0.1355,-0.036625,0.00372325,0.00143425,-0.00402825,0.078125,0.032125,-0.026625,-0.014206001,0.015289251,0.01893625,1741898006.842428
-0.0115,0.1355,-0.039,0.00399775,0.00042725,-0.0045165,0.08725,0.051,-0.03575,-0.008545,0.008255,0.01339725,1741898006.856975
-0.012875,0.131625,-0.039875,0.0041504996,-0.00163275,-0.0046539996,0.092,0.0605,-0.037625,0.0033570002,-0.0088805,1.5250001e-05,1741898006.878214
-0.014625,0.1295,-0.04125,0.0040587503,-0.00263975,-0.0047455,0.08325,0.05,-0.020625,0.0071409997,-0.01763925,-0.00770575,1741898006.886179
-0.0135,0.129,-0.03925,0.00413525,-0.0042572496,-0.0059205,0.073625,0.037,-0.010375,0.008361749,-0.032897998,-0.02386475,1741898006.9007318
-0.008125,0.127,-0.032,0.004547,-0.0045777503,-0.0067902496,0.061625,0.037625,-0.000375,0.009262,-0.0391235,-0.0319215,1741898006.919443
-0.00575,0.12225,-0.024125,0.0068969997,-0.00334175,-0.00785825,0.037125,0.01575,0.023125,0.017608749,-0.04927075,-0.045471247,1741898006.934633
0.030875,-0.103375,0.086625,0.01266475,0.0037079998,-0.0040435,-0.060625,-0.121375,0.116,0.02326975,-0.050598253,-0.045868002,1741898006.9447339
-0.009625,-0.1205,0.023,-0.0016632499,0.00782775,0.02247625,-0.0905,-0.204125,0.151375,0.0305175,-0.0420075,-0.037384,1741898006.9596858
-0.05225,0.18925,-0.088375,-0.0229645,-0.0038757501,0.023254499,-0.152875,-0.437375,0.294125,0.0289765,-0.03012075,-0.025421249,1741898006.974647
-0.01475,0.202375,-0.05575,-0.02139275,-0.0076599997,0.009430001,-0.095875,-0.371125,0.25625,0.0055695,0.01867675,0.009369001,1741898006.995527
-0.01775,0.173125,-0.034375,-0.01210025,-0.00119025,0.00514225,0.029375,-0.156,0.110375,-0.0052185003,0.0331115,0.013183501,1741898007.0034518
-0.022625,0.166875,-0.05175,-0.0059815003,0.00378425,0.00355525,0.0285,-0.112625,0.10275,-0.0076295,0.0356445,0.01510625,1741898007.0181918
-0.020125,0.163875,-0.05575,-0.00112925,0.0045165,0.00175475,0.00725,-0.11025,0.11075,-0.0039215,0.031036502,0.020782499,1741898007.035085
-0.009,0.142,-0.038875,-0.00068675,0.00331125,-0.000763,0.013125,-0.105125,0.092625,-0.0035704998,0.02690125,0.02832025,1741898007.047486
-0.007625,0.137,-0.033625,-0.0020599999,0.00057975,-0.0028535,0.04275,-0.0635,0.044375,-0.015518251,0.02351375,0.035324,1741898007.062072
-0.009375,0.135375,-0.027375,-0.0017852499,-0.00013725001,-0.0033570002,0.053875,-0.042625,0.024375,-0.021347,0.02339175,0.032821752,1741898007.076774
-0.0095,0.13075,-0.028,0.000534,-0.00029,-0.0047912505,0.06325,-0.02025,0.005875,-0.022583,0.021576,0.021453751,1741898007.094613
-0.011,0.132375,-0.035625,0.0010375,-0.00070200005,-0.0049285004,0.074625,0.018875,-0.02975,-0.0184785,0.017929,0.014709501,1741898007.105937
-0.012,0.135125,-0.0375,0.00175475,-0.00198375,-0.00505075,0.077125,0.03125,-0.0435,-0.0037079998,0.00494375,0.0024414998,1741898007.1204622
-0.01375,0.1315,-0.036375,0.00238025,-0.0023039998,-0.0055237496,0.07525,0.048125,-0.048375,0.00440975,-0.00334175,-0.00369275,1741898007.135083
-0.014125,0.127625,-0.034625,0.0037385002,-0.002411,-0.00668325,0.068875,0.04825,-0.0365,0.013198749,-0.02253725,-0.0196075,1741898007.156092
-0.01225,0.1215,-0.03,0.00428775,-0.002243,-0.00720225,0.05925,0.034625,-0.00975,0.01272575,-0.03208925,-0.0280305,1741898007.164425
-0.01,0.119375,-0.02825,0.0046539996,-0.0020295,-0.00767525,0.040375,0.006,0.011875,0.01156625,-0.047348,-0.0407715,1741898007.179151
-0.0075,0.11575,-0.02375,0.005783,-0.001175,-0.00788875,-0.04525,-0.1205,0.09625,0.01367175,-0.05160525,-0.0423125,1741898007.194647
0.033,-0.074875,0.038125,0.010757499,0.0032195,-0.00413525,-0.10425,-0.23625,0.179125,0.0233155,-0.04302975,-0.033325247,1741898007.2145479
0.000875,-0.076,0.019875,-0.0020599999,0.00437925,0.0177765,-0.10875,-0.40625,0.277625,0.0220795,-0.0195465,-0.014679,1741898007.225611
-0.048125,0.174125,-0.063625,-0.0196075,-0.0038605002,0.01829525,-0.032375,-0.290375,0.21175,0.00109875,0.02409375,0.00997925,1741898007.240117
-0.028,0.186875,-0.0505,-0.020813,-0.0054780003,0.008514499,0.035625,-0.11925,0.11275,-0.00419625,0.028122,0.009094249,1741898007.255032
-0.021375,0.177625,-0.067125,-0.014663749,-0.00169375,0.0057525,0.021625,-0.113,0.112125,-0.0001525,0.02418525,0.0128785,1741898007.274781
-0.020875,0.180125,-0.072625,-0.0028229998,0.0016632499,0.0010375,0.003,-0.1195,0.112,0.000824,0.022812,0.0196075,1741898007.283805
-0.007375,0.146125,-0.049375,0.001419,0.00204475,-0.0017395001,0.0125,-0.10375,0.0955,-0.008712751,0.022643998,0.029998751,1741898007.298439
-0.005125,0.13675,-0.03975,0.00163275,-0.00029,-0.0034790002,0.038,-0.0695,0.060125,-0.014862,0.02316275,0.03009025,1741898007.315657
-0.00575,0.135,-0.028625,0.0005035,-0.0016632499,-0.0037995,0.0445,-0.05775,0.044,-0.0207215,0.02374275,0.02238475,1741898007.327564
-0.00575,0.133375,-0.03075,0.00019825,-0.002472,-0.00453175,0.05875,-0.0185,0.0045,-0.01965325,0.02253725,0.0173645,1741898007.342151
-0.006625,0.1315,-0.0385,0.00090025004,-0.003891,-0.00570675,0.0675,0.006625,-0.017125,-0.016235251,0.0196075,0.012024,1741898007.3573608
-0.0085,0.132625,-0.037625,0.0016632499,-0.004486,-0.0057525,0.074875,0.035125,-0.04575,-0.003769,0.0078735,7.625e-05,1741898007.377409
-0.01125,0.13275,-0.035125,0.0043182503,-0.00437925,-0.0062712496,0.07075,0.037125,-0.0455,0.00296025,-0.00016775,-0.0061339997,1741898007.386144
-0.013625,0.125,-0.032125,0.0056304997,-0.00393675,-0.0068207504,0.06125,0.031625,-0.035375,0.00941475,-0.01876825,-0.019470248,1741898007.4008288
-0.013,0.122125,-0.031625,0.0068055,-0.0034637498,-0.00747675,0.054875,0.023625,-0.0135,0.0084379995,-0.028183,-0.0262145,1741898007.4154408
-0.0045,0.1025,-0.01125,0.00694275,-0.0033264998,-0.0077972496,0.04675,0.0095,0.002375,0.006546,-0.044403,-0.0387115,1741898007.434582
0.026125,-0.028,0.05125,0.014221249,0.0064239996,0.0021972498,-0.04375,-0.10975,0.0895,0.008484,-0.05030825,-0.0410155,1741898007.4448562
-0.04075,-0.043125,0.00575,0.0060425,0.00947575,0.0184785,-0.106375,-0.21525,0.175625,0.0211945,-0.049636748,-0.03489675,1741898007.459575
-0.0655,0.159,-0.07525,-0.028473,-0.006836,0.019287001,-0.09875,-0.4065,0.254875,0.02186575,-0.029541,-0.018737748,1741898007.47515
-0.0115,0.188625,-0.046375,-0.02259825,-0.0058287503,0.01077275,-0.039625,-0.31175,0.20625,0.0012970001,0.021469,0.009094249,1741898007.495061
-0.013,0.175,-0.051,-0.0123442495,0.00013725001,0.006668,0.016875,-0.125375,0.1135,-0.0044555003,0.028183,0.008606,1741898007.504118
-0.02025,0.174125,-0.066875,-0.0013580001,0.0061645,0.004486,0.011875,-0.11725,0.110125,-0.00083925005,0.02330025,0.00962825,1741898007.518485
-0.01375,0.158,-0.05825,0.00102225,0.0058287503,0.0027312501,-0.0005,-0.13175,0.116125,0.00054925,0.02212525,0.016159,1741898007.534611
-0.009,0.145625,-0.046875,0.00086975005,0.0025787498,-0.0004425,0.00625,-0.117625,0.1025,-0.0073242504,0.023178,0.0285035,1741898007.547765
-0.013,0.146,-0.04125,0.000473,0.001114,-0.0016632499,0.031375,-0.07975,0.065625,-0.012680001,0.02363575,0.029831,1741898007.562476
-0.0145,0.147625,-0.04575,0.00254825,-0.00068675,-0.0048217503,0.037625,-0.068625,0.048875,-0.018509,0.02398675,0.02417,1741898007.57702
-0.015125,0.147,-0.0555,0.00399775,-0.0015565,-0.0065002497,0.049,-0.038125,0.01025,-0.01855475,0.02333075,0.020019501,1741898007.595008
-0.016125,0.14775,-0.05625,0.00671375,-0.0036162501,-0.008865249,0.059,-0.01325,-0.01,-0.016632,0.021179251,0.01576225,1741898007.606134
-0.01775,0.14325,-0.049375,0.0085602505,-0.00411975,-0.0100707505,0.0775,0.03,-0.038625,-0.007019,0.01077275,0.005539,1741898007.621044
-0.015625,0.1375,-0.045125,0.01171875,-0.0045012496,-0.0125275,0.077375,0.036,-0.041,-0.00074775,0.0031585,-0.00033575002,1741898007.635251
-0.007625,0.122875,-0.033375,0.012329,-0.0047455,-0.013412501,0.069,0.0305,-0.033,0.00617975,-0.014648501,-0.012741,1741898007.65485
0.004875,0.091375,0.010375,0.012420749,-0.00488275,-0.01396175,0.053125,0.013625,-0.007625,0.00505075,-0.023834249,-0.019042999,1741898007.664719
0.047125,-0.083,0.114375,0.0213165,0.0105742505,-0.00115975,0.054,0.01625,0.00075,0.0020599999,-0.03942875,-0.03215025,1741898007.679453
-0.054,-0.078875,-0.000875,0.00912475,0.0152435,0.02127075,0.008125,-0.041375,0.049125,0.00408925,-0.04574575,-0.0376435,1741898007.6941462
-0.085875,0.1875,-0.119,-0.038498,-0.010818499,0.022369498,-0.048375,-0.11475,0.10775,0.0172425,-0.050674498,-0.037841752,1741898007.70926
-0.008625,0.22325,-0.05225,-0.0283965,-0.010147001,0.008484,-0.135875,-0.38,0.271125,0.023101749,-0.0401305,-0.028,1741898007.723562
-0.00425,0.172375,-0.048125,0.000122000005,0.00617975,0.0002595,-0.081625,-0.356,0.254625,0.00770575,0.00953675,0.0028535,1741898007.738116
-0.014625,0.15125,-0.05475,0.00402825,0.0081635,0.0022125002,0.01275,-0.156625,0.1285,-0.0012665,0.0212555,0.0047150003,1741898007.754404
-0.009125,0.140625,-0.043375,0.00108325,0.0050812503,0.00198375,0.014875,-0.123375,0.10325,-0.0019989999,0.022934001,0.0023345,1741898007.7673311
0.0,0.134875,-0.03325,-0.00238025,0.002411,0.00070200005,-0.014,-0.147125,0.121625,0.00242625,0.022613501,0.006775,1741898007.7820191
-0.001125,0.135875,-0.0335,-0.00390625,0.00067150005,-0.000183,-0.0135,-0.14525,0.11925,0.002121,0.023528999,0.0225525,1741898007.796575
-0.0045,0.136625,-0.037,-0.000946,-6.1000002e-05,-0.00119025,0.01875,-0.11,0.081875,-0.0028074998,0.02374275,0.027847249,1741898007.817178
-0.012,0.136375,-0.047625,0.00057975,-0.00065625,-0.001831,0.0295,-0.095625,0.063375,-0.00846875,0.02412425,0.02955625,1741898007.82575
-0.014875,0.139,-0.049375,0.00177,-0.00302125,-0.00292975,0.034875,-0.06925,0.03225,-0.016845752,0.02510075,0.0257415,1741898007.840971
-0.0185,0.141875,-0.0455,0.0027160002,-0.003891,-0.00378425,0.04075,-0.04925,0.0155,-0.018020751,0.02442925,0.022643998,1741898007.85793
-0.01825,0.138125,-0.043625,0.00564575,-0.0043182503,-0.006363,0.051875,-0.022,-0.004,-0.01367175,0.018402,0.01560975,1741898007.869681
-0.014875,0.132625,-0.0405,0.00662225,-0.0045165,-0.0076599997,0.078125,0.032625,-0.039625,-0.0088805,0.01260375,0.01062,1741898007.88434
-0.012,0.12875,-0.035875,0.007553,-0.00485225,-0.009734999,0.082125,0.042625,-0.04625,0.00213625,-0.00343325,-0.00163275,1741898007.899211
0.0205,0.017125,0.0585,0.0077667497,-0.0036315,-0.009491,0.062875,0.0255,-0.026375,0.005249,-0.013046251,-0.008361749,1741898007.91455
0.0335,-0.13775,0.105875,0.0084379995,0.01121525,0.0115967505,0.05425,0.01625,-0.010875,0.0023345,-0.031372,-0.0220185,1741898007.9290009
-0.075875,0.122,-0.082,-0.0079345,0.00672925,0.021927001,0.0475,0.0125,0.014875,0.0001525,-0.039215,-0.02955625,1741898007.94306
-0.052125,0.2075,-0.101375,-0.02456675,-0.00390625,0.018127501,0.014,-0.03025,0.048375,0.0067902496,-0.05273425,-0.039627,1741898007.9576619
-0.011,0.186125,-0.050625,-0.013351499,-0.00352475,0.0049590003,-0.096,-0.209875,0.181625,0.01596075,-0.05432125,-0.038452253,1741898007.97419
-0.026,0.165,-0.038,-0.00396725,0.0034790002,0.002533,-0.133125,-0.360375,0.266,0.0229035,-0.022995,-0.013321,1741898007.98739
-0.03125,0.165125,-0.055,0.0010375,0.0073395,0.0024414998,-0.04325,-0.282,0.209875,0.0105742505,0.005249,0.00440975,1741898008.0019
-0.0105,0.148125,-0.04975,-0.000229,0.0054015,0.00160225,0.010625,-0.1665,0.137125,-0.00712575,0.023468,0.0072785,1741898008.0164852
-0.005125,0.145875,-0.044,-0.0021057501,0.00169375,-0.0018615,0.0135,-0.11875,0.09675,-0.00485225,0.021514999,0.0052642496,1741898008.034815
-0.002125,0.142,-0.040625,-0.0004425,0.0012207499,-0.0032195,-0.005125,-0.136375,0.1105,0.00193775,0.02174375,0.014572251,1741898008.045585
-0.003875,0.1395,-0.042,0.0041044997,0.0008545,-0.00538625,0.00025,-0.12175,0.104,0.000122000005,0.023407,0.0222015,1741898008.060142
-0.01025,0.134125,-0.0445,0.00491325,-0.000122000005,-0.00621025,0.0195,-0.100625,0.08625,-0.00384525,0.02424625,0.0273895,1741898008.07459
-0.01225,0.131,-0.04375,0.0049742498,-0.0013580001,-0.0065155,0.033375,-0.085875,0.069,-0.0105742505,0.024108998,0.027481,1741898008.094302
-0.0135,0.12925,-0.043875,0.0052947504,-0.0032347501,-0.0067445002,0.042375,-0.062875,0.03625,-0.013137749,0.024063,0.024505502,1741898008.103596
-0.01225,0.12725,-0.04325,0.0059205,-0.0038757501,-0.00737,0.048,-0.04575,0.017875,-0.014679,0.02227775,0.0177155,1741898008.118298
-0.01075,0.124875,-0.041125,0.00715625,-0.00485225,-0.0088805,0.067,-0.00225,-0.017,-0.0122375,0.01908875,0.014206001,1741898008.135167
-0.00875,0.119875,-0.03225,0.00741575,-0.0050965,-0.00947575,0.0775,0.022375,-0.031125,-0.00169375,0.0075835,0.0045625,1741898008.1474628
0.002125,0.080625,0.01575,0.010162249,-0.00096125,-0.00747675,0.072875,0.036,-0.03975,0.00460825,-0.000229,-0.00154125,1741898008.162397
0.012375,-0.1415,0.062375,0.01408375,0.008148249,0.002365,0.056625,0.020625,-0.030375,0.009216251,-0.018920999,-0.01454175,1741898008.176862
-0.05325,-0.002875,-0.038375,-0.01741025,-0.000183,0.0229035,0.045625,0.012625,-0.0195,0.00665275,-0.0280305,-0.02101125,1741898008.194292
-0.035375,0.201875,-0.077125,-0.02967825,-0.010147001,0.0163575,0.048625,0.0185,-0.01275,0.003006,-0.044051997,-0.0355225,1741898008.2061498
-0.012125,0.17925,-0.0315,-0.01510625,-0.0048674997,0.0069580004,-0.04125,-0.0885,0.120875,0.0047302498,-0.050766,-0.0404815,1741898008.220901
-0.036875,0.177625,-0.047,-0.0068207504,0.0019225,0.0044250004,-0.141125,-0.26825,0.282,0.014862,-0.047546502,-0.028061,1741898008.235756
-0.0305,0.16275,-0.057,-0.00099175,0.0058135,0.00267025,-0.04175,-0.338375,0.227,0.009796251,-0.023117,-0.00723275,1741898008.25441
-0.014375,0.144625,-0.051875,0.00245675,0.0053405,0.000183,0.009125,-0.2205,0.14225,-0.00027475,0.001892,0.0055695,1741898008.265163
-0.00225,0.137625,-0.03325,0.001068,0.00358575,-0.0012207499,-0.006875,-0.114,0.099875,-0.0055847503,0.017303498,-1.5250001e-05,1741898008.280138
-0.002,0.134625,-0.028125,0.00090025004,0.002472,-0.0033875,-0.01275,-0.127,0.113625,-1.5250001e-05,0.0163575,-0.00378425,1741898008.2952561
-0.002875,0.125,-0.031625,0.0020905002,0.00283825,-0.003952,-0.00775,-0.14025,0.142625,0.008361749,0.018448,0.00794975,1741898008.3160331
-0.004,0.12625,-0.038875,0.0028229998,0.0020295,-0.00453175,0.00525,-0.130375,0.13075,0.0060272496,0.02006525,0.01879875,1741898008.323974
-0.005625,0.1335,-0.049125,0.0027312501,0.0009155,-0.0046539996,0.01825,-0.117875,0.106375,-0.0049590003,0.022094749,0.02946475,1741898008.338461
-0.007375,0.135875,-0.052,0.00343325,-0.0013275,-0.0055695,0.027875,-0.092875,0.060625,-0.009781,0.02398675,0.028564502,1741898008.3583071
-0.01175,0.137125,-0.054875,0.0042267498,-0.00242625,-0.0065765,0.033625,-0.073875,0.043625,-0.016098,0.027359,0.0224305,1741898008.367948
-0.011625,0.13525,-0.053,0.0051880004,-0.0035095,-0.00773625,0.055875,-0.017875,0.008125,-0.016265752,0.02645875,0.018920999,1741898008.382538
-0.006,0.128375,-0.04425,0.0065612504,-0.0055237496,-0.009781,0.06475,0.008125,-0.009125,-0.009521499,0.01725775,0.0099945,1741898008.397059
-0.0055,0.12525,-0.037,0.0065917503,-0.00646975,-0.010437001,0.07,0.0325,-0.03475,-0.00411975,0.00997925,0.00466925,1741898008.415227
0.0005,0.08975,0.023125,0.01077275,-0.0028535,-0.009094249,0.06875,0.03675,-0.0415,0.00378425,-0.0061339997,-0.00770575,1741898008.426177
0.009125,-0.123125,0.076125,0.0178985,0.008224499,-0.001709,0.058125,0.03275,-0.029125,0.00411975,-0.01498425,-0.0153807495,1741898008.440862
-0.046125,-0.0235,-0.026,-0.014099,0.002121,0.020279,0.061375,0.038125,-0.020625,0.00119025,-0.03392025,-0.0328065,1741898008.456216
-0.02425,0.1895,-0.078125,-0.02919,-0.00903325,0.017212,0.031125,-0.00025,0.031,0.002243,-0.043258753,-0.0405425,1741898008.475138
-0.00475,0.18,-0.031,-0.01481625,-0.00585925,0.00741575,-0.064375,-0.117875,0.138875,0.0190735,-0.057662997,-0.04270925,1741898008.4849548
-0.035375,0.1765,-0.03075,-0.0047150003,0.0020295,0.003418,-0.14525,-0.409375,0.283,0.026092501,-0.04666125,-0.025833251,1741898008.499991
-0.02525,0.155,-0.045,0.00585925,0.00953675,0.00105275,-0.060875,-0.33875,0.22475,0.01911925,-0.015976,-0.0034942501,1741898008.516235
0.00325,0.124625,-0.040875,0.004486,0.007782,0.00160225,0.01275,-0.137,0.100625,-0.0032347501,0.0251465,0.00369275,1741898008.5295591
0.00175,0.127375,-0.031,0.000473,0.0045625,0.0016175,0.008625,-0.1125,0.08525,-0.0052642496,0.0246125,-0.0024414998,1741898008.543978
-0.00175,0.129125,-0.024375,-0.0028229998,0.0020599999,0.00016775,-0.001125,-0.12175,0.095625,0.004776,0.017501751,0.002411,1741898008.558589
-0.007125,0.1265,-0.030375,-0.00131225,0.002884,-0.00074775,-0.00575,-0.1295,0.112,0.006073,0.01716625,0.013031,1741898008.574135
-0.00875,0.128875,-0.039,0.0012055,0.0033264998,-0.0022125002,0.00225,-0.119125,0.101,-0.00238025,0.017746,0.028259251,1741898008.58761
-0.008875,0.133375,-0.05025,0.00160225,0.0026245,-0.002472,0.021875,-0.0965,0.071125,-0.0066985004,0.018127501,0.0289155,1741898008.6022122
-0.009875,0.13525,-0.05275,0.0021972498,0.00080875,-0.00302125,0.026,-0.09025,0.059625,-0.011139,0.02076725,0.02333075,1741898008.616761
-0.01525,0.14125,-0.058625,0.00263975,-0.00024425,-0.0038299998,0.037875,-0.065625,0.036125,-0.01142875,0.021469,0.020477248,1741898008.635147
-0.017,0.143125,-0.059375,0.003891,-0.0028535,-0.0065917503,0.050125,-0.0405,0.019375,-0.0087585,0.0180665,0.015213001,1741898008.645803
-0.015125,0.14325,-0.05625,0.0048065,-0.0040435,-0.0081025,0.074875,0.012,-0.0155,-0.00637825,0.0136565,0.0113525,1741898008.660533
-0.012,0.13875,-0.051375,0.00579825,-0.0050355,-0.009506251,0.079,0.024375,-0.023625,-0.00067150005,0.00065625,0.0013275,1741898008.675075
-0.00775,0.13075,-0.042125,0.0078735,-0.00617975,-0.01127625,0.06525,0.020375,-0.01675,0.0012970001,-0.00694275,-0.00419625,1741898008.694932
0.031,-0.084125,0.143,0.0149535,-0.000229,-0.009613,0.051375,0.00825,-0.00425,9.15e-05,-0.023468,-0.0168915,1741898008.704764
0.01225,-0.21375,0.100875,0.00585925,0.0166015,0.0213165,0.052875,0.017,0.009875,-0.00083925005,-0.031662002,-0.02436825,1741898008.71938
-0.07425,0.196625,-0.14575,-0.02537525,0.00137325,0.0299225,0.04675,0.01175,0.03,0.00077825,-0.039352503,-0.0321655,1741898008.7348301
-0.026875,0.238,-0.104,-0.02790825,-0.01408375,0.009811499,0.012125,-0.032,0.07775,0.01408375,-0.05099475,-0.040099997,1741898008.7555041
-0.019125,0.19425,-0.02275,-0.011612001,-0.0056915004,0.00390625,-0.136125,-0.317875,0.24925,0.025848499,-0.049881,-0.033615,1741898008.763523
-0.030375,0.18625,-0.045,0.0057677496,0.008606,-0.00077825,-0.12325,-0.396,0.25975,0.01670825,-0.008606,0.000473,1741898008.778123
0.001125,0.1255,-0.052375,0.008133001,0.009262,0.00029,-0.00275,-0.198125,0.140625,0.00112925,0.014358499,0.00697325,1741898008.797204
0.01075,0.113,-0.0375,0.006073,0.00672925,0.001419,0.012875,-0.126875,0.096,-0.007019,0.0251465,0.000122000005,1741898008.8070788
0.00675,0.117,-0.024875,-0.0030669998,0.000534,0.00071725,-0.010875,-0.138375,0.103875,-0.0022735,0.0235595,-7.625e-05,1741898008.821861
-0.00775,0.12625,-0.01775,-0.00384525,0.000183,3.0500001e-05,-0.01575,-0.147375,0.11575,0.003662,0.02357475,0.0144805005,1741898008.8380852
-0.01275,0.124625,-0.023375,-0.00024425,0.002243,-0.00036625,0.00975,-0.11975,0.095375,0.001587,0.02339175,0.022796748,1741898008.8509922
-0.02075,0.1205,-0.035375,0.00077825,0.00245675,-0.00016775,0.02325,-0.104875,0.076625,-0.00723275,0.022873,0.028716998,1741898008.865489
-0.022125,0.11875,-0.03625,0.00067150005,0.00143425,0.00054925,0.031125,-0.084375,0.05225,-0.0114744995,0.02354425,0.027099501,1741898008.880245
-0.021875,0.120625,-0.0355,0.00051875,0.001068,0.00070200005,0.034125,-0.072,0.04275,-0.01596075,0.0243225,0.02174375,1741898008.895047
-0.0215,0.1235,-0.037625,0.000946,0.00083925005,0.00027475,0.047375,-0.03675,0.017125,-0.01542675,0.023117,0.019134501,1741898008.916492
-0.018875,0.130375,-0.04725,0.0012665,0.00068675,-0.00016775,0.056625,-0.017375,0.001375,-0.010162249,0.016388,0.0125885,1741898008.924188
-0.017125,0.13675,-0.053875,0.0014495,0.0003205,-0.000763,0.078125,0.0255,-0.028,-0.0062255003,0.011031999,0.0080415,1741898008.9389188
-0.0165,0.14675,-0.060125,0.0018005001,-0.0011445,-0.00314325,0.0865,0.043375,-0.035375,-0.00181575,0.0045777503,0.0023497501,1741898008.954401
-0.018875,0.163875,-0.0695,0.0025787498,-0.00187675,-0.00520325,0.068125,0.0275,-0.019625,0.0044250004,-0.0112,-0.011627249,1741898008.968565
-0.020375,0.16575,-0.070375,0.0053252503,-0.0036162501,-0.010253999,0.05675,0.01925,-0.011375,0.004242,-0.01994325,-0.018402,1741898008.9828842
-0.020375,0.158625,-0.062375,0.0069580004,-0.0047455,-0.013031,0.053875,0.022875,-0.007375,0.0021515,-0.03710925,-0.033325247,1741898008.9976199
-0.01825,0.154375,-0.055625,0.010253999,-0.0068207504,-0.0186005,0.001625,-0.036,0.033625,0.0051269997,-0.0453185,-0.039627,1741898009.014936
0.00675,0.0955,0.034625,0.0148315,-0.00767525,-0.02070625,-0.046875,-0.10125,0.077625,0.0170745,-0.055847254,-0.0423125,1741898009.026873
0.04625,-0.144875,0.15075,0.02848825,0.01251225,-0.0018615,-0.129875,-0.320375,0.233375,0.02456675,-0.05287175,-0.0388335,1741898009.041492
-0.054,-0.0515,-0.041125,0.003418,0.01402275,0.02162175,-0.1215,-0.399375,0.271,0.019806,-0.00737,-0.0045165,1741898009.05616
-0.058625,0.19925,-0.12,-0.028289748,-0.000183,0.02845775,-0.02125,-0.231875,0.178875,0.0055695,0.016540501,0.007599,1741898009.0745091
-0.025875,0.27725,-0.083625,-0.02371225,-0.012695249,0.00201425,0.017625,-0.14325,0.125375,-0.01020825,0.023285,0.008194,1741898009.085263
-0.001875,0.19475,-0.033375,-0.0070647504,-0.0044555003,-0.0045625,0.016375,-0.117125,0.107375,-0.00782775,0.02073675,0.00897225,1741898009.099883
-0.007875,0.1745,-0.044375,0.0055237496,0.0062255003,-0.00184625,0.001375,-0.12625,0.114625,-0.003952,0.02197275,0.019806,1741898009.1152442
0.003125,0.136,-0.032125,0.00672925,0.00662225,-0.00036625,0.008375,-0.102875,0.097,-0.006012,0.023117,0.024947999,1741898009.1351318
0.00525,0.1185,-0.020625,0.0035095,0.003296,-0.0028229998,0.023875,-0.0865,0.08175,-0.0112915,0.023681749,0.025940001,1741898009.143832
0.000125,0.10475,-0.00825,0.0017395001,0.002243,-0.0033264998,0.035,-0.080125,0.059,-0.0129700005,0.024292,0.023285,1741898009.158464
-0.004375,0.106375,-0.00975,0.00187675,0.0034942501,-0.00148,0.03425,-0.077125,0.048375,-0.014160249,0.025177,0.0203705,1741898009.175062
-0.01625,0.109375,-0.022375,0.00190725,0.00402825,-0.000763,0.04125,-0.047875,0.02325,-0.01374825,0.02537525,0.0155030005,1741898009.193779
-0.017375,0.107875,-0.0265,0.0001525,0.00354,0.0010375,0.04875,-0.027875,0.0065,-0.011612001,0.023697,0.0128632495,1741898009.202355
-0.013375,0.119375,-0.03475,-0.000763,0.0032347501,0.0021819999,0.058,-0.0075,-0.012625,-0.00440975,0.01554875,0.00570675,1741898009.217057
-0.013875,0.1345,-0.04425,-0.00125125,0.00292975,0.0028074998,0.082625,0.03825,-0.0465,-0.000229,0.00918575,0.00051875,1741898009.2345579
-0.01625,0.150375,-0.055625,-0.00067150005,0.00148,0.001175,0.083625,0.045625,-0.051,0.008148249,-0.00791925,-0.012496999,1741898009.24619
-0.018,0.163,-0.068375,0.00042725,0.00035100002,-0.00093075,0.04275,0.005875,-0.036125,0.010849,-0.01808175,-0.018035999,1741898009.260789
-0.01625,0.16025,-0.06775,0.003662,-0.0021515,-0.00611875,0.034,-0.000125,-0.02875,0.00668325,-0.038681,-0.02870175,1741898009.275884
-0.01025,0.15375,-0.05925,0.0054780003,-0.0033875,-0.0086975,0.037,0.01125,-0.003375,0.00331125,-0.04824825,-0.036239497,1741898009.296696
-0.00525,0.147875,-0.052625,0.008285499,-0.0057372497,-0.0128175,0.0095,-0.021375,0.026875,0.007553,-0.0622405,-0.047348,1741898009.304939
0.002375,0.1345,-0.035875,0.0086975,-0.0070647504,-0.014221249,-0.143625,-0.23525,0.1965,0.016235251,-0.0646515,-0.048172,1741898009.3197079
0.0085,0.102,0.0075,0.01396175,-0.0063934997,-0.01345825,-0.18325,-0.38,0.286,0.021103,-0.0292815,-0.021789499,1741898009.3386948
0.012625,-0.157,0.090375,0.01823425,0.0017242499,-0.0029907501,-0.082125,-0.32925,0.258375,0.0109709995,0.004303,-0.0055695,1741898009.3512561
-0.033125,-0.047375,-0.00475,0.00570675,0.0056,0.01402275,-0.034625,-0.235875,0.18425,-0.0032347501,0.02693175,0.00355525,1741898009.3659022
-0.0405,0.14475,-0.07625,-0.0278015,-0.011169501,0.013992251,-0.00225,-0.158125,0.12825,-0.001831,0.02357475,0.0031585,1741898009.3807411
0.002125,0.186125,-0.015375,-0.0186615,-0.01065075,0.00399775,-0.007375,-0.161625,0.136875,0.0056304997,0.023620501,0.021560749,1741898009.395416
-0.00325,0.1605,-0.01125,0.00242625,0.0047150003,-0.00071725,-0.00675,-0.132375,0.1155,0.00279225,0.0271455,0.0345155,1741898009.414853
-0.013625,0.132125,-0.022875,0.0042267498,0.008270251,0.00154125,0.006625,-0.10525,0.0935,-0.009597749,0.031066999,0.043624748,1741898009.424602
-0.003375,0.11525,-0.018,0.00184625,0.008361749,0.0042725,0.024,-0.0745,0.059625,-0.014282251,0.031952,0.041275002,1741898009.439208
-0.00375,0.113875,-0.020625,-0.0012055,0.00662225,0.0047455,0.025875,-0.066,0.0435,-0.019592252,0.03370675,0.03291325,1741898009.455523
-0.012375,0.13,-0.029125,-0.0049590003,0.0034790002,0.00543225,0.02875,-0.04575,0.009375,-0.01982125,0.03344725,0.02876275,1741898009.474614
-0.01875,0.154125,-0.05025,-0.00402825,0.00305175,0.004837,0.03275,-0.03275,-0.005875,-0.01460275,0.02838125,0.020462,1741898009.4830878
-0.01925,0.16275,-0.060625,-0.0025634998,0.00254825,0.0032195,0.049875,-0.00175,-0.028875,-0.009811499,0.023376498,0.015976,1741898009.497726
-0.018875,0.168625,-0.0675,-9.15e-05,-1.5250001e-05,-0.00187675,0.060125,0.016375,-0.044375,-0.0045777503,0.01693725,0.0110015,1741898009.5151181
-0.01475,0.16525,-0.0665,0.0016175,-0.0013885,-0.0045165,0.0685,0.033875,-0.0645,0.00535575,0.000122000005,-0.00068675,1741898009.526946
-0.0125,0.161125,-0.06275,0.0053709997,-0.003769,-0.009796251,0.06625,0.05075,-0.079375,0.009491,-0.010238751,-0.0073395,1741898009.541727
-0.003125,0.15125,-0.0515,0.0068665,-0.0048674997,-0.0123442495,0.055875,0.0475,-0.067375,0.011673001,-0.034057498,-0.020462,1741898009.556353
0.001125,0.145125,-0.043625,0.008788999,-0.0069274995,-0.01622,0.037625,0.031,-0.043125,0.0090485,-0.046081502,-0.0265655,1741898009.575806
0.009875,0.089,0.03675,0.01054375,-0.0073242504,-0.01734925,0.023625,0.01025,-0.032375,0.00340275,-0.06533825,-0.039322,1741898009.5858402
0.03475,-0.09875,0.11875,0.0223235,0.008606,-0.0007935,-0.04225,-0.087375,0.022875,0.0042572496,-0.07051075,-0.0437775,1741898009.6006331
