L-AccX,L-AccY,L-AccZ,L-GyrX,L-GyrY,L-GyrZ,R-AccX,R-AccY,R-AccZ,R-GyrX,R-GyrY,R-GyrZ,timestamp
-0.008125,0.2715,-0.050125,-0.01145925,-0.00083925005,-0.0114135,-0.017625,-0.02325,0.090125,-0.00137325,-0.004593,-0.000534,1741898032.023803
0.0385,0.160125,-0.05375,0.02101125,0.0065307496,-0.022583,-0.041875,-0.0355,0.121375,-0.00292975,-0.0065612504,-0.00016775,1741898032.038548
0.024,0.0725,-0.022875,0.028289748,0.0063477503,-0.022583,-0.059625,-0.040375,0.150375,-0.0035095,-0.0026245,0.00245675,1741898032.0532632
0.01825,0.052625,-0.003875,0.027542,0.0034790002,-0.02088925,-0.057875,-0.044125,0.141625,-0.00334175,0.0026092501,0.00378425,1741898032.067886
0.016875,0.04825,0.018125,0.0133667495,-0.00283825,-0.010498,-0.046,-0.043375,0.124,-0.00305175,0.0076295,0.0069885002,1741898032.082538
0.008,0.082625,0.034875,0.0054932497,-0.00343325,-0.0052795,-0.05,-0.056375,0.124625,-0.0033722501,0.0074920002,0.008941749,1741898032.0971048
0.010125,0.0985,0.02225,-0.00213625,-0.00035100002,0.0012055,-0.05675,-0.061875,0.130625,-0.0057677496,0.009643501,0.0138245,1741898032.113583
0.023625,0.09875,-0.01225,-0.0022277501,0.00105275,0.00302125,-0.055375,-0.062625,0.124625,-0.00697325,0.011535751,0.01634225,1741898032.126495
0.026,0.09625,-0.020625,-0.00086975005,0.00077825,0.00466925,-0.053375,-0.061,0.118375,-0.0078125,0.012909001,0.021179251,1741898032.1411572
0.01975,0.097125,-0.01475,-0.00036625,9.15e-05,0.00485225,-0.050375,-0.060375,0.11275,-0.00782775,0.012909001,0.023956249,1741898032.155921
0.015625,0.097,-0.007,-0.00036625,-0.00035100002,0.0049285004,-0.048625,-0.059875,0.112125,-0.009155249,0.0128785,0.03005975,1741898032.174041
0.01125,0.09875,0.0,-0.0029145,-0.00051875,0.0061645,-0.044625,-0.0535,0.11375,-0.010894749,0.012847999,0.0326385,1741898032.1852958
0.01125,0.1,-0.0,-0.00511175,-0.000473,0.0075072497,-0.042625,-0.048,0.1165,-0.014785751,0.013427749,0.037033,1741898032.20015
0.0125,0.101375,-0.002375,-0.00935375,-0.00042725,0.0105742505,-0.028,-0.029875,0.105,-0.015686,0.013778751,0.03886425,1741898032.2149398
0.017,0.111875,-0.011625,-0.010376001,-0.000534,0.011764499,-0.02,-0.024875,0.09475,-0.014923001,0.0112305,0.04245,1741898032.2308311
0.016875,0.122,-0.016875,-0.010162249,-0.00096125,0.012313751,-0.012125,-0.025,0.08,-0.014648501,0.008545,0.0438385,1741898032.2443268
0.007875,0.14275,-0.02625,-0.00991825,-0.0013427499,0.011749251,-0.01,-0.023375,0.073625,-0.01490775,0.0056,0.04464725,1741898032.258913
0.002375,0.1485,-0.02775,-0.010238751,-0.0025940002,0.01004025,-0.008375,-0.00675,0.071875,-0.0153502505,-0.000473,0.04524225,1741898032.277513
-0.02375,0.178875,0.007875,-0.010666001,-0.0029449998,0.008499251,-0.004125,0.00875,0.0735,-0.0154725,-0.0030365,0.04464725,1741898032.288479
-0.058375,0.272875,0.012,-0.01307675,-0.0025940002,0.0047302498,0.002625,0.020875,0.074,-0.0157165,-0.00646975,0.0405425,1741898032.303007
0.007625,0.237625,-0.05225,-0.0063934997,0.001587,-0.0167695,0.009,0.02525,0.073,-0.0153655,-0.008072,0.03869625,1741898032.317552
0.042,0.137625,-0.050125,0.011139,0.0056304997,-0.022766002,0.008375,0.02475,0.077,-0.01330575,-0.0114440005,0.03733825,1741898032.333546
0.037875,0.0855,-0.036125,0.02958675,0.0062865,-0.021560749,0.008875,0.030875,0.08825,-0.01193225,-0.01322925,0.03663625,1741898032.34687
0.019875,0.047375,-0.0005,0.026977502,0.0025940002,-0.018127501,0.0125,0.039125,0.095375,-0.010803251,-0.017883249,0.03250125,1741898032.3616252
0.01175,0.053,0.019875,0.01077275,-0.0034637498,-0.00747675,0.016625,0.048625,0.11125,-0.011749251,-0.020523,0.02964775,1741898032.376251
0.001375,0.09325,0.028625,0.0032655,-0.00354,-0.00325,0.015,0.049625,0.12075,-0.01452625,-0.02436825,0.0246735,1741898032.3944
0.00725,0.10675,0.014375,-0.0031127501,-0.0004425,0.00163275,0.020375,0.0645,0.139125,-0.014328,-0.025390498,0.0224,1741898032.405858
0.021,0.1085,-0.01825,-0.003006,0.00057975,0.002533,0.02425,0.0735,0.15275,-0.01004025,-0.02398675,0.016143749,1741898032.4203541
0.0225,0.105625,-0.0255,-0.001953,0.00068675,0.002533,0.009625,0.06625,0.202125,-0.007019,-0.02186575,0.012695249,1741898032.434902
0.020375,0.1045,-0.024375,0.00099175,-0.0001525,0.00163275,-0.011875,0.052125,0.237,-0.0030669998,-0.013061499,0.0076295,1741898032.453954
0.01425,0.102625,-0.008,0.0015565,-0.0003815,0.0012665,-0.048375,0.029875,0.285125,-0.00276175,-0.004837,0.0057677496,1741898032.464108
0.013875,0.099625,-0.00125,-0.0007325,-0.000183,0.0020599999,-0.049375,0.02525,0.279125,-0.0029449998,0.00567625,0.00402825,1741898032.478786
0.015625,0.097,0.00025,-0.0028535,-4.575e-05,0.0033570002,-0.03275,0.01875,0.238,-0.00213625,0.025085501,0.0008545,1741898032.4942772
0.017,0.099,-0.00325,-0.0065002497,-0.00013725001,0.00662225,-0.0275,0.016875,0.218125,-0.00070200005,0.031433,-0.0004425,1741898032.507915
0.019875,0.1085,-0.01125,-0.0075072497,-0.00030525,0.008026,-0.0245,0.016,0.19825,0.0033570002,0.0390015,-0.00238025,1741898032.5225441
0.0205,0.114,-0.013375,-0.00801075,-0.000534,0.0089875,-0.017125,0.018625,0.122375,0.0053252503,0.0411225,-0.0027312501,1741898032.537036
0.015,0.128125,-0.01475,-0.008255,-0.00105275,0.00975025,-0.0055,0.00625,-0.007,0.000763,0.0315095,-0.0031127501,1741898032.554179
0.007375,0.138375,-0.014875,-0.0084379995,-0.0013427499,0.00962825,0.013875,0.00675,-0.108375,-0.008926501,0.015274,-0.00245675,1741898032.574124
-0.008125,0.14925,0.00175,-0.012847999,-0.001648,0.007904,-0.0375,0.03925,0.0465,-0.0040587503,-0.0022125002,-0.001419,1741898032.5837288
-0.054375,0.31725,-0.023625,-0.0189515,-0.001648,0.0023039998,-0.03675,0.015875,0.075,0.0064545004,0.0,-0.0014495,1741898032.59822
-0.00375,0.264,-0.053875,0.0021515,0.00283825,-0.01753225,-0.020375,-0.01125,0.0755,0.00801075,0.002121,0.0018615,1741898032.6146948
0.034625,0.10825,-0.037,0.019012501,0.00535575,-0.019592252,0.007875,-0.007125,0.0705,0.0017852499,-0.00157175,0.0028074998,1741898032.6273448
0.019625,0.084125,-0.020625,0.0272675,0.00296025,-0.01890575,0.01175,-0.0005,0.070875,-0.0033875,-0.0119934995,-0.00054925,1741898032.642015
0.013125,0.060875,0.01525,0.021789499,-0.00019825,-0.01570125,0.005875,0.001,0.06,-0.002777,-0.017044,-0.0017242499,1741898032.656627
0.01075,0.066625,0.029125,0.0138245,-0.00228875,-0.01092525,0.00525,0.002125,0.05125,-0.00054925,-0.024292,-0.00062550005,1741898032.6740868
0.009625,0.08225,0.03075,0.00074775,-0.0013275,-0.00201425,0.0085,0.01225,0.05625,-0.00016775,-0.026825001,-0.00013725001,1741898032.685884
0.016125,0.108,0.004125,-0.00175475,0.00045775,0.00093075,0.001875,0.01475,0.07775,0.000763,-0.03050225,-0.00059500005,1741898032.700732
0.020375,0.1075,-0.010625,-0.00148,0.002365,0.0033722501,-0.02175,0.005875,0.145625,0.0022735,-0.032318,-0.000946,1741898032.7153332
0.021875,0.103125,-0.02025,-0.00054925,0.00187675,0.00354,-0.031875,-0.002375,0.18675,0.0032347501,-0.0332795,0.00057975,1741898032.729955
0.019125,0.100625,-0.01475,0.00108325,0.000763,0.00331125,-0.04,-0.003875,0.238,0.0020752498,-0.0283355,0.00175475,1741898032.744627
0.014375,0.092125,-0.002625,0.000763,0.00071725,0.003769,-0.046,0.000625,0.258875,0.00064075,-0.0153502505,0.0021819999,1741898032.759255
0.014625,0.092375,-0.0015,-0.00065625,0.00077825,0.0049895,-0.067125,0.007375,0.292,0.0017395001,-0.0061339997,0.00160225,1741898032.7776499
0.016375,0.09575,-0.0035,-0.00517275,0.00054925,0.008636501,-0.063875,0.010875,0.28825,0.00738525,0.01705925,-0.00070200005,1741898032.789081
0.020125,0.1115,-0.014,-0.0073547503,0.00024425,0.01026925,-0.03425,0.01775,0.250625,0.010253999,0.026413,-0.00225825,1741898032.803536
0.019625,0.122375,-0.020875,-0.0102235,-0.00083925005,0.01156625,-0.02375,0.0185,0.225375,0.012085,0.033264253,-0.0039215,1741898032.818261
0.008625,0.142125,-0.026375,-0.010727,-0.001587,0.011123749,-0.019625,0.011625,0.164625,0.01326,0.041381747,-0.006775,1741898032.835082
-0.00425,0.14725,-0.007125,-0.012832751,-0.00239575,0.008316,-0.02375,0.006375,0.1325,0.013321,0.04335025,-0.0075225,1741898032.847328
-0.05475,0.291125,-0.002375,-0.01753225,-0.00181575,0.00331125,-0.026375,0.00275,0.0985,0.01251225,0.04429625,-0.00770575,1741898032.8618429
-0.014,0.261375,-0.039875,-0.00042725,0.0034484998,-0.016098,-0.011375,-0.013375,-0.07825,0.008941749,0.039855998,-0.008209251,1741898032.876648
0.039,0.112625,-0.040875,0.015564,0.00564575,-0.01820375,0.015375,-0.00775,-0.1535,-0.016448999,0.0119934995,-0.008270251,1741898032.8947048
0.026625,0.086375,-0.024625,0.023819,0.0055085,-0.017974751,0.025875,0.064625,-0.067625,-0.013992251,-0.00096125,-0.0080872495,1741898032.9061382
0.020125,0.066375,-0.006,0.01896675,-7.625e-05,-0.013321,0.002,0.0455,-0.01425,0.019775499,-0.0138245,-0.003769,1741898032.921016
0.012875,0.06175,0.030375,0.01121525,-0.0023039998,-0.0079955,-0.014,-0.025625,0.0555,0.025528,-0.01841725,-0.00149525,1741898032.9355211
0.008625,0.081625,0.03275,-0.00112925,-0.0012970001,0.00163275,-0.017625,-0.049875,0.080625,0.008224499,-0.025543248,-0.00061025,1741898032.954122
0.015375,0.1085,0.0045,-0.0030669998,0.00064075,0.0042725,-0.00475,-0.03175,0.105125,-0.00198375,-0.027709998,-0.0025634998,1741898032.96511
0.020625,0.109,-0.0125,-0.0025025,0.0022735,0.0057677496,-0.00125,-0.01925,0.109375,-0.0058287503,-0.0319825,-0.0068207504,1741898032.980059
0.020875,0.10825,-0.025375,-0.001709,0.00163275,0.0054932497,-0.023,-0.015625,0.1335,-0.0036010002,-0.03344725,-0.0062712496,1741898032.994907
0.016625,0.107375,-0.020875,1.5250001e-05,0.00051875,0.00466925,-0.041625,-0.024125,0.166,-0.0004425,-0.033462502,0.00148,1741898033.014109
0.01,0.104,-0.009,-0.00024425,0.00045775,0.00469975,-0.0775,-0.0435,0.248125,-0.000122000005,-0.02807625,0.0063477503,1741898033.024435
0.0095,0.104375,-0.0065,-0.00160225,0.00045775,0.0052947504,-0.0725,-0.03925,0.27325,0.0020905002,-0.00918575,0.009155249,1741898033.039051
0.011125,0.103875,-0.00575,-0.0057220003,0.00039675,0.0075225,-0.037125,-0.016,0.278375,0.0044250004,0.0002135,0.00723275,1741898033.0541272
0.016625,0.108125,-0.010375,-0.00747675,0.00035100002,0.008712751,-0.022125,-0.0045,0.268625,0.007187,0.01667775,0.0031127501,1741898033.0684538
0.01675,0.11875,-0.017625,-0.00868225,-0.0001525,0.00953675,-0.00775,0.01275,0.235875,0.0080415,0.024353001,0.001236,1741898033.082966
0.011,0.141375,-0.031125,-0.008499251,-0.00083925005,0.008941749,-0.00775,0.013875,0.2115,0.00874325,0.030899,-0.00068675,1741898033.0976021
0.006125,0.146125,-0.0255,-0.008865249,-0.00239575,0.00708,-0.009125,0.019375,0.154125,0.008255,0.039322,-0.00367725,1741898033.113436
-0.05825,0.268625,0.02775,-0.01361075,-0.0025025,0.0050965,-0.00975,0.025125,0.127625,0.0074920002,0.04145825,-0.0052795,1741898033.126882
-0.056,0.325125,-0.0155,-0.018280001,-0.0008545,-0.0038757501,-0.012625,0.0285,0.102875,0.00798025,0.04176325,-0.0102235,1741898033.1415858
0.044625,0.1445,-0.06925,0.0076905,0.006012,-0.022827249,-0.017625,-0.00225,-0.04075,0.0063477503,0.037597753,-0.01316825,1741898033.1562932
0.03875,0.10625,-0.051375,0.0225525,0.0064850003,-0.0229645,-0.005875,0.010125,-0.07575,-0.0104065,0.01741025,-0.01882925,1741898033.174592
0.02775,0.081125,-0.030625,0.0282745,0.001068,-0.02139275,0.00675,0.070875,-0.002625,-0.00469975,0.010528499,-0.022033751,1741898033.185736
0.02,0.04875,0.019125,0.022491502,-0.00254825,-0.0170135,-0.00025,0.046375,0.022875,0.028946,0.00068675,-0.0203705,1741898033.2002718
0.0095,0.06075,0.03575,0.0063934997,-0.0047607496,-0.00579825,0.001375,-0.04825,0.0385,0.03480525,-0.0063477503,-0.016739,1741898033.2159832
0.0105,0.097125,0.023625,0.00096125,-0.0034484998,-0.00187675,0.002,-0.074875,0.048375,0.016723748,-0.0187835,-0.01345825,1741898033.2294478
0.01925,0.10375,0.003875,-0.001831,-0.00061025,0.0021515,0.004375,-0.05275,0.069,0.0052337497,-0.022049,-0.014800999,1741898033.2441201
0.027625,0.10475,-0.024125,-0.00108325,-0.00048825,0.0025634998,0.006625,-0.03875,0.073375,-0.0022125002,-0.02619925,-0.016037,1741898033.258945
0.02575,0.104125,-0.024625,0.0001525,-0.00105275,0.00242625,-0.008125,-0.050625,0.10175,-0.0012665,-0.028656,-0.0125885,1741898033.2785559
0.022875,0.10075,-0.017875,0.0023497501,-0.0019225,0.0022125002,-0.023375,-0.062375,0.134125,-0.0030975002,-0.0299835,-0.00154125,1741898033.293856
0.01925,0.093125,-0.0,0.00184625,-0.00193775,0.00276175,-0.06225,-0.077625,0.221375,-0.005539,-0.027130252,0.0030365,1741898033.303277
0.018375,0.09275,0.00425,-0.00242625,-0.0016175,0.005539,-0.0775,-0.089,0.255375,-0.00419625,-0.01554875,0.0113525,1741898033.3179562
0.01675,0.09775,-0.00025,-0.0048674997,-0.0014495,0.00741575,-0.059125,-0.080375,0.2755,-0.0016632499,-0.0074920002,0.014724749,1741898033.33479
0.016,0.10225,-0.005125,-0.007904,-0.0015105,0.01083375,-0.02975,-0.057125,0.26175,0.00187675,0.009887749,0.01634225,1741898033.347444
0.0155,0.107125,-0.008625,-0.00794975,-0.0016175,0.011917,0.003375,-0.021875,0.230125,0.0026245,0.0172425,0.0153807495,1741898033.361902
0.0165,0.10525,-0.006625,-0.006012,-0.0015105,0.013000499,0.00625,-0.0075,0.211625,0.0028074998,0.02357475,0.01412975,1741898033.37633
0.025375,0.082875,-0.00125,-0.0052337497,-0.0011445,0.013854999,0.0055,0.00625,0.186875,0.002777,0.032821752,0.010253999,1741898033.3941262
0.026,0.07725,0.00025,-0.00538625,-0.00077825,0.015686,-0.00325,0.022625,0.12925,0.0021057501,0.0356445,0.0075682504,1741898033.4053068
0.01525,0.092375,-0.00175,-0.0077515002,-0.00062550005,0.019577,-0.005375,0.026,0.100375,-0.001526,0.037597753,0.002472,1741898033.4197812
-0.02425,0.155875,-0.02925,-0.010101249,-0.00125125,0.019897498,0.017875,0.016625,-0.07,-0.00788875,0.0329895,-0.00070200005,1741898033.434912
-0.045625,0.192875,-0.019375,-0.017303498,-0.00367725,0.01599125,0.033,0.044125,-0.086875,-0.02952575,0.010162249,-0.009201,1741898033.454731
-0.082,0.3355,-0.007625,-0.024704,-0.0033264998,0.0059967497,0.017375,0.0755,-0.0015,-0.018402,0.0030669998,-0.00991825,1741898033.463625
-0.01625,0.2545,-0.059,-0.004837,0.0065765,-0.015090999,0.0095,0.033375,0.02425,0.019012501,-0.009719751,-0.003418,1741898033.478286
0.015375,0.14875,-0.07075,0.0134735005,0.008484,-0.017868,0.004375,-0.060125,0.061875,0.0211335,-0.017044,-0.0016632499,1741898033.494872
0.006125,0.1235,-0.046875,0.02835075,0.0064239996,-0.02265925,-0.00325,-0.0695,0.0785,0.000412,-0.02474975,-0.0041810004,1741898033.507734
0.01775,0.068875,0.01375,0.02430725,0.0033570002,-0.018982,0.002875,-0.021125,0.075,-0.008499251,-0.0256805,-0.008194,1741898033.522451
0.0145,0.075,0.029,0.014923001,0.0002135,-0.013626001,0.00575,-0.00125,0.058375,-0.009903,-0.030578502,-0.0134735005,1741898033.537345
0.012,0.087625,0.025375,-0.0014037499,-0.0023497501,-0.0064545004,-0.0065,-0.0085,0.054125,-0.0077972496,-0.03474425,-0.012405501,1741898033.5550778
0.023,0.09675,-0.00575,-0.0033875,-0.0022735,-0.00428775,-0.021125,-0.02625,0.08725,-0.00741575,-0.03739925,-0.0093995,1741898033.5671208
0.027,0.096,-0.017625,-0.00083925005,-0.0025787498,-0.00177,-0.044625,-0.04675,0.1795,-0.010009751,-0.03739925,-0.0019225,1741898033.5819259
0.0245,0.0945,-0.02075,0.00086975005,-0.00308225,-0.00086975005,-0.05575,-0.0475,0.22575,-0.010894749,-0.037063498,0.0010375,1741898033.596637
0.022375,0.09,-0.012375,0.0028074998,-0.00328075,0.0012817499,-0.06775,-0.04825,0.2775,-0.0113525,-0.026657,0.0027312501,1741898033.6140149
0.0205,0.079625,0.0045,0.00213625,-0.0028229998,0.00276175,-0.069375,-0.043,0.29325,-0.00991825,-0.01838675,0.00302125,1741898033.626552
0.020125,0.07925,0.007125,0.00016775,-0.0023345,0.00463875,-0.066875,-0.039875,0.29725,-0.00305175,0.00390625,0.0048217503,1741898033.641199
0.018625,0.08425,0.004875,-0.0054932497,-0.001587,0.0089569995,-0.051,-0.0375,0.284625,0.0014495,0.0152435,0.006546,1741898033.6557481
0.014625,0.095375,-0.00475,-0.00785825,-0.00131225,0.01086425,-0.034,-0.0355,0.268125,0.0072937496,0.033889752,0.00830075,1741898033.675361
0.011375,0.1005,-0.009875,-0.00997925,-0.000763,0.0134735005,-0.02025,-0.029625,0.2235,0.0065612504,0.040664747,0.008133001,1741898033.684953
-0.00175,0.1225,-0.02275,-0.010086001,-0.00071725,0.0138702495,-0.0215,-0.01825,0.192875,0.0003815,0.04930125,0.0065917503,1741898033.6996229
-0.0085,0.135875,-0.02425,-0.01121525,-0.00157175,0.01248175,-0.0245,0.003625,0.121625,-0.00193775,0.05134575,0.00561525,1741898033.717202
-0.072,0.315625,-0.014875,-0.017028749,-0.00254825,0.008148249,-0.019625,0.011375,0.0365,-0.0044707498,0.04599,0.0038605002,1741898033.728916
-0.065625,0.379875,-0.042125,-0.012207,0.00010675,-0.01826475,0.014875,0.026,-0.147875,-0.015304499,0.03237925,0.001587,1741898033.7434618
0.043375,0.142625,-0.062625,0.009521499,0.0049895,-0.02471925,0.01725,0.068625,-0.092875,-0.021362249,0.007431,-0.0021057501,1741898033.759263
0.03575,0.08475,-0.046625,0.02510075,0.00798025,-0.023803748,-0.01925,0.039375,0.019875,-0.0028687501,0.00491325,0.0005035,1741898033.775014
0.0215,0.04975,-0.02925,0.027176,0.00411975,-0.01763925,-0.006375,0.001625,0.031375,0.01554875,-0.002884,0.006073,1741898033.787067
0.01075,0.04475,0.018,0.01927175,-0.000824,-0.011749251,0.02525,-0.043875,0.06625,0.0100707505,-0.00930775,0.005844,1741898033.801545
0.000875,0.074875,0.027125,-0.00030525,-0.00614925,-0.00402825,0.02375,-0.032375,0.089375,0.0017395001,-0.014328,0.00372325,1741898033.81627
0.00925,0.1075,0.005,-0.0054780003,-0.0057677496,-0.0023497501,0.01775,-0.003375,0.085,-0.0050965,-0.02082825,-0.00372325,1741898033.835265
0.0195,0.11175,-0.014125,-0.00561525,-0.0041504996,-0.00019825,0.01475,0.002,0.06775,-0.00384525,-0.02490225,-0.00614925,1741898033.845664
0.02725,0.113375,-0.035125,-0.0033264998,-0.0042115003,-0.00029,0.008,0.001,0.067375,-0.0021515,-0.031540003,-0.00564575,1741898033.8603368
0.025375,0.112,-0.030625,0.001068,-0.0050355,-0.00131225,-0.016,-0.011625,0.13675,-0.0026245,-0.031005751,-0.00381475,1741898033.8753731
0.020625,0.10225,-0.00575,0.00190725,-0.0048979996,-0.0013275,-0.02825,-0.0205,0.186875,-0.0037079998,-0.0235595,0.000183,1741898033.89483
0.02075,0.0955,0.0025,0.00137325,-0.00437925,-0.00068675,-0.05475,-0.04175,0.26625,-0.0022735,-0.018814,0.00177,1741898033.905177
0.0205,0.092,0.004375,-0.0025940002,-0.00328075,0.0021057501,-0.062,-0.051,0.282125,0.0027465,-0.0055695,0.0033875,1741898033.919904
0.020625,0.093625,-0.003625,-0.0046845004,-0.00292975,0.00372325,-0.04025,-0.05075,0.264625,0.00408925,0.00396725,0.00364675,1741898033.934515
0.020625,0.096125,-0.007375,-0.0071409997,-0.0025634998,0.0071409997,-0.022875,-0.040375,0.2465,0.0056304997,0.021164,0.00402825,1741898033.949336
0.016,0.100625,-0.00925,-0.00773625,-0.0025025,0.008773751,0.000875,-0.01675,0.200125,0.006256,0.0274505,0.00396725,1741898033.9637
0.013125,0.100625,-0.0075,-0.008865249,-0.0023497501,0.011810251,0.004875,-0.0075,0.172875,0.006668,0.034256,0.00355525,1741898033.978134
0.005,0.111875,-0.0065,-0.00976575,-0.00228875,0.013198749,0.004,0.005125,0.083625,0.0065612504,0.03521725,0.0032655,1741898033.995082
-0.015375,0.173375,-0.007375,-0.013503999,-0.00314325,0.00874325,0.008875,0.002875,-0.01475,-0.0052642496,0.023681749,0.00080875,1741898034.007266
-0.0395,0.341,-0.076875,-0.014846751,-0.00514225,-0.00270075,0.015,0.06575,-0.033625,-0.01579275,0.012496999,-0.00184625,1741898034.021833
0.008375,0.2725,-0.057875,-0.0057220003,-0.00561525,-0.01408375,0.00275,0.072,0.01375,-0.00059500005,0.0031127501,-0.0036162501,1741898034.036523
0.039,0.1605,-0.026875,0.01997375,0.00157175,-0.02015675,-0.0035,0.008,0.046125,0.0115967505,0.00027475,-0.00112925,1741898034.055358
0.027625,0.032125,0.0025,0.0212555,0.0034790002,-0.01596075,0.00525,-0.018375,0.059375,0.0119630005,-0.008865249,0.0014495,1741898034.0659368
0.019375,0.03575,0.011,0.0110015,-0.00143425,-0.00372325,0.013,-0.026125,0.0975,0.006012,-0.01133725,0.000229,1741898034.080448
0.0015,0.087375,0.021,0.00416575,-0.00419625,-0.002411,0.014,-0.012875,0.1045,0.001419,-0.01251225,-0.0026854998,1741898034.09503
-0.00075,0.098875,0.017125,-0.001648,-0.00263975,-0.001953,0.0145,-0.004125,0.09675,0.000824,-0.017455999,-0.009155249,1741898034.114187
0.0075,0.106625,-0.003,-0.00105275,-0.00010675,-6.1000002e-05,0.009625,-0.00125,0.0595,0.002121,-0.021606501,-0.010528499,1741898034.1243038
0.011125,0.110625,-0.0135,-0.00062550005,0.001953,0.002243,0.00775,-0.000375,0.044875,0.0021057501,-0.029129,-0.010681249,1741898034.1392179
0.014125,0.11225,-0.019625,-0.00067150005,0.001831,0.00225825,0.00825,0.00225,0.04475,0.00115975,-0.031997748,-0.01098625,1741898034.15533
0.0155,0.11,-0.016625,-0.0003205,0.00181575,0.0021819999,-0.002875,-0.00675,0.068,0.00071725,-0.03666675,-0.011901749,1741898034.168594
0.01725,0.10575,-0.013125,6.1000002e-05,0.002411,0.0028687501,-0.059,-0.042625,0.153625,0.001419,-0.040328998,-0.010559,1741898034.183267
0.019625,0.098625,-0.010125,-0.0007325,0.0025634998,0.00372325,-0.08525,-0.045125,0.200375,-3.0500001e-05,-0.0401765,-0.0077667497,1741898034.198055
0.01975,0.099375,-0.011125,-0.0041504996,0.0019989999,0.005783,-0.08875,-0.043,0.21625,-0.00016775,-0.032135,-0.008285499,1741898034.2175412
0.017375,0.103375,-0.014,-0.0058899997,0.0016632499,0.0070037497,-0.086125,-0.043375,0.2235,0.00434875,-0.019104,-0.00561525,1741898034.227445
0.016875,0.10325,-0.014,-0.0079955,0.0015105,0.010024999,-0.081375,-0.0625,0.23625,0.0072175004,-0.00935375,-0.0029755002,1741898034.2421482
0.016875,0.105375,-0.011875,-0.008499251,0.001526,0.011550999,-0.068375,-0.06725,0.238375,0.010589501,0.009781,0.00334175,1741898034.25923
0.01125,0.118375,-0.01125,-0.00880425,0.00146475,0.012680001,-0.04025,-0.05575,0.239375,0.00975025,0.0188445,0.00488275,1741898034.274548
-0.01325,0.185,-0.01,-0.010681249,0.00045775,0.0073242504,-0.0335,-0.043875,0.2365,0.005539,0.03244025,0.006256,1741898034.285915
-0.0445,0.354125,-0.078375,-0.012420749,-0.001526,-0.004242,-0.02775,-0.0175,0.208875,0.004303,0.036087003,0.0070647504,1741898034.300548
0.007375,0.277375,-0.06075,0.01177975,0.001236,-0.02153025,-0.024125,-0.009,0.182125,0.00437925,0.038818248,0.0081025,1741898034.315009
0.04125,0.072625,-0.013625,0.022827249,0.0049742498,-0.02174375,-0.01875,-0.00475,0.152375,0.004486,0.043289248,0.008590749,1741898034.335346
0.029,0.030625,-0.00375,0.02197275,0.0043182503,-0.011398249,-0.010375,-0.003375,0.108875,0.0037537501,0.044159,0.00801075,1741898034.3444679
0.007625,0.053,0.016875,0.0148772495,0.000412,-0.0059510004,-0.0115,0.00175,0.09475,0.001236,0.043762248,0.0059815003,1741898034.3589492
-0.002375,0.08475,0.019,0.0063477503,-0.0030975002,-0.00378425,0.01575,0.0195,-0.1055,-0.0063477503,0.038681,0.0025940002,1741898034.37586
0.00225,0.111125,0.00275,-0.001709,-0.0029907501,-0.0033875,0.038125,0.063375,-0.139375,-0.0318145,0.01036075,-0.009903,1741898034.388931
0.010625,0.1115,-0.010625,-0.00112925,-0.0007935,-0.0021972498,0.0105,0.066,-0.02025,-0.016388,0.0001525,-0.008850001,1741898034.402679
0.020375,0.107375,-0.023625,0.00029,0.000885,-0.00016775,-0.009375,0.015625,0.0215,0.0262145,-0.0135955,0.0052642496,1741898034.4173398
0.021625,0.106875,-0.020375,0.00061025,0.00061025,9.15e-05,-0.012875,-0.0545,0.0875,0.0256195,-0.01896675,0.0065612504,1741898034.435241
0.022375,0.10675,-0.013625,0.00086975005,0.00068675,0.00019825,-0.010125,-0.06075,0.0995,-0.00080875,-0.02197275,-0.0015105,1741898034.4468448
0.02225,0.1,-0.00525,0.00033575002,0.00105275,0.00054925,0.018125,-0.02075,0.088125,-0.01133725,-0.022827249,-0.0067445002,1741898034.4619598
0.0215,0.094875,-0.005125,-0.0023345,0.0014037499,0.0026092501,0.024375,-0.00225,0.0765,-0.0100555,-0.0295105,-0.011260999,1741898034.476654
0.019375,0.092875,-0.00725,-0.00399775,0.0012665,0.0041044997,0.009,-0.008625,0.060625,-0.0047912505,-0.0341035,-0.009948749,1741898034.49508
0.017625,0.094625,-0.008125,-0.0065917503,0.000824,0.0076905,-0.002375,-0.025625,0.07075,-0.00369275,-0.04072575,-0.0045625,1741898034.506515
0.016,0.097375,-0.00825,-0.00738525,0.00071725,0.0095672505,-0.0495,-0.04925,0.166625,-0.0068055,-0.0432435,-0.001007,1741898034.521246
0.019,0.094375,-0.006,-0.0081025,0.0007325,0.01148975,-0.0705,-0.046625,0.209625,-0.010391249,-0.036728002,0.0046539996,1741898034.5359628
0.02175,0.093375,-0.0025,-0.009292499,0.00109875,0.0152435,-0.080125,-0.04925,0.249625,-0.009613,-0.03047175,0.00561525,1741898034.555269
0.011625,0.1205,-0.006125,-0.0094604995,0.001526,0.016327,-0.0835,-0.053125,0.266,-0.0071105,-0.01310725,0.0065612504,1741898034.565634
-0.024375,0.224,-0.01775,-0.01228325,-0.00033575002,0.00880425,-0.080875,-0.04225,0.282375,-0.0060577504,-0.00059500005,0.0068969997,1741898034.5804858
-0.031875,0.339375,-0.067,-0.013839751,-0.00143425,-0.00514225,-0.070125,-0.032125,0.280375,-0.00190725,0.023620501,0.008361749,1741898034.595062
0.02725,0.218125,-0.05,0.01301575,0.0047607496,-0.016327,-0.04075,-0.013875,0.254625,0.00184625,0.034011748,0.008606,1741898034.614199
0.028125,0.09825,-0.0225,0.022796748,0.006836,-0.015304499,-0.026125,-0.009625,0.22725,0.0047455,0.042221002,0.00782775,1741898034.6242292
0.01225,0.071875,-0.016,0.024475,0.0063477503,-0.015029999,-0.0165,-0.007125,0.197625,0.0055847503,0.0485535,0.00561525,1741898034.6389031
0.009,0.051625,-0.001375,0.015274,0.0001525,-0.010009751,-0.016625,0.0035,0.140625,0.0045777503,0.049636748,0.00434875,1741898034.655361
0.003,0.07125,0.01425,0.00694275,-0.002884,-0.00747675,-0.019,0.011125,0.1125,0.0031585,0.050460752,0.0014037499,1741898034.667873
0.0035,0.094125,0.00625,-0.00184625,-0.0026245,-0.0033722501,-0.01875,0.02325,0.04325,0.00352475,0.049636748,-0.00027475,1741898034.682645
0.01475,0.10925,-0.015,-0.0014495,-0.00074775,-0.0013580001,-0.0045,0.0105,-0.05375,-0.008514499,0.0381775,-0.0066374997,1741898034.6973372
0.018875,0.106,-0.02175,-0.00036625,0.000412,0.00065625,0.03425,0.0725,-0.089125,-0.020782499,0.024932751,-0.011398249,1741898034.712379
0.022375,0.103375,-0.019375,-0.00061025,-0.0002595,0.0009155,0.0235,0.0835,-0.038,0.0031585,0.0076905,-0.013503999,1741898034.72665
0.022125,0.10075,-0.011375,-0.00105275,-0.00057975,0.00149525,0.00425,0.012625,-0.0005,0.0213775,0.00029,-0.0101165,1741898034.741171
0.018875,0.092,-0.00275,-0.0018615,-0.00016775,0.00245675,0.004125,-0.021625,0.01725,0.024292,-0.01582325,-0.008148249,1741898034.755865
0.016875,0.091625,-0.003625,-0.00334175,0.00010675,0.004013,-0.005,-0.04425,0.057,0.014419501,-0.0200805,-0.01054375,1741898034.774962
0.01425,0.095625,-0.00575,-0.007187,-9.15e-05,0.0075377496,-0.00175,-0.036375,0.066625,-0.00325,-0.023758,-0.01763925,1741898034.785683
0.010125,0.1035,-0.00975,-0.00874325,-0.0002135,0.00912475,-0.00275,-0.030875,0.088875,-0.00511175,-0.02630625,-0.019226,1741898034.800719
0.01175,0.1025,-0.008875,-0.0102845,0.0001525,0.01239025,-0.013375,-0.04225,0.09625,0.0005035,-0.03627025,-0.014434749,1741898034.81558
0.020125,0.09775,-0.003125,-0.010452249,0.00057975,0.014068499,-0.0395,-0.06275,0.132125,0.00279225,-0.04435725,-0.008545,1741898034.83517
0.017875,0.10825,-0.006625,-0.01020825,0.0014037499,0.015976,-0.044125,-0.055875,0.152,-0.0017852499,-0.04499825,-0.0013580001,1741898034.845195
-0.00725,0.16575,-0.028625,-0.009903,0.0015105,0.0158385,-0.044,-0.051125,0.170625,-0.0053405,-0.03923025,-6.1000002e-05,1741898034.8599858
-0.041125,0.262625,-0.033375,-0.01412975,-0.0010375,0.00541675,-0.06275,-0.07275,0.18975,-0.00646975,-0.0343475,0.009887749,1741898034.875437
-0.01725,0.28375,-0.04275,-0.013702501,0.00010675,-0.00737,-0.099375,-0.101,0.24375,-0.0056609996,-0.02699275,0.016693002,1741898034.895203
0.027375,0.172875,-0.04325,-0.00119025,0.0039215,-0.014938249,-0.0925,-0.07975,0.27075,-0.00517275,-0.015442001,0.02101125,1741898034.904234
0.028875,0.126625,-0.0415,0.02401725,0.007019,-0.01637275,-0.060875,-0.0225,0.30675,-0.0065155,0.011612001,0.01728825,1741898034.919032
-0.005375,0.102625,-0.025125,0.0261535,0.0053405,-0.0194245,-0.0415,-0.003625,0.297375,-0.0068665,0.0263825,0.0119934995,1741898034.93517
0.0025,0.06575,-0.004375,0.016861,0.00048825,-0.01628125,-0.018625,0.005,0.265375,6.1000002e-05,0.0480805,0.0069580004,1741898034.94834
0.011375,0.079,0.008875,0.0081025,-0.00181575,-0.011321999,-0.0005,0.001375,0.185125,0.00372325,0.05030825,0.007782,1741898034.962695
0.014125,0.100625,0.000375,-0.0012817499,-0.00213625,-0.00543225,-0.00375,0.003625,0.1525,0.0044555003,0.04954525,0.009613,1741898034.977267
0.021125,0.107,-0.019125,-0.00090025004,-0.001114,-0.0042267498,-0.005875,0.02,0.07225,0.0017242499,0.050003,0.008667,1741898034.9950762
0.023,0.103625,-0.025875,0.001114,-0.00131225,-0.0034942501,0.016875,0.015125,-0.069625,-0.016739,0.038971,0.00102225,1741898035.0064828
0.025125,0.103,-0.023,0.0013580001,-0.00238025,-0.00325,0.029125,0.099875,-0.111625,-0.035034247,0.0218505,-0.0059510004,1741898035.021206
0.025,0.09925,-0.014125,0.001236,-0.00314325,-0.0028687501,0.00425,0.113875,-0.032625,-0.0077972496,0.0037995,-0.00737,1741898035.035913
0.0245,0.09325,-0.006625,-0.00045775,-0.0030365,-0.00086975005,-0.02325,-0.001,0.0225,0.017868,-0.0015105,0.00035100002,1741898035.0551832
0.023625,0.08525,-0.002375,-0.00193775,-0.0027312501,0.0007935,-0.010875,-0.04325,0.032,0.024353001,-0.01576225,0.007187,1741898035.065095
0.02325,0.0855,-0.003375,-0.0050202496,-0.002472,0.0046845004,0.000125,-0.067125,0.074625,0.01133725,-0.02088925,0.0044555003,1741898035.079875
0.021,0.0915,-0.004125,-0.00617975,-0.00242625,0.00665275,-0.002875,-0.048625,0.088625,-0.01228325,-0.02357475,-0.0045165,1741898035.0949109
0.01725,0.094625,-0.00375,-0.0077667497,-0.00216675,0.01020825,0.005,-0.005375,0.0765,-0.0148315,-0.025085501,-0.0071409997,1741898035.1148102
0.0125,0.088,0.00525,-0.008255,-0.001587,0.01200875,0.009375,0.002375,0.0585,-0.0066374997,-0.034073003,-0.00555425,1741898035.124458
0.015125,0.07825,0.01325,-0.00842275,0.00125125,0.01693725,0.005625,-0.015375,0.065,-0.003662,-0.038955748,-0.0031889998,1741898035.139094
0.021,0.070375,0.01875,-0.00845325,0.0030975002,0.02000425,-0.0045,-0.029625,0.095375,-0.0036315,-0.042175252,-0.00099175,1741898035.156369
0.01425,0.089875,0.005625,-0.00880425,0.00466925,0.02301025,-0.0265,-0.031625,0.170875,-0.0075682504,-0.04824825,0.0049895,1741898035.168712
-0.006625,0.1385,0.002875,-0.013626001,0.005066,0.0240325,-0.041125,-0.025,0.208625,-0.009002751,-0.047943,0.00697325,1741898035.183388
-0.094625,0.383,-0.055625,-0.023254499,0.00314325,0.01589975,-0.06425,-0.036375,0.246875,-0.0065002497,-0.0345155,0.0045625,1741898035.198072
-0.057875,0.364,-0.083875,-0.01121525,0.0055085,-0.01095575,-0.07975,-0.03875,0.278,-0.005066,-0.03005975,0.0043335,1741898035.219639
0.021125,0.155625,-0.0795,0.01095575,0.009933501,-0.014419501,-0.091875,-0.037,0.304125,-0.00413525,-0.00567625,0.0048217503,1741898035.2274659
0.002375,0.147875,-0.068125,0.03070075,0.009842,-0.0197295,-0.083375,-0.03,0.305125,-0.00263975,0.01033025,0.00541675,1741898035.2420511
0.00325,0.08925,-0.033375,0.030014,0.00665275,-0.02165225,-0.071375,-0.02475,0.292125,0.00302125,0.035827752,0.0068665,1741898035.256762
0.005875,0.07825,-0.0145,0.02330025,0.0020599999,-0.01988225,-0.045625,-0.01775,0.238125,0.0052795,0.043747,0.0061950004,1741898035.274879
0.0035,0.084,-0.004,0.005783,-0.004303,-0.0135345,-0.03725,-0.015375,0.212625,0.0074615004,0.0494385,0.0050965,1741898035.285887
0.010875,0.109125,-0.013375,0.000946,-0.005005,-0.01086425,-0.034625,-0.008,0.151625,0.00715625,0.0538025,0.00428775,1741898035.300417
0.018375,0.113,-0.023125,-0.000122000005,-0.0055085,-0.008727999,-0.029375,-0.001875,0.108125,0.0046539996,0.0578155,0.0027312501,1741898035.3150358
0.02325,0.1095,-0.031375,0.0013275,-0.0062865,-0.0088805,0.018125,0.0075,-0.144,-0.0043182503,0.0432435,0.0025787498,1741898035.3339589
0.024,0.105125,-0.026125,0.005249,-0.0074615004,-0.009094249,0.037125,0.072375,-0.1355,-0.023407,0.018310498,-0.00715625,1741898035.344478
0.028875,0.082625,-0.001,0.0060882503,-0.0076905,-0.008316,-0.03025,0.048875,-0.002125,-0.009521499,0.0138702495,-0.01042175,1741898035.359093
0.02775,0.071375,0.0125,0.0042572496,-0.0068665,-0.0043182503,-0.051375,0.0,0.018375,0.023178,0.0045625,0.0061035,1741898035.3748422
0.02475,0.055375,0.025,0.0024414998,-0.0055237496,-0.00148,0.00075,-0.040125,0.03,0.021514999,-0.00334175,0.00935375,1741898035.388232
0.0255,0.053125,0.0245,0.00033575002,-0.00393675,0.0019225,0.01375,-0.037875,0.04775,0.0119630005,-0.0106965,0.0068969997,1741898035.4027252
0.026875,0.058875,0.02,-0.004074,-0.0013427499,0.009597749,0.01175,-0.02775,0.07025,-0.00640875,-0.01829525,-0.00314325,1741898035.417721
0.022625,0.076,0.012625,-0.00621025,-0.00059500005,0.0129395,0.008,-0.005875,0.09075,-0.008514499,-0.020813,-0.0058899997,1741898035.434399
0.021,0.07275,0.0155,-0.009277251,0.0016632499,0.01857,0.01,-0.001375,0.081625,-0.00267025,-0.028900249,-0.00491325,1741898035.447395
0.010625,0.087125,0.0035,-0.010299751,0.00317375,0.0213775,0.014125,-0.008375,0.058625,-0.00019825,-0.033035252,-0.0033264998,1741898035.462094
-0.00425,0.1175,-0.017625,-0.014099,0.00393675,0.02354425,0.0135,-0.011125,0.064375,-0.0020752498,-0.040710498,-0.00184625,1741898035.476761
-0.051125,0.2145,-0.045625,-0.017700251,0.00302125,0.02189625,-0.02775,-0.0235,0.156125,-0.00440975,-0.045181252,-6.1000002e-05,1741898035.494109
-0.07875,0.317375,-0.0665,-0.0279235,-0.0015565,0.0057677496,-0.057875,-0.033,0.215125,-0.0039825,-0.0436095,0.0057677496,1741898035.506651
0.006125,0.2295,-0.057625,-0.01646425,0.00029,-0.0060577504,-0.07375,-0.039375,0.27075,-0.0029907501,-0.03489675,0.00585925,1741898035.521575
0.023125,0.155375,-0.048,0.00320425,0.0050202496,-0.01272575,-0.066875,-0.03775,0.27425,-0.00292975,-0.00953675,0.0030975002,1741898035.536296
0.010625,0.136625,-0.041125,0.02342225,0.00764475,-0.018310498,-0.0775,-0.031375,0.30725,-0.0023345,0.00160225,0.00270075,1741898035.5552902
0.012375,0.08875,-0.011125,0.021698,0.0051880004,-0.0187835,-0.078375,-0.022625,0.31725,0.003662,0.027557248,0.00416575,1741898035.5656052
0.01425,0.084625,0.001625,0.00546275,-0.00108325,-0.012329,-0.04,-0.013375,0.268625,0.00744625,0.038757253,0.00396725,1741898035.5802329
0.011375,0.1105,0.0065,-0.000763,-0.001892,-0.00924675,-0.028125,-0.01675,0.237625,0.0100707505,0.04841625,0.00225825,1741898035.594868
0.011875,0.11575,0.000375,-0.0021819999,0.0004425,-0.0065155,-0.03,-0.015125,0.169,0.008407501,0.053100497,0.0012665,1741898035.6148639
0.012625,0.110625,-0.013375,-0.00045775,0.0012665,-0.0063934997,-0.023,-0.0005,0.1015,0.00190725,0.058914248,-0.00187675,1741898035.6240551
0.01225,0.10925,-0.01525,0.00238025,0.0014037499,-0.006363,0.037625,0.0185,-0.199375,-0.012191749,0.046127252,-0.0062712496,1741898035.638704
0.014,0.108875,-0.010625,0.0032195,0.0017395001,-0.0059967497,0.03075,0.0685,-0.145375,-0.0279235,0.00845325,-0.013382,1741898035.6579049
0.015375,0.110125,-0.01075,0.0033722501,0.00238025,-0.0053709997,-0.064125,0.019,0.0255,-0.0038757501,0.005844,-0.0057525,1741898035.667934
0.0165,0.1135,-0.01325,0.001953,0.003418,-0.0041810004,-0.06175,-0.022625,0.036375,0.01849375,0.0063325,0.00640875,1741898035.682549
0.01875,0.1175,-0.01875,0.0013275,0.003662,-0.00393675,0.017375,-0.0515,0.040625,0.0180665,-0.0033875,0.013321,1741898035.69803
0.0215,0.112375,-0.01925,0.00042725,0.00352475,-0.00320425,0.033125,-0.036625,0.054,0.00590525,-0.009781,0.008148249,1741898035.711753
0.024375,0.10075,-0.01525,-0.0003815,0.0031127501,-0.0021972498,0.02875,-0.018625,0.072875,-0.0077972496,-0.01879875,-0.00372325,1741898035.726493
0.022875,0.100125,-0.013125,-0.0026092501,0.0022125002,0.00030525,0.000875,-0.004,0.08225,-0.006073,-0.0230865,-0.00538625,1741898035.741216
0.017875,0.10675,-0.013625,-0.00358575,0.001892,0.0013275,-0.007375,-0.004125,0.064125,-0.00062550005,-0.03170775,-0.0025025,1741898035.75599
0.0165,0.11075,-0.015875,-0.00428775,0.0016175,0.0021972498,0.002875,-0.00125,0.02775,-0.001648,-0.0351715,-0.0012207499,1741898035.774652
0.016,0.11475,-0.01825,-0.0050812503,0.00093075,0.0034637498,0.008375,0.002,0.038625,-0.00637825,-0.041137747,-0.0009155,1741898035.7854872
0.0155,0.12275,-0.022125,-0.005249,0.00045775,0.00381475,-0.02525,-0.01125,0.131375,-0.00646975,-0.044632,9.15e-05,1741898035.800259
0.015375,0.12525,-0.022875,-0.005066,-0.00045775,0.004074,-0.045875,-0.013,0.17975,-0.006012,-0.047821,0.004074,1741898035.8149781
0.015625,0.12375,-0.020125,-0.0047455,-0.0007325,0.0041504996,-0.044625,-0.017625,0.1905,-0.0057677496,-0.041687,0.003662,1741898035.8348942
0.0155,0.12275,-0.0185,-0.0040587503,-0.000946,0.0042267498,-0.045625,-0.026375,0.19675,-0.0065765,-0.03816225,0.0028687501,1741898035.844566
0.015625,0.12575,-0.0185,-0.00372325,-0.000946,0.0040587503,-0.081125,-0.03125,0.267,-0.008026,-0.03256225,0.00305175,1741898035.859405
0.01575,0.128875,-0.01975,-0.00325,-0.00102225,0.00334175,-0.09325,-0.025875,0.297,-0.0073395,-0.00737,0.0047150003,1741898035.874253
0.01525,0.132,-0.0205,-0.0030365,-0.00102225,0.002884,-0.0875,-0.02075,0.304625,-0.0052185003,0.00737,0.00561525,1741898035.889486
0.014,0.131125,-0.020125,-0.0027312501,-0.0008545,0.0024414998,-0.072875,-0.0145,0.2885,-0.000183,0.0343475,0.00596625,1741898035.905548
0.01225,0.130125,-0.020375,-0.00201425,-0.00035100002,0.0017395001,-0.035125,-0.005,0.2285,0.002121,0.042358503,0.0048674997,1741898035.92
0.010375,0.12525,-0.019375,-0.00160225,-0.000183,0.00137325,-0.030625,-0.00475,0.209,0.0048217503,0.04350275,0.0037079998,1741898035.934994
0.01,0.122375,-0.018375,-0.00090025004,9.15e-05,0.00080875,-0.038875,-0.008375,0.1615,0.00517275,0.0464935,0.0037537501,1741898035.9551601
0.009,0.121125,-0.0185,-0.00068675,0.0002135,0.00054925,-0.040125,-0.01,0.13425,0.0028229998,0.0552825,0.0027465,1741898035.964048
0.00875,0.121125,-0.01925,-0.0005035,0.00042725,0.00042725,-0.02575,0.002375,0.007625,0.000885,0.0555725,0.00169375,1741898035.978303
0.009625,0.12075,-0.020125,-0.00048825,0.00051875,0.00057975,0.008625,0.018125,-0.157625,-0.02326975,0.02879325,-0.008499251,1741898035.994758
0.009875,0.12,-0.0205,-0.00045775,0.00061025,0.00080875,0.029125,0.05025,-0.13975,-0.028900249,0.0070952503,-0.01257325,1741898036.0078049
0.00925,0.121,-0.021625,-0.00065625,0.00059500005,0.00115975,-0.0275,0.0165,-0.034125,0.014282251,-0.0073395,0.00517275,1741898036.0225
0.00925,0.120375,-0.02175,-0.00086975005,0.00051875,0.00125125,-0.047,-0.017125,0.079125,0.0263215,-0.0066374997,0.0123442495,1741898036.0370991
0.0095,0.119375,-0.02175,-0.0011445,0.0005035,0.00148,-0.0185,-0.034125,0.0955,0.02186575,-0.0067597497,0.01121525,1741898036.053844
0.01,0.119375,-0.021875,-0.0012207499,0.000473,0.0015565,0.024625,-0.027625,0.08625,-0.0060882503,-0.01454175,0.00064075,1741898036.066591
0.00975,0.120125,-0.021875,-0.0012665,0.00045775,0.00157175,0.02525,-0.007,0.07625,-0.01301575,-0.021362249,-0.00396725,1741898036.081216
0.00875,0.122875,-0.02275,-0.00125125,0.00045775,0.001587,0.015,0.007,0.059,-0.00590525,-0.034011748,-0.00617975,1741898036.096071
0.0085,0.1235,-0.02275,-0.001175,0.000473,0.001526,-0.00975,0.0015,0.04475,-0.0013885,-0.03819275,-0.00384525,1741898036.115312
0.0085,0.125,-0.023125,-0.001068,0.0005035,0.001419,-0.027375,-0.005375,0.077375,-0.00367725,-0.03904725,0.0021819999,1741898036.1255932
0.00875,0.12475,-0.02275,-0.00093075,0.00054925,0.00125125,-0.0585,-0.008125,0.183625,-0.00611875,-0.03645325,0.004547,1741898036.140439
0.009,0.124,-0.022375,-0.0005645,0.00071725,0.0009765,-0.058,-0.008375,0.216375,-0.0065765,-0.030777,0.00402825,1741898036.156744
0.009625,0.12275,-0.0225,-0.0004425,0.00077825,0.00096125,-0.055375,-0.013625,0.264375,-0.0061339997,-0.0283355,0.002121,1741898036.169984
0.01,0.12275,-0.022875,-0.0002595,0.000824,0.00090025004,-0.059875,-0.012875,0.279125,-0.0037995,-0.012207,0.00065625,1741898036.18464
0.009625,0.123,-0.02325,-0.00019825,0.0007935,0.0007935,-0.060625,-0.0065,0.28075,-0.00169375,-0.0007935,0.00090025004,1741898036.1993852
0.009125,0.122875,-0.023375,-3.0500001e-05,0.0007325,0.00048825,-0.058,-0.007375,0.274,0.0026245,0.020782499,0.00137325,1741898036.215168
0.00875,0.121625,-0.024125,-1.5250001e-05,0.00068675,0.00035100002,-0.04175,-0.00175,0.251875,0.00390625,0.028411752,0.0010375,1741898036.234198
0.009125,0.120125,-0.024,0.0,0.00062550005,0.00027475,-0.029625,0.006125,0.231125,0.0046845004,0.04055775,-0.001526,1741898036.243325
0.00925,0.11925,-0.023625,0.00013725001,0.00045775,0.00039675,-0.023375,0.010375,0.182875,0.0049742498,0.04499825,-0.002777,1741898036.257952
0.00925,0.1175,-0.02375,9.15e-05,0.00036625,0.0004425,-0.026875,0.008375,0.155875,0.0039215,0.050231997,-0.00334175,1741898036.2755651
0.009375,0.115375,-0.02425,-7.625e-05,1.5250001e-05,0.001007,-0.024625,0.0055,0.080375,0.0023039998,0.050659247,-0.003006,1741898036.2870421
0.008375,0.116875,-0.025375,-0.0002595,-0.00024425,0.001526,-0.011625,-0.004,-0.04075,-0.010894749,0.036972,-0.005005,1741898036.301952
0.008125,0.11825,-0.025875,-0.0010375,-0.00070200005,0.00231925,0.0185,0.01575,-0.1395,-0.02563475,0.019027751,-0.0073547503,1741898036.316542
0.00725,0.119125,-0.024125,-0.0015105,-0.00090025004,0.00251775,-0.00575,0.041375,-0.050375,-0.024643,0.0052337497,-0.0063325,1741898036.335472
0.00575,0.120625,-0.023125,-0.00238025,-0.00099175,0.002533,-0.037375,0.00225,0.061875,0.0125275,0.0019225,0.0013885,1741898036.3459141
0.0035,0.12625,-0.02275,-0.0026245,-0.00096125,0.002411,-0.020875,-0.035125,0.072125,0.016876249,0.002121,0.00270075,1741898036.360449
0.003375,0.12875,-0.02225,-0.002655,-0.000885,0.0021972498,0.000875,-0.043875,0.071375,-0.00125125,-0.0054780003,0.001114,1741898036.3750029
0.00375,0.13025,-0.021875,-0.00184625,-0.0004425,0.0013885,0.02475,-0.01625,0.067,-0.0067445002,-0.01193225,-0.001953,1741898036.394867
0.005125,0.13025,-0.021125,-0.0011445,-7.625e-05,0.00086975005,0.017625,-0.013125,0.054,-0.003662,-0.02586375,-0.0052947504,1741898036.4050171
0.005875,0.128625,-0.02075,0.0002135,0.00071725,0.0,0.00125,-0.01475,0.02375,-0.0022735,-0.031433,-0.0036010002,1741898036.4197388
0.00725,0.1245,-0.020375,0.00067150005,0.001007,-0.00024425,0.00325,-0.008625,0.025875,-0.0037385002,-0.0375825,0.001175,1741898036.4346082
0.00775,0.12275,-0.020625,0.00108325,0.0012817499,-0.000412,-0.021125,-0.007375,0.109125,-0.0036162501,-0.039367747,0.00296025,1741898036.4549692
0.00775,0.121875,-0.02275,0.00108325,0.00131225,-0.00042725,-0.043,-0.01225,0.15775,-0.0022125002,-0.0417175,0.00668325,1741898036.463819
0.00775,0.121625,-0.023875,0.00086975005,0.0012055,-0.00042725,-0.054625,-0.010625,0.207375,-0.002777,-0.039184503,0.00611875,1741898036.478734
0.007875,0.122,-0.024625,0.0007935,0.00112925,-0.000412,-0.052625,-0.004375,0.222375,-0.0034942501,-0.0289765,0.0024872501,1741898036.49545
0.00775,0.121875,-0.025,0.000763,0.00108325,-0.00045775,-0.066875,0.00525,0.2725,-0.0021972498,-0.0219115,0.0021972498,1741898036.508013
0.00775,0.12125,-0.02525,0.0007935,0.0010375,-0.00057975,-0.072875,0.006875,0.2905,0.0027465,-0.00254825,0.00340275,1741898036.5225449
0.008125,0.1185,-0.024875,0.00074775,0.00096125,-0.00054925,-0.062375,0.007,0.289,0.0047912505,0.00891125,0.003418,1741898036.536982
0.008,0.117875,-0.0245,0.00035100002,0.00064075,-0.00030525,-0.0485,0.010375,0.273375,0.0060272496,0.029724,0.0010375,1741898036.553371
0.00725,0.118125,-0.024625,0.00013725001,0.0004425,-0.00013725001,-0.027125,0.015875,0.22425,0.00567625,0.036239497,-0.00102225,1741898036.566336
0.006875,0.11875,-0.024625,-0.000183,3.0500001e-05,0.00030525,-0.024375,0.016125,0.200375,0.0054015,0.03952025,-0.00270075,1741898036.580885
0.006875,0.12075,-0.02425,-0.00030525,-0.0001525,0.0005035,-0.034125,0.012375,0.1565,0.0058899997,0.04429625,-0.0033875,1741898036.59543
0.006875,0.122,-0.02425,-0.00039675,-0.00029,0.00062550005,-0.0375,0.007875,0.131625,0.0057372497,0.04724125,-0.003128,1741898036.6106
0.007,0.122625,-0.02425,-0.00039675,-0.00045775,0.00057975,-0.0325,0.004375,0.082375,0.00314325,0.04853825,-0.0032195,1741898036.624672
0.007,0.1225,-0.0235,-0.0003205,-0.00048825,0.0005645,0.018625,-0.0255,-0.19125,-0.0065612504,0.036499,-0.004486,1741898036.639437
0.00675,0.12275,-0.023125,-0.000229,-0.00048825,0.0004425,0.025625,0.00075,-0.174375,-0.02153025,-0.001648,-0.00239575,1741898036.65729
0.0065,0.122375,-0.022125,-0.000183,-0.000473,0.0003205,-0.049875,0.025875,0.0545,-0.0033570002,-0.0060425,0.00187675,1741898036.6688051
0.006375,0.12225,-0.021875,-0.00010675,-0.000412,0.0001525,-0.055125,-0.015125,0.115375,0.0177765,0.003418,0.0075835,1741898036.6834219
0.00575,0.124125,-0.0225,-4.575e-05,-0.000412,9.15e-05,0.0235,-0.044875,0.082875,0.00903325,0.0028229998,0.0073395,1741898036.700005
0.0055,0.125,-0.022625,0.000122000005,-0.0003815,-6.1000002e-05,0.048125,-0.032,0.05675,-0.00747675,-0.01570125,0.00160225,1741898036.714543
0.005375,0.125125,-0.0225,0.00029,-0.00030525,-0.00013725001,0.007625,-0.029625,0.041625,-0.00747675,-0.025711,7.625e-05,1741898036.727434
0.00525,0.124875,-0.0225,0.000473,-0.00019825,-0.00024425,-0.011125,-0.02675,0.036125,-0.0049590003,-0.03453075,0.00520325,1741898036.745482
0.004875,0.125375,-0.022625,0.00080875,-0.00010675,-0.00048825,0.00225,0.011625,0.051875,-0.0045625,-0.03468325,0.00874325,1741898036.759936
0.004875,0.125375,-0.022875,0.0009155,-7.625e-05,-0.00064075,0.01025,0.02825,0.079125,-0.00239575,-0.03373725,0.009384249,1741898036.7748501
0.00475,0.125125,-0.023125,0.00102225,9.15e-05,-0.00086975005,-0.018,0.018875,0.16175,-0.0012817499,-0.034958,0.00744625,1741898036.794576
0.004375,0.124125,-0.023375,0.0010375,0.000122000005,-0.0009765,-0.037375,0.017875,0.20175,-0.00354,-0.036026,0.0036162501,1741898036.8037262
0.004125,0.123875,-0.023125,0.00119025,7.625e-05,-0.0013885,-0.064125,0.02,0.260125,-0.00463875,-0.030639749,0.00059500005,1741898036.818357
0.005125,0.122625,-0.021875,0.0013580001,0.00010675,-0.00157175,-0.08375,0.008375,0.288375,-0.00157175,-0.013122501,-0.00143425,1741898036.833707
0.006375,0.123375,-0.02175,0.0017852499,0.00024425,-0.00169375,-0.104125,-0.01375,0.3165,0.00067150005,-0.0008545,-0.0003205,1741898036.847936
0.00875,0.126875,-0.023125,0.00201425,0.00030525,-0.00181575,-0.087625,-0.01575,0.302,0.0038299998,0.026000999,0.0012055,1741898036.8626199
0.009375,0.1275,-0.02425,0.002243,0.0003205,-0.00204475,-0.0395,-0.006375,0.245125,0.0048674997,0.036132753,0.0011445,1741898036.877336
0.00975,0.126,-0.0245,0.0028074998,0.000229,-0.0025634998,-0.02625,-0.00375,0.21225,0.0055237496,0.042831503,0.0002135,1741898036.8941429
0.009875,0.12325,-0.02275,0.0030365,0.00010675,-0.002777,-0.02725,-0.0005,0.150125,0.005066,0.04350275,0.0005645,1741898036.906721
0.00975,0.123625,-0.022125,0.00296025,-0.0002135,-0.00317375,-0.028375,0.001,0.1155,0.0013580001,0.047973752,0.001175,1741898036.92131
0.009625,0.125875,-0.02175,0.0028687501,-0.00030525,-0.0033264998,0.009125,0.00425,-0.068375,-0.0002135,0.04666125,0.001175,1741898036.9357939
0.0095,0.12675,-0.021875,0.002884,-0.00045775,-0.00358575,0.0545,-0.011,-0.235,-0.02418525,0.0114440005,-0.0012207499,1741898036.95456
0.009,0.12725,-0.022,0.0029907501,-0.00054925,-0.003769,0.0115,0.072,-0.08,-0.02417,-0.010299751,0.00048825,1741898036.9654348
0.009125,0.125875,-0.0215,0.0033570002,-0.00068675,-0.0042115003,-0.04125,0.054625,0.060375,-0.00434875,-0.0160065,0.00201425,1741898036.9801788
0.0095,0.1245,-0.02025,0.0034637498,-0.000763,-0.00437925,-0.026375,-0.0315,0.137,0.0148772495,-0.00119025,0.004303,1741898036.995732
0.009625,0.125125,-0.02025,0.00352475,-0.000824,-0.004547,0.01725,-0.0255,0.097625,0.0063934997,-4.575e-05,0.0048065,1741898037.014596
0.010375,0.127375,-0.0205,0.0034637498,-0.00099175,-0.0048217503,0.03125,-0.0155,0.047375,-0.00590525,-0.018875,-0.001953,1741898037.0341928
0.011,0.127875,-0.02025,0.00340275,-0.00112925,-0.0049590003,0.001625,-0.012875,0.048,-0.0061645,-0.0345,-0.0051574996,1741898037.044211
0.01125,0.127375,-0.019875,0.00352475,-0.0013580001,-0.00543225,-0.02425,-0.000125,0.062875,-0.0045012496,-0.035461497,-0.0023039998,1741898037.0591629
0.01175,0.123875,-0.018875,0.00364675,-0.00146475,-0.0056915004,-0.02925,-0.0005,0.09675,-0.00105275,-0.0345765,0.0050202496,1741898037.074016
0.012,0.12075,-0.017875,0.00402825,-0.00146475,-0.006012,-0.05675,-0.0105,0.18125,-0.0015565,-0.03244025,0.0063477503,1741898037.088536
0.011875,0.117875,-0.017,0.00408925,-0.00143425,-0.0060425,-0.05875,-0.00575,0.20425,-0.00579825,-0.026840251,0.0041044997,1741898037.103253
0.0125,0.11675,-0.0165,0.003662,-0.00148,-0.00585925,-0.05425,0.0075,0.23125,-0.00596625,-0.02253725,0.0025634998,1741898037.118044
0.0145,0.113875,-0.016125,0.00325,-0.001526,-0.0054932497,-0.053625,0.00675,0.241125,-0.00102225,-0.0100555,0.0030365,1741898037.136446
0.015375,0.112625,-0.01625,0.002472,-0.00175475,-0.00437925,-0.0525,0.00725,0.25625,0.001068,-0.00228875,0.00390625,1741898037.147254
0.01725,0.106375,-0.01525,0.0021819999,-0.001831,-0.00369275,-0.04725,0.012,0.25525,0.0022125002,0.015152001,0.0033875,1741898037.1618931
0.018375,0.101125,-0.013625,0.00184625,-0.00184625,-0.0028074998,-0.02975,0.022,0.23325,0.00251775,0.022369498,0.0020599999,1741898037.177975
0.01975,0.095375,-0.011125,0.0005035,-0.0019225,-0.0002135,-0.0235,0.024125,0.216125,0.00355525,0.03028875,-0.00137325,1741898037.193473
0.022125,0.08475,-0.0055,-0.00039675,-0.00190725,0.0014495,-0.018625,0.02175,0.174,0.00402825,0.033432,-0.00267025,1741898037.2056699
0.02225,0.082625,-0.004375,-0.0021057501,-0.0014037499,0.0054780003,-0.019,0.01625,0.1525,0.00372325,0.038955748,-0.0037079998,1741898037.220358
0.020125,0.087125,-0.007125,-0.003128,-0.001114,0.0076142503,-0.014125,0.006625,0.080375,0.0028535,0.04025275,-0.0036010002,1741898037.2350998
0.0195,0.088625,-0.008375,-0.0060882503,-0.00096125,0.011688249,0.011875,-0.012375,-0.062375,0.0019685,0.0379485,-0.003418,1741898037.254328
0.02325,0.081125,-0.005625,-0.00770575,-0.00099175,0.013626001,0.01475,-0.012125,-0.14425,-0.01622,0.003952,-0.00064075,1741898037.2643242
0.024625,0.08025,-0.004,-0.009933501,-0.00029,0.016983,-0.038,0.041375,0.002,-0.0166625,-0.012039251,0.002243,1741898037.279128
0.0075,0.126375,0.01325,-0.0101775,0.000824,0.018020751,-0.073125,0.038375,0.1245,0.00791925,-0.0002135,0.0018615,1741898037.294505
-0.04175,0.2575,-0.014375,-0.0127105,0.0022735,0.0157165,-0.016,-0.020125,0.13375,0.01033025,0.008865249,0.0031127501,1741898037.3082728
-0.070875,0.384125,-0.05725,-0.015396,0.00074775,-0.00912475,0.028125,-0.0205,0.0835,0.0007935,-0.00160225,0.00119025,1741898037.322986
0.021875,0.19125,-0.0485,0.01498425,0.009811499,-0.019165002,0.02225,-0.016625,0.045375,-0.00225825,-0.01358025,-0.002243,1741898037.337877
0.03575,0.065875,-0.038625,0.0210725,0.01133725,-0.014145001,-0.006125,-0.0105,0.052125,-0.0004425,-0.02619925,-0.002533,1741898037.354312
0.0265,0.06925,-0.032,0.02038575,0.009262,-0.009231499,-0.018125,0.004,0.06275,0.002243,-0.0263215,0.00054925,1741898037.367166
0.016625,0.0795,-0.0175,0.00891125,0.00033575002,-0.006363,-0.00725,0.008125,0.06475,0.00378425,-0.0256195,0.004486,1741898037.3817542
0.00425,0.091125,0.00125,0.0029145,-0.0023497501,-0.00617975,-0.00325,0.007375,0.097,0.0019685,-0.02769475,0.00372325,1741898037.396342
0.005625,0.106625,-0.004125,-0.00146475,-0.00238025,-0.00358575,-0.01925,0.00625,0.128375,-0.0020599999,-0.0329895,0.0009765,1741898037.413088
0.018375,0.124125,-0.024875,-0.00083925005,-0.00177,-0.0026854998,-0.045125,0.0155,0.1865,-0.00296025,-0.033584498,0.00042725,1741898037.425816
0.022875,0.122625,-0.029125,0.001114,-0.0023345,-0.0021819999,-0.050875,0.01925,0.211625,-0.0011445,-0.026596,-0.000183,1741898037.440773
0.028125,0.11975,-0.025875,0.0016632499,-0.00305175,-0.002243,-0.0585,0.021,0.2485,-0.00039675,-0.02000425,-0.000885,1741898037.4556642
0.029625,0.1175,-0.0205,0.002243,-0.003891,-0.0024414998,-0.068375,0.019,0.26825,0.00080875,-0.0029145,-0.0020599999,1741898037.4741042
0.031,0.102625,-0.00775,0.00239575,-0.003769,-0.00239575,-0.072125,0.009125,0.27875,0.00276175,0.00794975,-0.00239575,1741898037.484878
0.02975,0.094625,-0.003375,0.002121,-0.00340275,-0.0020752498,-0.058625,0.006375,0.267125,0.0059815003,0.02708425,-0.00328075,1741898037.4994292
0.028,0.089625,-0.001375,0.00013725001,-0.0025787498,-0.00027475,-0.038,0.00675,0.234625,0.0060272496,0.03338625,-0.0042267498,1741898037.514018
0.0275,0.085125,-0.002,-0.00109875,-0.0021972498,0.0013275,-0.034625,0.008625,0.213375,0.0055237496,0.03771975,-0.0053252503,1741898037.5293329
0.027125,0.084,-0.003625,-0.0034790002,-0.00149525,0.005783,-0.034,0.00725,0.187625,0.0048065,0.04493725,-0.0063477503,1741898037.543162
0.022,0.085875,-0.006375,-0.0047912505,-0.0012970001,0.0080872495,-0.030875,0.00075,0.12975,0.0041044997,0.0482635,-0.0061645,1741898037.5576289
0.020375,0.085375,-0.006125,-0.0073242504,-0.000763,0.012039251,-0.0225,-0.005375,0.086625,0.0021972498,0.048782248,-0.0050355,1741898037.5739598
0.0175,0.095,-0.00925,-0.008361749,-0.00033575002,0.01374825,0.021875,-0.04325,-0.16075,-0.002472,0.038345248,-0.00367725,1741898037.587231
0.011625,0.1125,-0.01925,-0.0110932505,-0.0004425,0.01586925,0.01925,-0.025375,-0.15925,-0.020752002,0.0019989999,0.001007,1741898037.6019032
-0.006125,0.15575,-0.0295,-0.012695249,-0.0013275,0.015854,-0.051375,0.041875,0.031375,-0.01148975,-0.0037385002,0.0007935,1741898037.6168268
-0.037125,0.2385,-0.042375,-0.014846751,-0.0025940002,0.013641249,-0.05225,0.006875,0.088875,0.012924249,0.0032347501,0.0025025,1741898037.6312478
-0.05825,0.333,-0.068375,-0.0170135,-0.00596625,-0.00590525,0.00275,-0.039375,0.09775,0.012909001,0.003296,0.0049285004,1741898037.645916
0.031375,0.177375,-0.03075,-0.0011445,-0.002472,-0.014068499,0.028125,-0.033,0.0785,0.0026092501,-0.0073395,0.0023039998,1741898037.6604311
0.043625,0.087625,-0.020375,0.0241395,0.0055237496,-0.012771499,0.02525,-0.0255,0.05275,-0.00048825,-0.0153655,-0.0003205,1741898037.677867
0.009,0.0785,-0.022375,0.02262875,0.0038757501,-0.010788,0.0065,-0.02175,0.047875,-0.000946,-0.0273895,0.0009155,1741898037.693671
0.006125,0.072875,-0.009375,0.009216251,-0.0036162501,-0.0067902496,-0.00075,0.00475,0.037125,0.0001525,-0.030243,0.0033264998,1741898037.7042801
0.00325,0.08675,0.012625,0.0021057501,-0.0055237496,-0.004013,0.007,0.017,0.036,0.001892,-0.0342865,0.005249,1741898037.719001
0.00425,0.1015,0.00925,-0.00225825,-0.002533,-6.1000002e-05,0.00875,0.025,0.05675,0.001526,-0.036911,0.00428775,1741898037.733506
0.012,0.108875,-0.013125,-0.00090025004,-0.00039675,0.001007,-0.00175,0.023625,0.08,0.00071725,-0.0400085,0.0026854998,1741898037.74806
0.01525,0.1075,-0.02125,0.00029,0.000473,0.00148,-0.018,0.0205,0.112,-0.00083925005,-0.04859925,0.0,1741898037.762753
0.017375,0.107625,-0.024,0.0005645,-0.0001525,0.00198375,-0.06725,0.023125,0.204625,-0.003006,-0.05233775,-0.00042725,1741898037.7775218
0.019,0.1065,-0.014875,0.000412,-0.0002135,0.00239575,-0.0925,0.027125,0.247375,-0.00491325,-0.046646,-0.0037995,1741898037.794534
0.019125,0.10325,-0.01075,-0.00061025,0.00070200005,0.0036315,-0.123375,0.023375,0.299375,-0.00369275,-0.03572075,-0.0050965,1741898037.807165
0.0205,0.09925,-0.01225,-0.0018005001,0.00102225,0.0044555003,-0.12525,0.01575,0.310625,0.0034942501,-0.0005645,-0.0050812503,1741898037.821831
0.021,0.101,-0.01575,-0.0045012496,0.00105275,0.00637825,-0.0905,0.001875,0.29325,0.007599,0.016418502,-0.00488275,1741898037.836437
0.019875,0.109,-0.02175,-0.0056,0.00086975005,0.0073395,-0.06375,0.003125,0.275125,0.010513251,0.038314752,-0.0062712496,1741898037.853611
0.01825,0.11275,-0.02275,-0.00643925,0.00062550005,0.008255,-0.0485,0.001875,0.24325,0.01083375,0.04489125,-0.0065917503,1741898037.865547
0.015375,0.116625,-0.0235,-0.0076295,0.00010675,0.00947575,-0.0475,-0.00075,0.2145,0.00930775,0.05163575,-0.0059967497,1741898037.880248
0.004625,0.131125,-0.030875,-0.008361749,-0.000412,0.009613,-0.0345,-0.00325,0.147125,0.007431,0.051513746,-0.006012,1741898037.894916
-0.01075,0.1695,-0.03,-0.011169501,-0.002777,0.00590525,-0.029375,-0.005875,0.12375,0.0060882503,0.05099475,-0.0059815003,1741898037.914242
-0.0335,0.299,-0.055875,-0.013839751,-0.0045625,-0.0020752498,0.01575,-0.034875,-0.132875,0.00384525,0.04792775,-0.0063477503,1741898037.9241621
0.006875,0.237875,-0.0475,0.00611875,-0.00035100002,-0.015518251,0.041125,-0.04325,-0.2125,-0.02056875,0.0116425,-0.00555425,1741898037.938808
0.024125,0.1,-0.031125,0.0178985,0.0027312501,-0.0157165,-0.065375,0.025875,0.02125,-0.01655575,-0.0039215,-0.00352475,1741898037.9541912
0.006125,0.09375,-0.0285,0.0205535,0.000763,-0.01463325,-0.097875,0.0095,0.11325,0.014389,0.006546,0.004593,1741898037.9683268
0.008,0.072875,-0.006,0.01631175,-0.0020599999,-0.01295475,-0.018875,-0.03625,0.117,0.0177155,0.0129700005,0.0073395,1741898037.982889
0.013,0.078,0.002875,0.009719751,-0.0048979996,-0.010024999,0.0275,-0.029625,0.081125,0.01272575,0.01145925,0.0067597497,1741898037.997542
0.019125,0.1035,-0.001375,-0.00061025,-0.00662225,-0.0048065,0.046125,-0.019375,0.059625,0.00228875,-0.00617975,-0.00115975,1741898038.0141802
0.02075,0.1075,-0.01025,-0.0012817499,-0.00543225,-0.0028687501,0.01875,-0.01325,0.0565,0.001892,-0.014297499,-0.0033875,1741898038.026762
0.022375,0.107125,-0.019,0.001175,-0.00381475,-0.000763,0.00375,-0.009375,0.0565,0.0035095,-0.0217285,-0.00054925,1741898038.041621
0.026375,0.102375,-0.0235,0.0019685,-0.00416575,-0.00054925,0.005875,0.0145,0.056,0.003418,-0.0226745,0.001648,1741898038.056291
0.027375,0.099,-0.01775,0.0024414998,-0.00488275,-1.5250001e-05,0.011875,0.023,0.062625,0.00119025,-0.024993999,0.001175,1741898038.075242
0.025125,0.091125,-0.005125,0.0019685,-0.0046845004,0.00071725,-0.005875,0.01925,0.1165,-0.00035100002,-0.027679501,-0.0002595,1741898038.0856152
0.023125,0.0875,-0.002125,-0.00070200005,-0.0036315,0.0035095,-0.027,0.01,0.158875,-0.00013725001,-0.032409754,-0.00036625,1741898038.100333
0.020875,0.091,-0.004,-0.002472,-0.00308225,0.0053709997,-0.060625,-0.006625,0.226,0.000763,-0.029724,6.1000002e-05,1741898038.1169121
0.01975,0.096375,-0.006875,-0.00621025,-0.00245675,0.0084379995,-0.066375,-0.01,0.241,0.0002135,-0.01440425,-0.00143425,1741898038.129927
0.017375,0.101125,-0.010625,-0.0078125,-0.0021972498,0.00975025,-0.072875,-0.0195,0.262875,-0.00016775,-0.0047302498,-0.0017242499,1741898038.144995
0.01425,0.105875,-0.012375,-0.0089569995,-0.0018005001,0.01095575,-0.0745,-0.02325,0.27125,0.0021057501,0.01519775,0.00080875,1741898038.159602
0.008625,0.116125,-0.0165,-0.0104065,-0.001068,0.012085,-0.04425,-0.016375,0.2485,0.00416575,0.02409375,0.00201425,1741898038.174162
-0.025625,0.205375,-0.037625,-0.0114440005,-0.0015565,0.010940501,-0.024125,-0.01225,0.224875,0.006607,0.033905,0.001831,1741898038.189614
-0.043625,0.288,-0.052875,-0.01637275,-0.0050355,-0.00408925,-0.013375,-0.01025,0.181875,0.0057677496,0.03671275,0.0017395001,1741898038.203528
0.029125,0.162125,-0.02175,-0.0063934997,-0.0020295,-0.01013175,-0.013625,-0.00575,0.158,0.00131225,0.041992247,0.001892,1741898038.218186
0.036375,0.094875,-0.013625,0.01631175,0.0048065,-0.008727999,0.01575,0.0045,-0.007625,-0.001587,0.04125975,0.0012207499,1741898038.234734
-0.001875,0.105875,-0.030875,0.016159,0.00334175,-0.0091705,0.042375,-0.001875,-0.119375,-0.01065075,0.032364,-0.00071725,1741898038.247367
-0.0015,0.101375,-0.023625,0.0073395,-0.002777,-0.0077667497,0.03225,0.02375,-0.087125,-0.019394,0.00494375,-0.00119025,1741898038.262074
0.009125,0.096125,0.00425,0.002243,-0.00453175,-0.0049590003,-0.064875,0.02025,0.0955,-0.00267025,0.00343325,0.00267025,1741898038.276672
0.010875,0.105375,0.008375,-0.00071725,-0.00419625,-0.0023345,-0.062625,-0.004875,0.130375,0.01019275,0.0115967505,0.0070647504,1741898038.294569
0.012375,0.113375,0.00375,0.00083925005,0.00029,0.000183,0.01875,-0.013875,0.096125,0.00428775,0.012405501,0.005783,1741898038.3059788
0.01675,0.118875,-0.01575,0.0021819999,0.0016632499,0.000229,0.046875,-0.0015,0.069625,-0.00340275,0.0026092501,-0.0028074998,1741898038.320662
0.02025,0.11775,-0.020875,0.0021972498,0.00157175,-0.00051875,0.042625,0.00425,0.044125,-0.0020905002,-0.005249,-0.0062407497,1741898038.335237
0.0255,0.10925,-0.016375,0.001831,0.0013427499,-0.00074775,0.02625,-0.001125,0.041875,0.0019225,-0.01731875,-0.00570675,1741898038.354572
0.025125,0.10325,-0.01225,0.0011445,0.0017242499,-7.625e-05,0.009375,-0.00325,0.04475,0.00184625,-0.020049999,-0.00355525,1741898038.364543
0.022875,0.093875,-0.0095,0.0004425,0.00201425,0.00090025004,0.01325,-0.000625,0.050375,-0.0018005001,-0.0236665,-0.0018005001,1741898038.3795671
0.0225,0.092125,-0.01025,-0.000534,0.0021972498,0.0022277501,-0.0,-0.006125,0.112375,-0.0036010002,-0.0254975,-0.001892,1741898038.39521
0.02225,0.0925,-0.01175,-0.00292975,0.0020905002,0.0054475004,-0.020125,-0.013625,0.150375,-0.004486,-0.026947001,-0.00086975005,1741898038.414528
0.022375,0.093625,-0.015375,-0.0041504996,0.0019225,0.00708,-0.051375,-0.02025,0.2115,-0.0040587503,-0.02845775,0.00065625,1741898038.424086
0.02275,0.094125,-0.01625,-0.00668325,0.0014495,0.010162249,-0.069125,-0.020125,0.24225,-0.00160225,-0.019333,0.0020752498,1741898038.438876
0.02475,0.09425,-0.013625,-0.0077210004,0.0012970001,0.0115967505,-0.076625,-0.016125,0.264375,-0.00013725001,-0.0085602505,0.00148,1741898038.454394
0.025875,0.093875,-0.0115,-0.0087585,0.00154125,0.01446525,-0.064125,-0.017375,0.26,0.00279225,0.014099,0.0019989999,1741898038.468184
0.015,0.114875,-0.0185,-0.0089569995,0.001709,0.01570125,-0.02725,-0.014375,0.2405,0.0043335,0.022369498,0.00242625,1741898038.482732
-0.0165,0.181875,-0.02275,-0.013733,0.0003815,0.0110932505,-0.00875,-0.0075,0.223125,0.0056,0.03297425,0.00051875,1741898038.497407
-0.0755,0.40275,-0.09,-0.0203095,-0.00279225,-0.00045775,0.00375,-0.00025,0.177,0.0051269997,0.0365295,-0.0003815,1741898038.514281
-0.008875,0.303,-0.07325,-0.01248175,-0.0031127501,-0.0142365,0.003375,0.003625,0.151375,0.00411975,0.038558997,-0.000473,1741898038.526477
0.0385,0.063625,-0.030625,0.029571502,0.00845325,-0.020904498,0.00475,0.007125,0.084875,0.00108325,0.03506475,0.0005035,1741898038.5409899
0.01575,0.054375,-0.0255,0.033722,0.00903325,-0.017883249,0.036375,0.000375,-0.11725,-0.007431,0.023376498,0.0012207499,1741898038.5557
0.005625,0.04725,-0.015875,0.020279,0.000229,-0.012557999,0.02425,0.03425,-0.061875,-0.014618,-0.000824,0.0012207499,1741898038.5756538
-0.00075,0.063625,0.00625,0.01013175,-0.004303,-0.00833125,-0.0305,0.041375,0.088,-0.0032655,-0.00036625,0.000946,1741898038.585078
-0.001,0.091125,0.0085,-0.002365,-0.0053252503,-0.00231925,-0.019,0.01425,0.114,0.00587475,0.0061645,0.001648,1741898038.5995882
0.013875,0.115,-0.010875,-0.00239575,-0.0030365,-0.00070200005,0.019875,-0.013625,0.1145,0.002472,0.0060577504,0.001953,1741898038.6170611
0.0205,0.110875,-0.020875,0.00119025,-0.00059500005,0.00067150005,0.03,-0.013,0.101625,-0.00289925,-0.00051875,-0.00231925,1741898038.628851
0.02825,0.09675,-0.020375,0.0020752498,-0.0007935,0.00083925005,0.020625,-0.036625,0.068875,-0.00308225,-0.0067445002,-0.0032195,1741898038.64379
0.029875,0.092375,-0.0115,0.00184625,-0.00070200005,0.0016632499,0.011375,-0.04425,0.05725,-0.0047302498,-0.01794425,0.0019685,1741898038.659318
0.0265,0.0785,0.006625,0.00083925005,0.00024425,0.0027465,0.0135,-0.018,0.04875,-0.0061645,-0.0211945,0.00579825,1741898038.675128
0.02275,0.0785,0.006125,-0.00102225,0.0014495,0.004547,0.022,0.005375,0.053125,-0.00585925,-0.026275748,0.01013175,1741898038.687659
0.019375,0.0845,0.00025,-0.0065917503,0.00242625,0.00880425,0.016,0.016,0.101375,-0.00369275,-0.02905275,0.010788,1741898038.702178
0.0155,0.08875,-0.0085,-0.00903325,0.002411,0.010742251,-0.00925,-0.002875,0.155375,-0.00115975,-0.030883752,0.011535751,1741898038.716973
0.01625,0.089,-0.010375,-0.01197825,0.002655,0.0143737495,-0.051375,-0.026125,0.2475,0.000473,-0.0272065,0.013427749,1741898038.734677
0.0095,0.122375,-0.0315,-0.0129395,0.0025025,0.01548775,-0.05225,-0.0165,0.26075,-0.00125125,-0.02265925,0.01324475,1741898038.74633
-0.000125,0.1485,-0.038375,-0.014053251,0.0012207499,0.014358499,-0.05,-0.008125,0.25425,-0.0054932497,-0.00437925,0.0089569995,1741898038.761048
-0.06525,0.30775,-0.04675,-0.0177155,-0.00010675,0.00985725,-0.049625,-0.009875,0.2445,-0.00531,0.00585925,0.007843,1741898038.7757509
-0.05175,0.35175,-0.058,-0.021331752,-0.00154125,0.00039675,-0.043625,-0.00975,0.24375,-0.001068,0.022338752,0.0093385,1741898038.794295
0.0465,0.1265,-0.0435,0.010162249,0.00640875,-0.01651,-0.010375,0.002625,0.21775,0.00059500005,0.02835075,0.009643501,1741898038.805054
0.031,0.092625,-0.039375,0.024947999,0.00930775,-0.016723748,0.00125,0.008875,0.194,0.0014037499,0.03559875,0.00782775,1741898038.819477
0.00875,0.094,-0.0335,0.023803748,0.00367725,-0.017624,0.00225,0.017,0.14975,0.001114,0.036849998,0.0068055,1741898038.83456
0.00175,0.07175,-0.00525,0.01734925,-0.0002595,-0.0157165,-0.001625,0.023125,0.128125,-0.00074775,0.03657525,0.00402825,1741898038.8540401
0.001875,0.081875,0.003,0.00390625,-0.0040435,-0.0070647504,0.0345,0.012,-0.112875,-0.009872501,0.025177,0.00093075,1741898038.862977
0.00625,0.124,-0.0075,0.00067150005,-0.00328075,-0.00444025,0.051375,0.05675,-0.13425,-0.024932751,0.0014495,-0.00561525,1741898038.877532
0.013625,0.130625,-0.018875,0.0013580001,-0.00102225,-0.004013,-0.021375,0.066375,0.00475,-0.0065612504,-0.0022735,-0.0072175004,1741898038.894918
0.026,0.1275,-0.03125,0.0025634998,-0.0008545,-0.00546275,-0.0535,0.005875,0.06525,0.019455,-0.0071409997,0.001068,1741898038.907064
0.029,0.125,-0.03,0.0043944996,-0.0012207499,-0.0091095,-0.040375,-0.046125,0.128125,0.012756251,-0.00671375,0.0043639997,1741898038.921772
0.02775,0.113625,-0.015,0.0048979996,-0.00108325,-0.010253999,-0.0135,-0.024625,0.125875,0.001953,-0.0047455,0.0049590003,1741898038.936468
0.025625,0.10675,-0.007125,0.0048217503,-0.00071725,-0.010604749,0.0285,0.0025,0.086625,-0.0071105,-0.0072175004,-0.00263975,1741898038.954595
0.024125,0.100875,-0.002625,0.0030365,4.575e-05,-0.00935375,0.022875,-0.004125,0.07,-0.0051574996,-0.0141755,-0.005539,1741898038.965992
0.023875,0.08925,-0.00025,0.00201425,0.00035100002,-0.00798025,0.010625,-0.008125,0.059875,-0.0027160002,-0.02674875,-0.004242,1741898038.9805481
0.024125,0.083125,0.0,0.00086975005,0.00102225,-0.0037995,-0.003375,0.000375,0.078625,-0.00238025,-0.02886975,-0.0021972498,1741898038.9954429
0.02475,0.074,0.0005,0.00033575002,0.0013885,-0.00115975,-0.01175,0.00325,0.109,-0.000534,-0.02690125,0.0004425,1741898039.014626
0.025375,0.073,0.0005,-0.00187675,0.00193775,0.00453175,-0.02,-0.0045,0.155375,-0.00054925,-0.024780251,0.00105275,1741898039.024828
0.026875,0.07475,-0.00175,-0.0036315,0.0020599999,0.0073395,-0.01675,-0.00625,0.16875,-0.0016785001,-0.0254365,0.0022735,1741898039.039555
0.02675,0.07675,-0.00375,-0.0057220003,0.00204475,0.010147001,-0.0235,0.006375,0.215625,-0.00137325,-0.024582,0.0022125002,1741898039.0545862
0.0255,0.079625,-0.00525,-0.0102845,0.0016175,0.015579251,-0.0325,0.0115,0.23475,0.00065625,-0.0128175,0.00102225,1741898039.075853
0.023375,0.08475,-0.007125,-0.01222225,0.0015105,0.01794425,-0.0535,0.012,0.26475,0.00181575,-0.0050355,0.00083925005,1741898039.083458
0.02,0.091375,-0.010375,-0.0148925,0.0015565,0.0211335,-0.0535,0.013375,0.267875,0.0038605002,0.015518251,-0.0005035,1741898039.0980978
0.0005,0.129625,-0.033375,-0.01599125,0.0014037499,0.02124025,-0.02075,0.018375,0.237375,0.00444025,0.0255585,-0.001831,1741898039.113118
-0.009875,0.151375,-0.047875,-0.018615749,-0.00016775,0.0184785,-0.0055,0.017,0.215875,0.0039825,0.035019003,-0.0054932497,1741898039.127386
-0.066,0.3135,-0.066625,-0.02342225,-0.0029145,0.013549751,-0.008375,0.010125,0.190125,0.0033722501,0.036789,-0.0065765,1741898039.142155
-0.05975,0.369125,-0.067625,-0.022827249,-0.00372325,-0.01121525,-0.014625,0.009,0.1675,0.002411,0.041504003,-0.0065155,1741898039.15671
0.044125,0.13675,-0.054875,0.000763,0.0031127501,-0.018035999,0.011875,-0.02375,-0.064875,0.00054925,0.03840625,-0.0058899997,1741898039.174987
0.02825,0.104,-0.054125,0.0217285,0.00773625,-0.01811225,0.01725,-0.027875,-0.104,-0.005539,0.0265655,-0.0031585,1741898039.185947
0.002125,0.08225,-0.02825,0.02943425,0.0041044997,-0.020401,-0.037,0.033,0.0295,-0.013046251,0.00411975,0.00102225,1741898039.20046
0.009625,0.057125,-0.002625,0.02313225,-0.0001525,-0.01814275,-0.0345,0.033375,0.062,-0.007431,0.0047302498,-0.00064075,1741898039.215055
0.012125,0.05875,0.015,0.0025940002,-0.0059205,-0.0059815003,-0.00575,0.014875,0.067375,0.0014037499,0.0070342496,-0.00108325,1741898039.235067
0.01425,0.093125,0.011125,-0.0036315,-0.00538625,-0.0013885,0.0295,-0.01725,0.0735,0.001587,0.0035704998,0.00077825,1741898039.244332
0.019625,0.103625,-0.003375,-0.0034637498,-0.000824,0.0023497501,0.034625,-0.01575,0.0785,0.00035100002,-0.00543225,0.00112925,1741898039.2588701
0.026875,0.1105,-0.033375,-0.0013885,0.00035100002,0.00184625,0.01975,-0.02275,0.075125,0.000824,-0.01092525,0.00067150005,1741898039.274509
0.028125,0.112375,-0.037625,0.00099175,-0.0009155,-7.625e-05,0.007625,-0.027875,0.06325,0.00024425,-0.0212555,0.00279225,1741898039.288063
0.026375,0.107875,-0.023875,0.0013580001,-0.00149525,-0.00070200005,0.006375,-0.019875,0.032875,-0.0011445,-0.0253295,0.00444025,1741898039.3029718
0.023125,0.102125,-0.01625,0.00102225,-0.00137325,-0.00080875,0.01275,-0.00825,0.029625,-0.0038605002,-0.032409754,0.005844,1741898039.3176792
0.017125,0.09625,-0.011125,-0.002121,-0.0005035,0.00080875,0.01075,0.014125,0.06425,-0.003952,-0.0355225,0.00593575,1741898039.334303
0.015625,0.098875,-0.013875,-0.00428775,-0.00036625,0.0022125002,-0.008875,0.0165,0.110125,-0.0012665,-0.03866575,0.00741575,1741898039.347061
0.014875,0.104375,-0.01875,-0.00723275,-0.00068675,0.0047607496,-0.054375,0.0015,0.2,0.00105275,-0.0386505,0.00935375,1741898039.361717
0.0145,0.1115,-0.0265,-0.00773625,-0.00096125,0.00564575,-0.06575,0.00175,0.234,0.00231925,-0.037277248,0.0110015,1741898039.376276
0.0135,0.112375,-0.02675,-0.007843,-0.00125125,0.0072937496,-0.07,0.0205,0.260625,0.001068,-0.02737425,0.008941749,1741898039.3950741
0.012625,0.11275,-0.024625,-0.0080872495,-0.00131225,0.00817875,-0.06375,0.031125,0.265,-4.575e-05,-0.01481625,0.0060272496,1741898039.4054568
0.013,0.1155,-0.023875,-0.009582501,-0.0015565,0.00975025,-0.050125,0.041375,0.275,0.0020295,0.0057677496,0.0017852499,1741898039.4199622
0.01,0.129875,-0.0285,-0.0104674995,-0.0017395001,0.010024999,-0.038875,0.041125,0.26875,0.0047150003,0.0153502505,0.000534,1741898039.434907
0.007125,0.137875,-0.0325,-0.01104725,-0.001953,0.00982675,-0.026875,0.036875,0.25125,0.0076599997,0.03190625,-0.0030975002,1741898039.4550972
-0.023625,0.252625,-0.062625,-0.01148975,-0.0035704998,0.0052642496,-0.01325,0.0255,0.210625,0.0066985004,0.035553,-0.0056304997,1741898039.463711
-0.026375,0.299,-0.0725,-0.01171875,-0.0057677496,-0.00440975,-0.0125,0.024125,0.190375,0.003418,0.041076753,-0.00918575,1741898039.478257
0.005,0.231125,-0.0515,0.01098625,-0.0015565,-0.020141501,-0.017625,0.017625,0.07925,0.0020295,0.043090753,-0.01020825,1741898039.494823
0.027875,0.064375,-0.010625,0.022521999,0.002121,-0.01841725,-0.000375,0.01175,0.081625,-0.03367625,-0.0690765,-0.012802,1741898039.507553
0.011,0.057625,-0.004375,0.0186005,0.001526,-0.010513251,0.00825,-0.056875,0.027875,-0.029998751,-0.088653505,0.013626001,1741898039.5222862
0.008125,0.07325,0.000125,0.012039251,-0.00051875,-0.00712575,-0.02925,0.012625,-0.039875,0.0088805,0.053710997,0.03208925,1741898039.5369642
0.012625,0.075,0.0,0.001068,-0.0028535,-0.0019989999,-0.0405,0.045125,0.01575,0.0064239996,0.071762,-0.006668,1741898039.555917
0.01775,0.0875,-0.006375,-0.0013885,-0.0020599999,0.00061025,-0.013875,-0.001,0.01925,0.00968925,0.04544075,-0.022583,1741898039.566356
0.017,0.0985,-0.01325,-0.0015105,-0.000229,0.00267025,0.0195,-0.0525,0.04625,0.005844,0.01431275,-0.008072,1741898039.580975
0.0175,0.11025,-0.029625,0.0004425,0.00254825,0.0034637498,0.002125,-0.035375,0.093875,-0.003128,-0.01918025,0.00491325,1741898039.598412
0.01925,0.111125,-0.03175,0.00045775,0.00251775,0.00325,-0.001,-0.014375,0.09075,-0.00251775,-0.01914975,0.002243,1741898039.610414
0.02075,0.1105,-0.030375,-0.00137325,0.00148,0.0033722501,0.00225,-0.01625,0.063875,-0.0008545,-0.020874001,-0.0001525,1741898039.625033
0.020625,0.109375,-0.027875,-0.002533,0.00102225,0.00364675,-0.00375,0.00075,0.048875,-0.001007,-0.030639749,0.0009155,1741898039.63969
0.019625,0.109375,-0.027875,-0.0043335,0.00019825,0.00408925,-0.011,0.013375,0.069625,-0.0012817499,-0.03323375,0.002472,1741898039.655827
0.0175,0.113,-0.02925,-0.0049285004,-0.00030525,0.0042572496,-0.02625,0.014625,0.100625,0.0023497501,-0.032852247,0.00514225,1741898039.675143
0.017,0.11425,-0.0285,-0.0054932497,-0.0012207499,0.0048674997,-0.0585,-0.00925,0.161,0.00399775,-0.033141997,0.0069580004,1741898039.683659
0.01625,0.11175,-0.02375,-0.0054475004,-0.0012665,0.00541675,-0.064375,-0.014,0.188875,0.00245675,-0.02879325,0.0086975,1741898039.6985102
0.01625,0.109,-0.0215,-0.0052337497,-0.00099175,0.0061339997,-0.05875,0.00475,0.24,0.001526,-0.022873,0.00741575,1741898039.714098
0.01825,0.102,-0.017875,-0.0047150003,0.00013725001,0.0078735,-0.058625,0.019125,0.264875,0.0026092501,-0.00889575,0.0036315,1741898039.727722
0.019625,0.098875,-0.016,-0.00469975,0.0007325,0.00889575,-0.05575,0.032625,0.274125,0.0047607496,-0.00080875,0.00193775,1741898039.7422001
0.019125,0.09775,-0.0145,-0.0053709997,0.0017852499,0.011321999,-0.048,0.02925,0.2605,0.008346501,0.01617425,-0.00198375,1741898039.756762
-0.0105,0.158,-0.039,-0.0062865,0.00169375,0.012496999,-0.033875,0.01775,0.236625,0.008377,0.02409375,-0.004303,1741898039.775091
-0.05775,0.301,-0.07225,-0.015915,-0.0070952503,-0.0025940002,-0.025625,0.016375,0.221875,0.0059510004,0.03663625,-0.00817875,1741898039.785986
-0.00725,0.226,-0.0585,-0.0105742505,-0.00546275,-0.016967751,-0.01675,0.017625,0.177,0.0043944996,0.04100025,-0.00953675,1741898039.800661
0.033125,0.09725,-0.0375,0.022216748,0.007019,-0.0142365,-0.015,0.017625,0.1455,0.0028687501,0.044860747,-0.01127625,1741898039.815319
0.005,0.07225,-0.0165,0.025772,0.0077667497,-0.010849,-0.003625,-0.011125,-0.01275,0.00296025,0.04287725,-0.0114744995,1741898039.834483
-0.0,0.075125,-0.0145,0.01531975,0.0031889998,-0.008224499,0.008625,-0.04025,-0.106875,-0.001114,0.03445425,-0.0104674995,1741898039.844776
0.01125,0.065375,-0.0015,0.0075835,0.00045775,-0.0061645,-0.01175,0.010875,-0.026875,-0.012847999,0.00741575,-0.0051574996,1741898039.8595588
0.013625,0.072375,-0.0035,0.00074775,-0.0009155,-0.0031127501,-0.0325,0.01525,0.0295,-0.00621025,0.00343325,-0.0041044997,1741898039.87568
0.015625,0.090875,-0.010125,-0.00437925,0.0007325,0.00372325,-0.023375,-0.004625,0.058875,0.01033025,0.0045012496,6.1000002e-05,1741898039.888681
0.01725,0.115875,-0.030125,-0.0033875,0.00231925,0.0045625,0.016375,-0.03775,0.076,0.01013175,0.0009765,0.0029145,1741898039.903113
0.017875,0.11525,-0.037875,-0.00108325,0.0029907501,0.0030975002,0.02025,-0.03025,0.084375,0.000885,-0.0094604995,0.00254825,1741898039.917739
0.01975,0.114375,-0.03725,-0.0013275,0.00201425,0.0026092501,0.014,-0.01775,0.0875,-0.00109875,-0.013916001,0.000946,1741898039.935215
0.020875,0.11475,-0.032875,-0.002884,0.0003205,0.002472,0.007875,-0.01825,0.0725,-0.00024425,-0.02285775,0.0017242499,1741898039.946975
0.019875,0.115625,-0.02875,-0.003418,1.5250001e-05,0.002411,0.002375,-0.009625,0.0405,-0.000473,-0.027252251,0.0036315,1741898039.96148
0.018125,0.1155,-0.029375,-0.003769,-0.00016775,0.0022735,0.003875,0.003125,0.04675,-0.002884,-0.03344725,0.0057372497,1741898039.9760718
0.0145,0.1145,-0.0305,-0.0042572496,-0.000824,0.0025634998,-0.0135,0.019375,0.113125,-0.00325,-0.03427125,0.0059205,1741898039.9956
0.012625,0.11375,-0.0295,-0.0044250004,-0.00119025,0.0031127501,-0.029,0.019,0.149125,-0.00160225,-0.03215025,0.0067902496,1741898040.005436
0.010625,0.113,-0.027625,-0.004776,-0.00157175,0.004593,-0.056,0.00675,0.208125,-7.625e-05,-0.031479,0.0077667497,1741898040.020363
0.009,0.1115,-0.024625,-0.00494375,-0.0015105,0.0054015,-0.068875,0.00675,0.23475,-0.000229,-0.02427675,0.0067902496,1741898040.0371509
0.01025,0.11075,-0.02375,-0.0051269997,-0.00112925,0.0071105,-0.079875,0.00725,0.27175,0.000183,-0.014709501,0.004547,1741898040.049729
0.012875,0.10925,-0.02275,-0.0052642496,-0.000885,0.0080567505,-0.071625,0.011,0.27875,0.00109875,-0.0034637498,0.00216675,1741898040.06423
0.01175,0.111,-0.023,-0.0057525,-0.000473,0.009643501,-0.03775,0.020625,0.26425,0.0032655,0.017303498,-0.00193775,1741898040.078769
-0.004125,0.140375,-0.032,-0.0060272496,-0.00029,0.010086001,-0.025625,0.01975,0.245125,0.0042572496,0.02519225,-0.0037079998,1741898040.098272
-0.04375,0.269125,-0.06375,-0.01142875,-0.0063477503,-0.0028535,-0.0205,0.01625,0.223375,0.004486,0.03541575,-0.00637825,1741898040.108022
-0.01825,0.276125,-0.060875,-0.0072937496,-0.006256,-0.018920999,-0.020875,0.013125,0.175,0.0037079998,0.038925253,-0.0072480002,1741898040.1224651
0.031625,0.128,-0.039625,0.00976575,0.00090025004,-0.02510075,-0.019375,0.013,0.14725,0.00157175,0.043167,-0.008407501,1741898040.137046
0.036,0.064625,-0.0215,0.03009025,0.0077972496,-0.016296498,-0.015,0.008625,0.083625,0.00149525,0.042831503,-0.00817875,1741898040.155039
0.004375,0.06575,-0.014375,0.0263825,0.0063477503,-0.01367175,-0.009875,-0.013,-0.02275,-0.0041810004,0.03170775,-0.0073395,1741898040.166395
0.005875,0.064125,-0.004375,0.013275251,0.001175,-0.00924675,0.021875,0.000625,-0.12925,-0.01498425,0.01510625,-0.0063477503,1741898040.1810791
0.009125,0.058,0.000375,0.0060577504,-0.00048825,-0.0064545004,0.00075,0.02275,-0.053,-0.00782775,-0.0053252503,-0.0033264998,1741898040.195772
0.009625,0.07375,-0.007375,-0.0025787498,-0.000122000005,0.0015565,-0.036,-0.008,0.062,0.00505075,-0.00517275,-0.00042725,1741898040.214884
0.0125,0.1105,-0.027,-0.0027312501,0.0012970001,0.00355525,-0.025125,-0.034,0.098,0.01127625,-0.005066,0.0042725,1741898040.225205
0.015625,0.113125,-0.0345,-0.0005035,0.002655,0.002533,-0.003625,-0.041,0.11925,0.0054015,-0.00637825,0.00440975,1741898040.2397969
0.0215,0.11,-0.037375,-0.00024425,0.00213625,0.001892,0.01025,-0.02775,0.103625,-0.00413525,-0.013793999,0.00024425,1741898040.254709
0.02375,0.110125,-0.034125,-0.00064075,0.0013580001,0.0018005001,0.011625,-0.01025,0.069125,-0.00463875,-0.0197295,-0.0007935,1741898040.274797
0.024625,0.11,-0.03,-0.00225825,0.00042725,0.0022735,0.003125,-0.0025,0.061,-0.00378425,-0.02503975,-0.00016775,1741898040.283869
0.02075,0.107625,-0.023625,-0.0031585,0.00024425,0.00254825,-0.007375,0.013625,0.073875,-0.0012665,-0.030426001,0.0038605002,1741898040.298481
0.017875,0.106875,-0.02375,-0.0047302498,-0.00013725001,0.0033875,-0.0175,0.01125,0.09975,0.000229,-0.0309295,0.0056304997,1741898040.314201
0.013625,0.109375,-0.027,-0.00531,-0.000534,0.0040587503,-0.0315,0.002375,0.13425,0.0024872501,-0.02931225,0.0073395,1741898040.3278122
0.012125,0.11025,-0.027125,-0.0060882503,-0.001175,0.005783,-0.046625,-0.00775,0.19075,0.0020599999,-0.027862499,0.00720225,1741898040.348184
0.0115,0.107375,-0.02425,-0.00631725,-0.00115975,0.00694275,-0.044625,-0.000375,0.20875,-0.0017852499,-0.02073675,0.0037537501,1741898040.357397
0.01275,0.1045,-0.022375,-0.0065612504,-0.0009765,0.008285499,-0.050375,0.01,0.239875,-0.00198375,-0.0149535,0.0019685,1741898040.3755379
0.01475,0.101875,-0.020375,-0.007309,-0.00042725,0.01127625,-0.05725,0.00925,0.2495,0.00090025004,-0.00065625,0.00080875,1741898040.386719
0.0145,0.104375,-0.020875,-0.0078125,-0.00019825,0.01266475,-0.05875,0.005375,0.25275,0.00231925,0.0076295,0.00059500005,1741898040.4011269
-0.02175,0.205875,-0.05775,-0.012436,-0.00621025,0.0059815003,-0.04975,0.005625,0.24425,0.0041044997,0.023758,-0.0007325,1741898040.4156868
-0.033625,0.310125,-0.065125,-0.01322925,-0.009491,-0.011031999,-0.021875,0.010375,0.210125,0.0046539996,0.029846251,-0.00198375,1741898040.433957
0.02225,0.154625,-0.033875,0.01725775,0.00396725,-0.018509,-0.014,0.01125,0.18975,0.00491325,0.03718575,-0.0047455,1741898040.444679
0.02225,0.07,-0.0075,0.0259095,0.0065307496,-0.011810251,-0.00775,0.009875,0.13675,0.0044555003,0.038971,-0.0057525,1741898040.459209
0.00175,0.081125,-0.0155,0.0190735,0.0031889998,-0.00968925,-0.000625,0.00125,0.045125,-1.5250001e-05,0.033981252,-0.0072175004,1741898040.474398
0.004125,0.070375,-0.004375,0.012847999,0.00035100002,-0.00897225,0.0425,-0.006125,-0.18825,-0.0128632495,0.018158002,-0.0075225,1741898040.48915
0.00825,0.060125,0.00275,0.0062865,-0.00125125,-0.0070495,0.022,0.03375,-0.107,-0.02153025,-0.002533,-0.00665275,1741898040.503277
0.01,0.064,-0.00025,-0.0030975002,-0.0001525,0.00193775,-0.065625,0.005875,0.105625,0.007599,-0.0117035,0.00184625,1741898040.517958
0.010875,0.110625,-0.021625,-0.00411975,0.0014495,0.00520325,-0.056,-0.01825,0.152125,0.01908875,-0.00437925,0.0050812503,1741898040.5359092
0.0115,0.124125,-0.034,-0.0019225,0.0033570002,0.0032347501,-0.024375,-0.033375,0.146625,0.0089569995,0.0016785001,0.0021972498,1741898040.547173
0.01425,0.127125,-0.044375,-0.00086975005,0.00292975,0.00131225,0.03475,-0.022,0.0845,-0.00093075,-0.003662,-0.001236,1741898040.562138
0.015875,0.12625,-0.04125,-0.00064075,0.00112925,-1.5250001e-05,0.03175,-0.01275,0.0705,-0.006073,-0.01890575,-0.0062712496,1741898040.577343
0.017,0.122,-0.03125,-0.00096125,0.0005035,-0.00010675,-0.005625,-0.007125,0.059875,-0.0037537501,-0.02374275,-0.005844,1741898040.59185
0.015875,0.11975,-0.028375,-0.0017395001,-0.00039675,-0.00039675,-0.014125,-0.003375,0.060625,0.00074775,-0.02690125,-0.00039675,1741898040.606753
0.01475,0.114375,-0.026,-0.001892,-0.00080875,-0.0003205,-0.024875,0.002875,0.09875,0.0023497501,-0.0272675,0.0018615,1741898040.6213582
0.015125,0.11025,-0.0245,-0.0017852499,-0.0011445,0.000122000005,-0.036375,-0.00175,0.13325,0.0025634998,-0.0275115,0.00369275,1741898040.636862
0.015375,0.106875,-0.022125,-0.0016175,-0.0013885,0.001892,-0.05475,-0.017125,0.195875,0.00187675,-0.0263825,0.0042572496,1741898040.656411
0.014875,0.104,-0.017,-0.0019225,-0.00131225,0.0029755002,-0.059625,-0.0185,0.2175,-0.0001525,-0.01867675,0.00340275,1741898040.665921
0.014125,0.104125,-0.015625,-0.003006,-0.00068675,0.0052642496,-0.0635,-0.00775,0.246,-0.0004425,-0.012054499,0.002472,1741898040.680594
0.01375,0.10425,-0.016375,-0.00352475,-0.0002135,0.00637825,-0.061375,-0.0025,0.25325,0.00242625,0.0045012496,0.00160225,1741898040.695169
0.015375,0.102,-0.0165,-0.0043182503,0.000824,0.00874325,-0.043,0.00425,0.247125,0.0042725,0.013443,0.00096125,1741898040.714518
0.017,0.10125,-0.018375,-0.00488275,0.0012055,0.009948749,-0.03175,0.008375,0.238625,0.00587475,0.027954001,-0.0023345,1741898040.724162
0.01425,0.10375,-0.02025,-0.00671375,0.0013580001,0.011612001,-0.018625,0.009125,0.2045,0.0061645,0.033249002,-0.0039825,1741898040.738684
-0.0015,0.13175,-0.036875,-0.0077515002,0.0012817499,0.01197825,-0.015,0.0065,0.179125,0.00590525,0.03910825,-0.0049285004,1741898040.755771
-0.033,0.18925,-0.049875,-0.02091975,-0.00096125,-0.03149425,-0.00525,0.0125,0.1045,0.0049285004,0.04049675,-0.00491325,1741898040.768019
-0.038375,0.11825,-0.072625,-0.0161895,-0.0004425,-0.0436555,0.01,0.002375,-0.0315,0.0026245,0.03901675,-0.0054780003,1741898040.782551
0.035,0.1175,-0.037625,0.00263975,0.0025634998,-0.01620475,0.032875,-0.0135,-0.17,-0.0202485,0.00672925,-0.00596625,1741898040.797292
0.05925,0.124,-0.0235,0.023193251,0.008255,0.0034637498,-0.017625,0.028375,-0.03075,-0.020324752,-0.0106355,-0.003296,1741898040.81599
-0.01025,0.123625,-0.028,0.02174375,0.0063325,-0.00770575,-0.075125,0.01425,0.095,0.01193225,-0.00570675,0.00614925,1741898040.8268118
-0.013875,0.105125,-0.02675,0.011825499,0.0021057501,-0.014648501,-0.054625,-0.029125,0.176125,0.016739,0.0050965,0.0064850003,1741898040.8416
0.01175,0.070625,-0.020375,0.0062865,0.00054925,-0.01142875,-0.00375,-0.03475,0.13625,0.002243,0.0080567505,0.00061025,1741898040.856183
0.016125,0.074125,-0.022125,-0.00074775,-0.0016175,-0.002472,0.0375,-0.0285,0.0805,-0.0039825,0.00035100002,-0.0028074998,1741898040.8756878
0.018625,0.1035,-0.025125,-0.0007325,-0.0014037499,0.00042725,0.0165,-0.029,0.07875,-0.00505075,-0.01316825,-0.0047302498,1741898040.8856099
0.01975,0.11075,-0.02975,0.0012665,-0.000412,0.0001525,-0.01225,-0.02475,0.069625,-0.0036315,-0.0158385,-0.00213625,1741898040.900504
0.025125,0.10925,-0.0345,0.0013580001,-0.000763,-0.00059500005,-0.01075,-0.0175,0.063875,-0.00067150005,-0.0178985,0.0055847503,1741898040.91521
0.026375,0.1075,-0.0295,0.00086975005,-0.00148,-0.00064075,-0.001875,-0.00575,0.076125,-0.0003205,-0.01905825,0.0072937496,1741898040.9352791
0.0265,0.104875,-0.023125,-0.000412,-0.001831,0.000534,-0.0035,-0.002375,0.101375,-0.00245675,-0.0223235,0.006363,1741898040.944748
0.02225,0.098875,-0.0175,-0.00119025,-0.00149525,0.00137325,-0.017125,0.0045,0.15525,-0.00317375,-0.0232085,0.00520325,1741898040.959393
0.020625,0.097625,-0.017625,-0.0031889998,-0.00115975,0.0033570002,-0.0205,0.007,0.170875,-0.00204475,-0.02238475,0.0028535,1741898040.974796
0.021125,0.10025,-0.018375,-0.00408925,-0.00115975,0.00434875,-0.025375,0.02275,0.18175,-0.00108325,-0.0206145,0.0014037499,1741898040.9897542
0.020875,0.102875,-0.019125,-0.0052337497,-0.0007935,0.006363,-0.03775,0.02875,0.196,0.00061025,-0.013931249,-0.00146475,1741898041.0035799
0.01775,0.107,-0.021625,-0.00555425,-0.0004425,0.0074615004,-0.086875,0.002625,0.25525,0.0031889998,-0.0068512503,-0.001236,1741898041.0182242
0.018,0.105625,-0.02175,-0.00614925,0.00029,0.009903,-0.092375,-0.01,0.272125,0.0093995,0.016327,0.0005645,1741898041.0364108
0.020125,0.10025,-0.01825,-0.0065002497,0.00054925,0.01115425,-0.041625,-0.006125,0.246125,0.0102845,0.0275115,-0.0005645,1741898041.04768
0.01625,0.105625,-0.02075,-0.0067597497,0.0007325,0.01222225,-0.0205,-0.00375,0.225125,0.0094604995,0.035339247,-0.003128,1741898041.062398
0.0075,0.1195,-0.028875,-0.0077972496,0.0002135,0.01295475,-0.013625,-0.0035,0.175125,0.00747675,0.0424805,-0.0068969997,1741898041.0790348
-0.04775,0.265125,-0.055625,-0.008712751,-0.00213625,0.011245751,-0.015625,-0.004,0.141375,0.00723275,0.043899503,-0.007187,1741898041.0917969
-0.056375,0.343625,-0.05475,-0.009002751,-0.0030669998,-0.0138702495,-0.01275,-0.004125,0.07825,0.0043944996,0.042236254,-0.00671375,1741898041.106681
0.040625,0.1135,-0.045375,0.0047912505,0.004242,-0.0180665,0.00725,-0.020625,-0.12375,-0.00440975,0.030746501,-0.0062865,1741898041.1213372
0.029875,0.095875,-0.03975,0.02415475,0.0070495,-0.0127105,0.011,0.010875,-0.096625,-0.0147705,0.00242625,-0.00393675,1741898041.1361501
-0.012125,0.09925,-0.029125,0.02142325,0.0041504996,-0.01431275,-0.0295,0.01,0.041875,-0.00119025,0.0002135,0.0003205,1741898041.155287
-0.004875,0.086375,-0.015,0.015854,0.0012665,-0.013503999,-0.02975,-0.01375,0.0765,0.01708975,0.0016175,0.007599,1741898041.165515
0.010125,0.08075,-0.011625,0.00331125,-0.002121,-0.0081635,0.005375,-0.034875,0.086125,0.01248175,-0.00093075,0.00720225,1741898041.180238
0.014875,0.0925,-0.017625,-0.00042725,-0.00267025,-0.0051269997,0.01975,-0.025625,0.08575,-0.0017242499,-0.010437001,0.001007,1741898041.194894
0.018,0.104875,-0.024375,0.0007935,-0.0012970001,-0.00193775,0.017,-0.010875,0.08475,-0.00340275,-0.0151825,-0.0016785001,1741898041.214411
0.022375,0.112625,-0.03575,0.0025634998,-0.00074775,-0.002411,0.0055,-0.01125,0.075,-0.00054925,-0.02268975,-0.00169375,1741898041.224313
0.024875,0.1105,-0.035125,0.00314325,-0.00154125,-0.00328075,-0.0005,-0.007875,0.05275,1.5250001e-05,-0.02563475,-7.625e-05,1741898041.239129
0.028875,0.1035,-0.022375,0.002411,-0.00198375,-0.0029449998,0.00325,-0.002875,0.056125,-0.0007325,-0.0308075,0.00181575,1741898041.2548149
0.028875,0.09975,-0.017625,0.000229,-0.00187675,-0.0014495,-0.00375,-0.0025,0.102875,-0.00102225,-0.0333405,0.00169375,1741898041.268734
0.025625,0.094125,-0.014875,-0.000885,-0.0017242499,-0.0005035,-0.01475,-0.00475,0.130625,-0.0012665,-0.037063498,0.0014495,1741898041.2834072
0.023875,0.093125,-0.014875,-0.002533,-0.001526,0.00181575,-0.034625,-0.0105,0.176375,-0.0018005001,-0.03762825,0.00112925,1741898041.298107
0.021875,0.093875,-0.013875,-0.0030975002,-0.00137325,0.0032195,-0.046125,-0.013875,0.207375,-0.0029145,-0.032837003,0.00042725,1741898041.314698
0.019875,0.09475,-0.013125,-0.00358575,-0.00105275,0.0048217503,-0.077,-0.017,0.28725,-0.002884,-0.025879,0.00057975,1741898041.327617
0.017375,0.096,-0.01325,-0.00488275,-4.575e-05,0.00842275,-0.089875,-0.014375,0.314125,-0.00093075,-0.00320425,0.0015565,1741898041.342367
0.017375,0.094125,-0.013,-0.00570675,0.0005035,0.01026925,-0.08875,-0.01325,0.307875,0.00077825,0.0104065,0.0021515,1741898041.356897
0.02,0.091125,-0.011625,-0.007553,0.00163275,0.01412975,-0.0705,-0.00875,0.28525,0.0023497501,0.022995,0.0026092501,1741898041.374047
0.021875,0.091125,-0.01,-0.008346501,0.0021972498,0.0158845,-0.041125,-0.004,0.24525,0.00364675,0.043991,0.00160225,1741898041.3861492
0.0165,0.100875,-0.014125,-0.009842,0.00308225,0.01838675,-0.034625,-0.004,0.218,0.0034790002,0.05270375,0.00062550005,1741898041.400685
-0.0145,0.165625,-0.032,-0.0109709995,0.0029449998,0.0186005,-0.02975,-0.004625,0.184625,0.00112925,0.058486998,-0.00160225,1741898041.415366
-0.0595,0.300375,-0.047375,-0.013061499,0.00102225,0.01510625,-0.0285,-0.0045,0.089375,0.00013725001,0.0570525,-0.00225825,1741898041.434241
-0.012125,0.270125,-0.08725,-0.01525875,1.5250001e-05,-0.014938249,-0.0205,-0.027875,-0.05575,-0.008850001,0.04704275,-0.0023345,1741898041.444866
0.038375,0.14075,-0.08275,0.00320425,0.0056915004,-0.019470248,-0.011625,0.01425,-0.141125,-0.016723748,0.041137747,0.0024872501,1741898041.459648
0.030875,0.108125,-0.07,0.028427,0.00770575,-0.01658625,-0.01275,0.061125,-0.115125,-0.0141755,0.00062550005,-0.001236,1741898041.474852
0.000625,0.082875,-0.04325,0.026092501,0.0046234997,-0.01722725,-0.04575,-0.0005,0.0415,-0.0042115003,-0.015915,-0.0012665,1741898041.489818
0.009625,0.072875,-0.0235,0.01054375,-0.0037995,-0.01071175,-0.02575,-0.027375,0.03825,0.0148925,-0.000412,0.008285499,1741898041.504194
0.014375,0.089,-0.01825,0.00213625,-0.0069885002,-0.0077515002,0.020375,-0.034,0.02975,0.010513251,-0.00254825,0.0078125,1741898041.518767
0.01725,0.101625,-0.0265,-0.00305175,-0.008941749,-0.00358575,0.026,-0.02275,0.038875,-0.00184625,-0.017883249,-0.00010675,1741898041.537602
0.02675,0.111625,-0.041125,-0.0009765,-0.0087585,-0.0031889998,0.0085,-0.009875,0.06025,-0.00154125,-0.024947999,-0.0025634998,1741898041.548297
0.028875,0.10925,-0.0405,0.0034942501,-0.009216251,-0.004242,-0.002125,-0.00725,0.060375,0.0045625,-0.034438998,-0.0013580001,1741898041.563124
0.026375,0.10125,-0.019,0.0043944996,-0.009491,-0.00437925,-0.00825,-0.003,0.085875,0.0049590003,-0.037460253,0.000122000005,1741898041.579112
0.0245,0.095625,-0.006125,0.0043944996,-0.0091095,-0.0040435,-0.00775,-0.0005,0.11875,0.00231925,-0.0388335,0.00112925,1741898041.5946481
0.022375,0.089375,0.0025,0.00254825,-0.00637825,-0.0022735,-0.012625,-0.007,0.169875,0.0021819999,-0.03913875,0.0016632499,1741898041.607125
0.01675,0.081875,0.00575,0.001068,-0.0047150003,-0.00099175,-0.028375,-0.01375,0.189125,0.00160225,-0.0390625,0.0034637498,1741898041.621866
0.015375,0.081,0.004,-0.0017852499,-0.0018615,0.0023039998,-0.067125,-0.015625,0.243375,0.0008545,-0.03477475,0.00352475,1741898041.636699
0.013125,0.08225,0.00175,-0.0029755002,-0.00059500005,0.00434875,-0.080875,-0.013625,0.279,0.0002595,-0.026702998,0.0029755002,1741898041.655346
0.010875,0.083375,0.000375,-0.00561525,0.0018615,0.00897225,-0.0745,-0.011375,0.315625,0.001175,-0.00187675,0.0021057501,1741898041.666104
0.01175,0.0795,-0.00025,-0.0070495,0.003128,0.01142875,-0.049,-0.0015,0.299125,0.00251775,0.0115815,0.001648,1741898041.680846
0.01575,0.076,0.0,-0.009643501,0.0058287503,0.016723748,-0.0225,0.00675,0.268,0.00369275,0.03053275,-0.00231925,1741898041.695463
0.01725,0.092,-0.010375,-0.01091,0.00697325,0.01927175,-0.00975,0.0065,0.21125,0.0032655,0.03479,-0.0042725,1741898041.714656
0.00775,0.1175,-0.02775,-0.012634249,0.0074615004,0.021225,-0.01475,0.006875,0.18425,0.001587,0.0407715,-0.00585925,1741898041.7248929
-0.024625,0.187375,-0.0705,-0.019592252,0.0012970001,0.01731875,-0.022875,0.003125,0.125875,0.00033575002,0.04312125,-0.00617975,1741898041.739476
-0.040625,0.300875,-0.09075,-0.024810748,-0.00466925,0.0012055,-0.025,-0.000375,0.1005,-0.00099175,0.04302975,-0.0059510004,1741898041.754988
0.029125,0.15175,-0.0605,0.004303,0.00744625,-0.009216251,-0.01425,-0.016875,-0.056125,-0.0031585,0.03886425,-0.00662225,1741898041.774501
0.009625,0.127625,-0.0615,0.01921075,0.009094249,-0.0054932497,0.001125,-0.013,-0.10875,-0.02124025,0.014434749,-0.009201,1741898041.783803
-0.013375,0.137875,-0.05825,0.020691,0.0018005001,-0.014160249,-0.004,0.022875,-0.02975,-0.017303498,0.00517275,-0.008788999,1741898041.7985349
0.00425,0.099625,-0.020125,0.015075751,-0.00160225,-0.014434749,-0.019875,0.002,0.003625,0.01324475,-0.0038757501,0.0007325,1741898041.8151958
0.00975,0.09925,-0.019375,0.00216675,-0.00541675,-0.00968925,-0.012125,-0.041875,0.0435,0.01867675,-0.0091095,0.0041810004,1741898041.827829
0.013625,0.101375,-0.02275,0.00068675,-0.0044707498,-0.00378425,-0.006625,-0.048625,0.062,0.00662225,-0.01857,0.0034637498,1741898041.84268
0.019625,0.110625,-0.02975,0.0020599999,-0.00367725,-0.00283825,0.000875,-0.0315,0.081875,-0.000534,-0.021560749,0.00077825,1741898041.857344
0.02175,0.110875,-0.0285,0.003006,-0.0035704998,-0.00317375,0.005125,-0.0205,0.077875,-0.0036315,-0.02793875,-0.0020295,1741898041.8750532
0.022625,0.108,-0.022875,0.00355525,-0.0039215,-0.0039215,0.005625,-0.00975,0.066875,-0.0017395001,-0.032409754,-0.000885,1741898041.8871338
0.022,0.094625,-0.006875,0.0036010002,-0.0033264998,-0.0034942501,-0.003,-0.009875,0.086375,0.00045775,-0.039917,0.0029907501,1741898041.9017842
0.020875,0.0865,-0.001625,0.0021515,-0.000885,-0.00083925005,-0.035125,-0.019375,0.16775,-0.00027475,-0.040634252,0.0048674997,1741898041.916406
0.01875,0.078875,0.000875,0.00039675,0.00013725001,0.00115975,-0.042625,-0.019,0.20275,-0.0034942501,-0.03710925,0.008514499,1741898041.934644
0.02,0.080875,-0.001125,-0.0030975002,0.001892,0.005539,-0.05375,-0.0085,0.237875,-0.00413525,-0.03288275,0.00874325,1741898041.946146
0.02,0.08975,-0.011,-0.00440975,0.00267025,0.007599,-0.06875,-0.002875,0.257375,-0.0037537501,-0.026519751,0.0075682504,1741898041.960896
0.01825,0.0915,-0.015,-0.00555425,0.00334175,0.00947575,-0.088,0.0035,0.307625,-0.000229,-0.00538625,0.0043944996,1741898041.975874
0.019625,0.085875,-0.0145,-0.0076142503,0.0045165,0.013275251,-0.07525,0.0085,0.3175,0.002121,0.00868225,0.0031127501,1741898041.990599
0.021,0.082375,-0.0105,-0.008484,0.00514225,0.015274,-0.04925,0.013625,0.305,0.00567625,0.03468325,-0.00146475,1741898042.004711
0.019125,0.083375,-0.01,-0.009842,0.0065307496,0.019042999,-0.015625,0.0095,0.240875,0.0063325,0.04249575,-0.0046539996,1741898042.019347
-0.002875,0.125875,-0.039125,-0.011184749,0.0064545004,0.020446751,-0.015375,0.00575,0.2055,0.0049590003,0.051513746,-0.009292499,1741898042.037555
-0.044125,0.235375,-0.073375,-0.0185395,-0.00119025,0.01156625,-0.023625,0.00475,0.134375,0.0030975002,0.054580748,-0.010589501,1741898042.0483909
-0.030375,0.276,-0.087125,-0.021484248,-0.003891,-0.0056304997,-0.02325,0.013125,0.085375,0.00016775,0.05284125,-0.01197825,1741898042.0630121
0.02725,0.14175,-0.072875,0.0095672505,0.0069580004,-0.0094604995,-0.0145,-0.022625,-0.120125,-0.00801075,0.0433655,-0.013275251,1741898042.077811
-0.00425,0.141125,-0.069375,0.020202748,0.0065917503,-0.008072,0.002125,0.014375,-0.117,-0.02398675,0.016570998,-0.015075751,1741898042.095389
-0.0175,0.136875,-0.056625,0.0222625,0.00340275,-0.012741,-0.013375,0.0275,-0.011,-0.00862125,0.0110932505,-0.012375,1741898042.107221
-0.009375,0.113,-0.03425,0.01504525,-0.00263975,-0.016693002,-0.02225,-0.006875,0.011125,0.0236665,0.00320425,-0.00125125,1741898042.12206
0.0045,0.099875,-0.018125,0.008667,-0.0047455,-0.015075751,-0.001375,-0.050875,0.03525,0.022521999,-0.003296,0.000763,1741898042.136746
0.00875,0.1055,-0.02075,0.0020905002,-0.0060425,-0.00912475,0.006,-0.04825,0.05175,0.00146475,-0.0138702495,-0.0028229998,1741898042.1558459
0.01825,0.11075,-0.0235,0.0030669998,-0.00531,-0.00720225,0.0145,-0.020625,0.0735,-0.00579825,-0.0170135,-0.0055847503,1741898042.166137
0.02075,0.11075,-0.024625,0.00570675,-0.0044707498,-0.00708,0.014625,-0.007125,0.068875,-0.0051880004,-0.025115998,-0.00662225,1741898042.180817
0.023375,0.10475,-0.018875,0.0060882503,-0.0045165,-0.0075682504,0.00925,0.0025,0.049375,-0.00289925,-0.03050225,-0.0052185003,1741898042.195401
0.0235,0.099,-0.012875,0.0060425,-0.00369275,-0.0070952503,0.00775,0.00175,0.05325,-0.002472,-0.035324,-0.00390625,1741898042.214783
0.022125,0.085125,-0.00275,0.0055085,-0.00263975,-0.006012,-0.01075,-0.01025,0.108875,-0.0038299998,-0.04270925,-0.00157175,1741898042.2249432
0.020875,0.08,-0.0005,0.0043182503,-0.001526,-0.0044555003,-0.02925,-0.017375,0.14125,-0.00399775,-0.04553225,0.00035100002,1741898042.239626
0.02,0.077125,-0.00225,0.000824,0.00036625,-0.0003205,-0.04975,-0.026625,0.167125,-0.00531,-0.048049998,0.00408925,1741898042.254904
0.02,0.0785,-0.004625,-0.00090025004,0.001068,0.0020599999,-0.082875,-0.045125,0.192625,-0.006546,-0.045776248,0.00488275,1741898042.274336
0.018875,0.08075,-0.007375,-0.0038757501,0.0021972498,0.006836,-0.091125,-0.04575,0.2025,-0.009384249,-0.032714747,0.005783,1741898042.283734
0.013125,0.08575,-0.013625,-0.0051880004,0.00270075,0.0090637505,-0.092125,-0.039125,0.242125,-0.00947575,-0.022186251,0.0066374997,1741898042.2984269
0.01075,0.088375,-0.016625,-0.00801075,0.003418,0.01301575,-0.085875,-0.03625,0.259125,-0.00671375,-0.00064075,0.00962825,1741898042.315118
0.0105,0.095,-0.020875,-0.009597749,0.00354,0.014648501,-0.062875,-0.019625,0.25625,-0.005539,0.0080567505,0.010757499,1741898042.328042
0.012375,0.09975,-0.023,-0.012191749,0.00393675,0.017044,-0.053375,-0.0115,0.24275,-0.004547,0.022461,0.0110625,1741898042.3427498
0.0115,0.11525,-0.0325,-0.012985251,0.00419625,0.017700251,-0.04575,0.000125,0.217,-0.003952,0.02763375,0.011184749,1741898042.357346
0.007625,0.125125,-0.037,-0.01345825,0.0042725,0.017883249,-0.039375,0.006125,0.197125,-0.0016785001,0.035049498,0.0115205,1741898042.374888
-0.014,0.192625,-0.047,-0.018463248,0.000763,0.0106965,-0.028625,0.012875,0.168875,-0.000473,0.0359955,0.0112,1741898042.386534
-0.04775,0.357625,-0.078,-0.02354425,-0.00263975,-0.0041044997,-0.028875,0.01175,0.164375,0.0012970001,0.0400085,0.00985725,1741898042.401087
0.00625,0.229875,-0.076875,0.00903325,0.00637825,-0.019806,-0.02375,0.01075,0.137375,0.00062550005,0.04408275,0.008316,1741898042.415606
0.02275,0.102625,-0.06075,0.0232085,0.008072,-0.016327,-0.015125,0.0195,0.116625,-0.00154125,0.04692075,0.00358575,1741898042.4346921
0.009375,0.080375,-0.03975,0.0236665,0.00384525,-0.014495751,0.01675,0.031625,-0.057,-0.0068055,0.0436095,-0.0012817499,1741898042.444745
0.011375,0.050625,0.006,0.017852752,0.00109875,-0.011734,0.042125,0.045875,-0.14225,-0.02111825,0.032837003,-0.0077210004,1741898042.4595132
0.006125,0.059625,0.00925,0.00305175,-0.001709,-0.00416575,0.033875,0.071875,-0.049875,-0.0201875,0.0059205,-0.012756251,1741898042.476927
-0.0005,0.097875,-0.013875,-0.00160225,-0.0013580001,0.0002595,0.001,0.0255,0.0045,0.00531,0.0001525,-0.00579825,1741898042.488845
0.004375,0.11,-0.028,-0.0034790002,-0.00029,0.00354,-0.0155,-0.0115,0.055375,0.02247625,-0.0074004997,0.00334175,1741898042.5035279
0.01375,0.115,-0.04725,-0.00320425,0.00051875,0.004837,-0.00675,-0.02725,0.1075,0.0125885,-0.00801075,0.00086975005,1741898042.5181508
0.015875,0.1165,-0.0485,-0.0026245,-0.0003205,0.00390625,0.011625,-0.01575,0.09975,-0.00798025,-0.009445249,-0.00846875,1741898042.53858
0.0165,0.11825,-0.044,-0.00093075,-0.00181575,0.00146475,0.02675,-0.0035,0.069375,-0.01150525,-0.013564999,-0.01245125,1741898042.547502
0.016125,0.11525,-0.03,-0.000412,-0.00181575,0.00070200005,0.015375,-0.006125,0.059,-0.009552,-0.02548225,-0.013031,1741898042.5623198
0.01525,0.112375,-0.02575,-0.00198375,-0.001648,0.0009155,-0.021125,-0.01725,0.076625,-0.00839225,-0.03022775,-0.0101775,1741898042.577125
0.01175,0.108875,-0.024875,-0.0033570002,-0.00175475,0.00149525,-0.03625,-0.019625,0.110125,-0.00570675,-0.03550725,-0.0026092501,1741898042.594719
0.009625,0.108125,-0.026,-0.0047912505,-0.0020599999,0.00305175,-0.047,-0.0105,0.16675,-0.0052185003,-0.0348205,-0.00070200005,1741898042.60689
0.004625,0.105125,-0.02375,-0.0047912505,-0.0021057501,0.004013,-0.049375,-0.017875,0.1785,-0.0056915004,-0.02955625,0.001114,1741898042.6216938
0.003125,0.102625,-0.021375,-0.0046539996,-0.0019685,0.0050812503,-0.07525,-0.0495,0.21675,-0.0059815003,-0.026764,0.003418,1741898042.63645
0.00625,0.09875,-0.018125,-0.0048065,-0.001236,0.0075835,-0.08675,-0.0465,0.249875,-0.0058899997,-0.0115205,0.00773625,1741898042.6553621
0.01025,0.0985,-0.01775,-0.00511175,-0.00065625,0.009002751,-0.07275,-0.018625,0.2855,-0.0041504996,0.00157175,0.00791925,1741898042.6659992
0.015,0.09825,-0.017875,-0.00590525,0.0007935,0.01197825,-0.05575,-0.00975,0.279375,0.00119025,0.02398675,0.0070647504,1741898042.680524
0.021125,0.094,-0.01525,-0.00631725,0.0016632499,0.013564999,-0.02475,0.0055,0.23375,0.0026092501,0.0317535,0.0064545004,1741898042.6951199
0.019375,0.09475,-0.015,-0.0070342496,0.003418,0.016632,-0.016625,0.01175,0.205875,0.00317375,0.038849,0.0042267498,1741898042.71406
-0.014375,0.173,-0.03975,-0.00747675,0.00369275,0.017273001,-0.012375,0.022375,0.155875,0.0038299998,0.039566003,0.00276175,1741898042.7241228
-0.061,0.32375,-0.078625,-0.01832575,-0.00413525,-0.002472,-0.011125,0.023,0.13125,0.005005,0.04055775,0.001419,1741898042.7386382
-0.015,0.25875,-0.082125,-0.0110932505,-0.002533,-0.017852752,-0.004,0.030875,0.07475,0.0072175004,0.03952025,-4.575e-05,1741898042.754252
0.021875,0.141125,-0.08,0.0249175,0.00715625,-0.01893625,0.03475,0.02275,-0.114,0.00109875,0.030029248,-0.00177,1741898042.767808
0.00525,0.091,-0.06225,0.02949525,0.0060882503,-0.017868,0.037125,0.03575,-0.09625,-0.013046251,0.00146475,-0.00393675,1741898042.782448
0.00325,0.076375,-0.041625,0.027176,0.0031585,-0.017212,0.0005,0.041625,0.0185,-0.0053709997,-0.002472,-0.00213625,1741898042.797135
0.00325,0.071125,-0.018,0.013092,-0.00314325,-0.014510999,0.004125,0.0245,0.051375,0.010559,-0.00239575,0.0025025,1741898042.814806
-0.0085,0.076,-0.01075,0.00593575,-0.0047912505,-0.01260375,0.01175,-0.014875,0.09375,0.008377,-0.0042572496,0.0030669998,1741898042.826164
-0.00625,0.091875,-0.020875,-0.00074775,-0.00555425,-0.0068055,0.013125,-0.016125,0.0955,-0.00637825,-0.010894749,0.000473,1741898042.8408582
0.011875,0.112875,-0.039,-0.00074775,-0.00538625,-0.00511175,0.029,0.003,0.067625,-0.011016751,-0.016037,-0.00175475,1741898042.855703
0.0185,0.114375,-0.0415,0.00109875,-0.00596625,-0.0042572496,0.028625,0.0125,0.05325,-0.010727,-0.0278015,-0.0047912505,1741898042.875028
0.02375,0.11225,-0.03075,0.00213625,-0.006363,-0.004242,0.010375,0.029125,0.047125,-0.0085602505,-0.032409754,-0.005066,1741898042.885342
0.0235,0.1075,-0.020875,0.00369275,-0.0059815003,-0.0041504996,-0.001875,0.030375,0.060625,-0.0031127501,-0.0382995,-0.0040587503,1741898042.900128
0.0215,0.09375,-0.00425,0.0035095,-0.0053252503,-0.00367725,-0.048625,0.008,0.14325,-0.000473,-0.04135125,-0.00296025,1741898042.914828
0.020125,0.088375,0.000375,0.002533,-0.004486,-0.00279225,-0.07275,-0.007625,0.185375,-0.00010675,-0.037841752,-0.0017852499,1741898042.934716
0.01825,0.085625,0.00175,-0.00033575002,-0.00263975,0.000122000005,-0.0785,-0.025125,0.212875,-0.00184625,-0.03173825,-0.00201425,1741898042.94442
0.017,0.08525,0.000125,-0.0013275,-0.00154125,0.0020752498,-0.07675,-0.02775,0.219875,-0.0030365,-0.019592252,-0.00177,1741898042.959467
0.017,0.085625,-0.00075,-0.00254825,0.0009765,0.0066374997,-0.0965,-0.036,0.257375,-0.0012817499,-0.01165775,-0.00030525,1741898042.9762812
0.014875,0.086,-0.00375,-0.00352475,0.0021819999,0.008941749,-0.09775,-0.037625,0.262625,0.0049742498,0.010437001,0.00460825,1741898042.98893
0.014375,0.08525,-0.004625,-0.0063325,0.004486,0.01339725,-0.059375,-0.02775,0.232,0.0072785,0.02095025,0.0066985004,1741898043.003631
0.00425,0.109375,-0.01975,-0.008224499,0.0052337497,0.015335,-0.038125,-0.020125,0.213625,0.00839225,0.027984502,0.00770575,1741898043.018137
-0.007,0.13475,-0.03625,-0.013488751,0.0047607496,0.0154115,-0.024375,-0.01125,0.198375,0.00811775,0.035827752,0.0074615004,1741898043.038847
-0.05375,0.299625,-0.109625,-0.01744075,0.00308225,0.0054780003,-0.01025,0.009,0.156,0.006546,0.03778075,0.00708,1741898043.047115
-0.0355,0.273125,-0.10575,-0.01867675,-0.00061025,-0.0077210004,-0.007625,0.019125,0.13575,0.0049742498,0.0361175,0.0062865,1741898043.0615392
0.01725,0.192125,-0.0475,0.009781,0.0039825,-0.009948749,0.020625,0.044,-0.020875,0.004776,0.033432,0.0043335,1741898043.076235
0.016,0.125125,-0.03975,0.02256775,0.008407501,-0.0114744995,0.03925,0.05025,-0.104125,-0.00912475,0.009079001,-0.00354,1741898043.094678
-0.0115,0.139125,-0.04825,0.02026375,0.0033722501,-0.021209748,0.013625,0.067125,-0.032375,-0.009552,-0.0019225,-0.0059967497,1741898043.105833
-0.002,0.107375,-0.0175,0.014160249,0.00016775,-0.02168275,-0.0115,0.044125,0.023375,0.01206975,-0.0065612504,3.0500001e-05,1741898043.1203241
0.01125,0.095125,-0.008125,0.004242,-0.00213625,-0.01631175,-0.015875,-0.002375,0.093,0.01617425,-0.0059815003,0.00251775,1741898043.1353931
0.023375,0.0915,-0.01475,0.0026854998,-0.00204475,-0.013275251,-0.00775,-0.0125,0.10075,0.0035704998,-0.00712575,-0.00054925,1741898043.154454
0.025375,0.09275,-0.01775,0.0046539996,-0.001236,-0.009658749,0.01475,0.002375,0.08575,-0.0042115003,-0.010253999,-0.0045012496,1741898043.164566
0.02875,0.095375,-0.02,0.00555425,-0.0008545,-0.009017999,0.013625,0.004875,0.083,-0.0065155,-0.02139275,-0.009887749,1741898043.179382
0.0305,0.09575,-0.018875,0.00590525,-0.000534,-0.00833125,-0.0215,-0.00925,0.089375,-0.00396725,-0.0265655,-0.00930775,1741898043.195171
0.0315,0.092875,-0.016375,0.0057525,0.00048825,-0.006012,-0.036125,-0.014125,0.092375,-0.00157175,-0.03244025,-0.0039215,1741898043.214015
0.033125,0.078375,-0.01,0.00505075,0.00108325,-0.0044555003,-0.053125,-0.024,0.11225,-0.0016632499,-0.03392025,-0.00062550005,1741898043.223745
0.033625,0.072375,-0.007375,0.0025940002,0.00204475,-0.00071725,-0.063,-0.0335,0.136875,-0.0031585,-0.032196,0.0058135,1741898043.238407
0.033875,0.069625,-0.006875,0.0012207499,0.00242625,0.00148,-0.074,-0.036875,0.199875,-0.0047302498,-0.02796925,0.008133001,1741898043.2549398
0.03225,0.07275,-0.008625,-0.001831,0.0028687501,0.00640875,-0.070875,-0.0275,0.225625,-0.00637825,-0.022171,0.009262,1741898043.268744
0.027125,0.0765,-0.010125,-0.0034484998,0.0030669998,0.008850001,-0.05975,0.00175,0.248375,-0.006546,-0.0085755,0.008727999,1741898043.282668
0.026875,0.072125,-0.007875,-0.0051574996,0.00340275,0.01133725,-0.055375,0.010875,0.24975,-0.004074,-0.0013580001,0.0075225,1741898043.2972631
0.026375,0.0675,-0.0045,-0.008788999,0.0044707498,0.0172425,-0.052,0.01375,0.246375,0.00305175,0.013717749,0.005783,1741898043.3147242
0.01875,0.08225,-0.011,-0.0106965,0.005005,0.02038575,-0.039125,0.014125,0.23025,0.0051880004,0.021087749,0.00543225,1741898043.32613
0.0055,0.109375,-0.026375,-0.0160065,0.0047455,0.02456675,-0.033375,0.01325,0.21975,0.0052947504,0.033798248,0.0042572496,1741898043.3407161
-0.0345,0.23525,-0.05525,-0.019622749,0.0033264998,0.02363575,-0.01975,0.018875,0.18175,0.0041044997,0.037658747,0.003128,1741898043.355293
-0.06825,0.35775,-0.089,-0.0263215,-0.00267025,-0.0025940002,-0.01475,0.024,0.1585,0.00238025,0.04043575,0.000412,1741898043.374791
0.00875,0.238875,-0.09125,-0.012024,0.0001525,-0.01469425,-0.012125,0.03975,0.099375,0.00231925,0.040985,-0.00086975005,1741898043.3844721
0.03,0.148875,-0.07475,0.026184,0.009201,-0.01876825,-0.00225,0.032625,-0.00175,-0.0080872495,0.03215025,-0.00593575,1741898043.399199
0.007,0.10775,-0.048375,0.03028875,0.007965,-0.02098075,0.0345,0.073125,-0.0955,-0.02006525,0.016723748,-0.008865249,1741898043.414598
0.012875,0.091125,-0.022625,0.0270385,0.00408925,-0.02127075,0.01625,0.08825,-0.0235,0.0023345,0.0001525,-0.0063325,1741898043.4285288
0.016,0.0905,-0.005875,0.010437001,-0.003952,-0.01725775,-0.0295,0.017375,0.0705,0.02091975,0.00024425,-0.00065625,1741898043.443083
0.012,0.114875,-0.017,0.00355525,-0.006012,-0.0153807495,-0.02,-0.004,0.096875,0.027237,-9.15e-05,0.0023039998,1741898043.4576561
0.019,0.116,-0.025625,0.00071725,-0.0070495,-0.01193225,0.004,-0.012875,0.113125,0.0153655,-0.00077825,-0.0029755002,1741898043.4772391
0.03,0.107,-0.02975,0.0022735,-0.0072175004,-0.0110625,0.01025,-0.013625,0.104625,0.00694275,-0.00148,-0.00833125,1741898043.4869251
0.032625,0.10375,-0.025125,0.0061645,-0.0071409997,-0.010894749,0.010625,-0.01425,0.094,-0.00419625,-0.00737,-0.014923001,1741898043.5016289
0.036125,0.096,-0.008875,0.007782,-0.00646975,-0.01062,0.00225,-0.016375,0.07175,-0.0060272496,-0.0114744995,-0.0138855,1741898043.518958
0.037125,0.089375,-0.0015,0.00811775,-0.0041044997,-0.0085602505,-0.002375,-0.020125,0.061875,-0.00579825,-0.01991275,-0.0063934997,1741898043.531151
0.036375,0.0775,0.00625,0.00646975,-0.0029145,-0.0069885002,-0.024125,-0.034125,0.08225,-0.00621025,-0.023773251,-0.002777,1741898043.545928
0.03575,0.07325,0.006875,0.00437925,-0.001831,-0.00520325,-0.038125,-0.041625,0.1085,-0.00953675,-0.02604675,0.00184625,1741898043.5608609
0.035625,0.06975,0.0065,0.00149525,0.00062550005,-0.001175,-0.045375,-0.0515,0.142625,-0.01121525,-0.02565,0.00372325,1741898043.575853
0.036,0.067625,0.003875,0.0005645,0.0018615,0.001236,-0.042,-0.05175,0.1515,-0.012405501,-0.025406,0.0077972496,1741898043.59458
0.03575,0.06775,0.002625,-0.00190725,0.00390625,0.0069885002,-0.03775,-0.03725,0.170625,-0.0119934995,-0.023407,0.009017999,1741898043.605672
0.034125,0.065625,0.001375,-0.0037079998,0.0046845004,0.010162249,-0.0355,-0.024125,0.177625,-0.01121525,-0.015976,0.009445249,1741898043.620349
0.0325,0.064625,0.00225,-0.0077210004,0.0063325,0.016632,-0.029375,0.009875,0.181375,-0.0110625,-0.011917,0.009094249,1741898043.635241
0.024375,0.076375,-0.001375,-0.009872501,0.00712575,0.0198365,-0.033125,0.01175,0.181125,-0.00903325,-0.0039215,0.010452249,1741898043.6551008
0.013625,0.0945,-0.01,-0.012313751,0.0076142503,0.02268975,-0.05275,0.007125,0.20725,-0.0079345,0.000412,0.012146,1741898043.664161
-0.0195,0.1205,-0.02525,-0.02749625,0.008148249,0.0015105,-0.056,0.011625,0.223,-0.0054475004,0.013290499,0.012039251,1741898043.6786659
-0.031625,0.14025,-0.10975,-0.032074,0.00593575,-0.0138855,-0.037,0.023875,0.21425,-0.0040435,0.0203705,0.010147001,1741898043.694818
0.025375,0.18725,-0.061,0.00029,0.005066,0.00930775,-0.028,0.027625,0.199125,-0.0025940002,0.028594999,0.006302,1741898043.707767
0.027875,0.16825,-0.05125,0.01187125,0.009430001,0.0055847503,-0.025,0.035,0.163375,-0.001709,0.0306245,0.00469975,1741898043.722481
-0.000875,0.161375,-0.067375,0.0170745,0.0075072497,-0.011856,-0.02425,0.035625,0.134,-0.0003815,0.0321045,0.0032347501,1741898043.7371788
0.014375,0.107875,-0.038125,0.014343251,0.00381475,-0.01390075,-0.004,-0.00375,-0.075125,0.00225825,0.02763375,0.0019685,1741898043.755084
0.02175,0.09475,-0.0195,0.002884,-0.0021819999,-0.009887749,0.001625,-0.00275,-0.10575,-0.0023039998,0.01396175,0.00358575,1741898043.766382
0.022625,0.100875,-0.016,-0.0002595,-0.0030975002,-0.00712575,-0.008375,0.035625,-0.054875,-0.00880425,-0.0073547503,0.0022277501,1741898043.781062
0.0265,0.101375,-0.02075,-0.00010675,-0.002777,-0.0050202496,-0.016625,0.063625,0.059,-0.00057975,-0.0057677496,-0.00039675,1741898043.795754
0.032375,0.103125,-0.026625,0.00181575,-0.0027465,-0.00314325,-0.013375,0.029375,0.091,0.01216125,-0.0020905002,-0.0007935,1741898043.814091
0.03775,0.108625,-0.029375,0.0017242499,-0.0037079998,-0.00283825,-0.01275,-0.012625,0.116875,0.00891125,-0.00296025,0.00013725001,1741898043.825161
0.03775,0.104875,-0.024375,0.0023497501,-0.00428775,-0.0018005001,-0.003875,-0.008125,0.11225,-0.0030975002,-0.008255,-0.00396725,1741898043.8401148
0.036625,0.088125,-0.01,0.0027160002,-0.0035704998,-0.00070200005,0.0085,0.00675,0.08525,-0.0060425,-0.0127105,-0.0072632497,1741898043.855021
0.034,0.082375,-0.005625,0.00137325,-0.00184625,0.0022735,0.00275,0.006375,0.071375,-0.0042725,-0.0204315,-0.00788875,1741898043.874878
0.030875,0.082375,-0.007125,-0.00019825,-0.0012207499,0.00390625,-0.012,0.003875,0.078625,-0.00193775,-0.023346001,-0.00541675,1741898043.8843641
0.02975,0.087,-0.011125,-0.00334175,-0.00057975,0.00715625,-0.022375,0.004,0.108,0.00115975,-0.0269165,-0.00131225,1741898043.8991911
0.025625,0.08975,-0.015125,-0.004593,-0.0003205,0.008712751,-0.04825,0.0015,0.18,0.000763,-0.0266875,-0.00062550005,1741898043.9145448
0.0245,0.0855,-0.013125,-0.00614925,0.0009155,0.012405501,-0.05625,-0.00375,0.202125,-0.0007325,-0.02082825,0.0003205,1741898043.9287329
0.024125,0.080625,-0.0095,-0.0066374997,0.0017852499,0.01452625,-0.06025,-0.00725,0.224875,-0.0005645,-0.01573175,0.0011445,1741898043.943813
0.023,0.08225,-0.0105,-0.0070647504,0.002655,0.0166625,-0.06375,-0.003125,0.238375,0.0032195,-0.0018615,0.0020295,1741898043.958501
0.018875,0.088875,-0.0165,-0.00889575,0.00369275,0.0209655,-0.070375,0.003125,0.25675,0.0063934997,0.00668325,0.00216675,1741898043.9770691
-0.000125,0.13,-0.020875,-0.0111085,0.00354,0.02285775,-0.065875,0.004875,0.252875,0.01036075,0.025360001,0.001953,1741898043.987423
-0.030875,0.220875,-0.04025,-0.0260315,-0.0012665,0.01358025,-0.037375,0.01475,0.222625,0.010742251,0.033889752,0.001068,1741898044.001899
-0.04725,0.38025,-0.09475,-0.02955625,-0.0048674997,-0.00238025,-0.024625,0.0185,0.202625,0.010757499,0.040451,-0.000229,1741898044.0190148
0.01475,0.233,-0.093,0.01339725,0.0062865,-0.0211335,-0.016625,0.017625,0.15,0.011184749,0.0451965,-0.0026092501,1741898044.036153
0.02275,0.09475,-0.0755,0.029724,0.0093385,-0.020477248,-0.011875,-0.0,0.02925,0.011734,0.04435725,-0.00372325,1741898044.0459
0.012625,0.065875,-0.055125,0.034835752,0.00801075,-0.019867001,0.0065,-0.003375,-0.130375,-0.00419625,0.01855475,-0.0052795,1741898044.060674
0.0065,0.074,-0.00425,0.02127075,-0.0025787498,-0.012496999,0.004125,0.07025,-0.069125,-0.01206975,0.00035100002,-0.00785825,1741898044.0757911
0.003,0.09625,0.008875,0.010009751,-0.0065307496,-0.009277251,-0.031625,0.05225,0.016125,0.009216251,-0.0034484998,-0.0051574996,1741898044.094639
0.0065,0.109625,0.005875,-0.00314325,-0.006363,-0.006775,-0.03775,-0.00925,0.087,0.01867675,0.00096125,0.000183,1741898044.1047292
0.029,0.1165,-0.02925,-0.003418,-0.0050812503,-0.0059205,-0.018625,-0.0205,0.0985,0.01519775,0.0017395001,0.0021057501,1741898044.119489
0.034875,0.1165,-0.0425,0.0021972498,-0.0048065,-0.00579825,0.00525,-0.021,0.102625,0.008484,-0.00042725,-0.00131225,1741898044.135137
0.036125,0.115375,-0.03625,0.0046234997,-0.00567625,-0.0062865,0.0095,-0.01925,0.098125,-0.000824,-0.008072,-0.0076295,1741898044.154603
0.033625,0.10975,-0.02375,0.00720225,-0.00621025,-0.0068512503,0.00325,-0.0135,0.082375,-0.00242625,-0.013382,-0.008148249,1741898044.163724
0.031375,0.088125,-0.004125,0.00708,-0.005539,-0.00617975,-0.0035,-0.01425,0.071125,-0.00068675,-0.022583,-0.00369275,1741898044.178572
0.03075,0.080375,0.000125,0.00564575,-0.0047607496,-0.00466925,-0.01775,-0.0225,0.076,0.00045775,-0.0254975,-0.00010675,1741898044.195304
0.02675,0.078125,-0.002,0.00109875,-0.0035704998,-0.00051875,-0.02475,-0.023625,0.10175,-0.00045775,-0.02687075,0.0052337497,1741898044.2137039
0.0255,0.08075,-0.005,-0.000473,-0.00305175,0.0016632499,-0.0285,-0.017375,0.15925,-0.00239575,-0.026291,0.0063934997,1741898044.2227619
0.024375,0.08325,-0.007375,-0.0019685,-0.0019225,0.00611875,-0.02475,-0.011125,0.1745,-0.00579825,-0.02456675,0.00708,1741898044.237488
0.02175,0.082,-0.0095,-0.002777,-0.0013275,0.008407501,-0.028625,0.001125,0.193375,-0.00596625,-0.02297975,0.00717175,1741898044.2547252
0.02075,0.081375,-0.008375,-0.0055085,-0.0003205,0.01310725,-0.0415,0.01175,0.214,-0.0028074998,-0.015152001,0.00662225,1741898044.2669718
0.020375,0.082,-0.00525,-0.0070952503,0.0003205,0.0151825,-0.06875,0.027625,0.27425,0.00059500005,-0.0069885002,0.00535575,1741898044.2817438
0.021375,0.082875,-0.005375,-0.0095672505,0.00225825,0.018692,-0.07425,0.023,0.292625,0.00794975,0.01589975,0.0021972498,1741898044.296192
0.02475,0.08675,-0.00725,-0.010253999,0.0034637498,0.02015675,-0.043375,0.014875,0.264625,0.009719751,0.02711475,0.00033575002,1741898044.314802
0.022375,0.095375,-0.010875,-0.010376001,0.0047302498,0.0213775,-0.024125,0.012875,0.2365,0.009445249,0.035659753,-0.00245675,1741898044.3254669
0.012625,0.114125,-0.0175,-0.0105742505,0.00643925,0.022293,-0.016125,0.013125,0.21275,0.00617975,0.04521175,-0.008361749,1741898044.340157
-0.073875,0.3345,-0.04425,-0.01826475,0.0049895,0.01832575,-0.018875,0.015,0.160875,0.00555425,0.048462003,-0.010086001,1741898044.355104
-0.069375,0.412125,-0.089375,-0.0224305,0.0026854998,-0.011321999,-0.01775,0.016375,0.101875,0.0056,0.04907225,-0.0119934995,1741898044.374611
0.052375,0.133,-0.086375,0.00242625,0.0077515002,-0.01976025,0.00225,-0.024,-0.145375,-0.00381475,0.03822325,-0.0122375,1741898044.384182
0.029875,0.0855,-0.071,0.0318755,0.011169501,-0.019744748,0.01475,0.036625,-0.1215,-0.019516,0.0074920002,-0.01469425,1741898044.3990972
0.011625,0.03975,-0.0385,0.0314025,0.0070647504,-0.017425502,-0.026875,0.019625,-0.013625,-0.0036315,0.00358575,-0.01358025,1741898044.415026
0.01375,0.050375,-0.013375,0.010803251,-0.0042725,-0.00555425,-0.033625,-0.02325,0.003375,0.02139275,-0.0027160002,-0.001953,1741898044.428662
0.004375,0.113625,0.01125,0.000763,-0.006012,-0.0027465,-0.022,-0.050875,0.061125,0.02114875,-0.00817875,0.00187675,1741898044.4432828
0.009625,0.118,0.000375,-0.0045625,-0.004776,-0.00201425,-0.019,-0.04875,0.08975,0.0078735,-0.012680001,0.00059500005,1741898044.457878
0.02825,0.105875,-0.034625,-0.0039215,-0.001419,1.5250001e-05,-0.002875,-0.040125,0.089625,3.0500001e-05,-0.01440425,-0.00225825,1741898044.4777129
0.03025,0.10375,-0.044875,-0.0015105,-0.00137325,0.00067150005,0.003,-0.031875,0.0745,-0.00587475,-0.02412425,-0.00372325,1741898044.487647
0.028875,0.106125,-0.043625,0.00190725,-0.00354,0.00064075,-0.012375,-0.026625,0.063125,-0.00372325,-0.029876752,-0.001648,1741898044.502452
0.02325,0.102375,-0.0185,0.00251775,-0.00396725,0.00048825,-0.0305,-0.02875,0.08825,0.0002135,-0.03598025,0.0047912505,1741898044.517153
0.019625,0.09675,-0.007375,0.000885,-0.0025634998,0.00154125,-0.0625,-0.036625,0.181,-0.00059500005,-0.03494275,0.00712575,1741898044.535051
0.014375,0.0915,-0.00225,-0.00099175,-0.0013885,0.002777,-0.06525,-0.038,0.2165,-0.00411975,-0.02671825,0.0087585,1741898044.546782
0.01375,0.092625,-0.006,-0.0049590003,0.00035100002,0.0055847503,-0.041125,-0.019125,0.2225,-0.004593,-0.02159125,0.009231499,1741898044.561493
0.0125,0.099125,-0.014875,-0.0063477503,0.0009155,0.0068512503,-0.030125,0.004375,0.207875,-0.002472,-0.012680001,0.0101775,1741898044.5762072
0.012125,0.100375,-0.0175,-0.00708,0.0015105,0.0080415,-0.02875,0.047625,0.214125,0.00093075,-0.00823975,0.00924675,1741898044.5938601
0.013375,0.098875,-0.0185,-0.007431,0.0028687501,0.010727,-0.032,0.048125,0.23125,0.00621025,-0.00267025,0.006775,1741898044.6054459
0.01825,0.097125,-0.02,-0.00791925,0.0033570002,0.0123442495,-0.02725,0.020625,0.2535,0.014923001,0.013214,0.0005645,1741898044.6200662
0.01675,0.10225,-0.0225,-0.0101165,0.0034637498,0.01474,-0.020625,0.007125,0.249,0.01570125,0.022338752,-0.0019685,1741898044.634751
0.001375,0.129875,-0.037,-0.01127625,0.0032195,0.0149995005,-0.01475,0.003375,0.23325,0.01065075,0.036804248,-0.0072175004,1741898044.6552262
-0.01175,0.163375,-0.0375,-0.013443,0.0017395001,0.011535751,-0.001625,0.018375,0.174875,0.006607,0.041396998,-0.01062,1741898044.663872
-0.058625,0.365,-0.07025,-0.01876825,-0.000412,0.0024872501,0.000625,0.024875,0.144125,0.0020752498,0.04417425,-0.01651,1741898044.678472
-0.01575,0.331125,-0.080375,-0.0021515,0.0029449998,-0.0217285,-0.003125,0.0175,0.09125,0.002121,0.04417425,-0.01820375,1741898044.6947289
0.041,0.1075,-0.058125,0.018692,0.00785825,-0.02459725,-0.0065,0.002375,0.0695,0.00331125,0.042648252,-0.0185395,1741898044.707333
0.018875,0.080125,-0.05175,0.0310975,0.00976575,-0.024505502,-0.012375,-0.064875,-0.074125,-0.0019989999,0.03787225,-0.01664725,1741898044.7222111
