L-AccX,L-AccY,L-AccZ,L-GyrX,L-GyrY,L-GyrZ,R-AccX,R-AccY,R-AccZ,R-GyrX,R-GyrY,R-GyrZ,timestamp
-0.021625,-0.019,0.122625,-6.1000002e-05,-0.00036625,0.0005645,-0.006,-0.050875,0.12775,-0.00157175,0.0030975002,0.003006,1741898502.550474
-0.021875,-0.0185,0.122625,1.5250001e-05,-0.0002135,0.00071725,-0.007375,-0.048125,0.1335,-0.003418,0.0040435,0.0031585,1741898502.566495
-0.021875,-0.017875,0.122375,-0.000122000005,-6.1000002e-05,0.00077825,-0.01325,-0.04375,0.14725,-0.00444025,0.0049742498,0.0029755002,1741898502.581096
-0.02175,-0.016875,0.1215,-0.0002595,-9.15e-05,0.00067150005,-0.0145,-0.043,0.150875,-0.00691225,0.007965,0.00193775,1741898502.596213
-0.021625,-0.016875,0.121125,-0.0005035,-0.0002595,0.00036625,-0.010375,-0.038125,0.15125,-0.0084379995,0.00976575,0.00119025,1741898502.609164
-0.0215,-0.016625,0.120875,-0.00057975,-0.00035100002,0.0002595,-0.007875,-0.0335,0.153875,-0.011764499,0.01380925,-0.00064075,1741898502.6240342
-0.021375,-0.016375,0.12075,-0.00051875,-0.00042725,0.000122000005,-0.010875,-0.01875,0.162125,-0.0128785,0.01617425,-0.00184625,1741898502.638813
-0.021,-0.017,0.120875,-0.00036625,-0.00042725,4.575e-05,-0.014,-0.015875,0.163875,-0.012436,0.02105725,-0.005066,1741898502.658705
-0.02075,-0.017625,0.120375,-0.00010675,-0.00051875,0.0,-0.014625,-0.02525,0.155,-0.011734,0.023193251,-0.0062865,1741898502.668548
-0.020375,-0.018375,0.118625,-0.000183,-0.00062550005,3.0500001e-05,-0.01075,-0.028875,0.145875,-0.01245125,0.0265045,-0.008148249,1741898502.683311
-0.020375,-0.018375,0.118125,-0.0003205,-0.0007935,9.15e-05,0.004,-0.03275,0.12875,-0.014923001,0.02760325,-0.01019275,1741898502.697941
-0.020625,-0.01825,0.118625,-0.00048825,-0.00119025,0.000122000005,0.002,-0.025,0.121125,-0.01893625,0.028289748,-0.0129395,1741898502.7128599
-0.020625,-0.01775,0.11875,-0.00057975,-0.00146475,0.00010675,-0.0015,0.009125,0.105375,-0.022995,0.02981575,-0.01800525,1741898502.727433
-0.020875,-0.016625,0.119125,-0.00093075,-0.00228875,9.15e-05,0.0025,0.014,0.095625,-0.019744748,0.0312195,-0.020401,1741898502.742107
-0.02375,-0.01325,0.126375,-0.0011445,-0.00270075,3.0500001e-05,0.006875,0.0115,0.085,-0.010299751,0.032135,-0.02285775,1741898502.757086
-0.025,-0.014875,0.12975,-0.00181575,-0.002243,-4.575e-05,0.015375,0.00325,0.066375,-0.00697325,0.030883752,-0.023178,1741898502.77135
-0.024875,-0.019,0.134875,-0.0025940002,-0.0015565,0.00027475,0.018,-0.000375,0.058,-0.0032655,0.02586375,-0.02445975,1741898502.785943
-0.024875,-0.0185,0.13625,-0.00434875,3.0500001e-05,0.001068,0.02575,-0.012,0.041625,-0.002655,0.022094749,-0.0257415,1741898502.80085
-0.029375,-0.010125,0.14,-0.0047912505,0.0008545,0.0011445,0.0295,-0.02325,0.037375,-0.0047150003,0.011398249,-0.02851875,1741898502.821496
-0.03575,0.002375,0.141875,-0.0028074998,0.0028074998,-0.0003205,0.025375,-0.04975,0.033375,-0.0064850003,0.0046845004,-0.029449498,1741898502.832554
-0.061375,0.04525,0.144125,-1.5250001e-05,0.0039825,-0.00279225,0.01825,-0.07,0.03175,-0.00883475,-0.00953675,-0.02920525,1741898502.8472981
-0.07325,0.0575,0.13575,0.002884,0.005066,-0.007019,0.014375,-0.0715,0.033375,-0.00862125,-0.01586925,-0.027709998,1741898502.863553
-0.08025,0.055375,0.124375,0.00372325,0.0060272496,-0.0184785,0.01025,-0.065625,0.035875,-0.0045165,-0.0257415,-0.02442925,1741898502.878321
-0.092125,0.03775,0.128875,0.00137325,0.0065917503,-0.023468,0.0055,-0.04975,0.042875,-0.00062550005,-0.029251,-0.02301025,1741898502.891551
-0.095375,0.037375,0.135875,-0.00231925,0.00935375,-0.030548,0.004375,-0.045875,0.0475,0.0104065,-0.033996496,-0.01896675,1741898502.90626
-0.081375,0.0445,0.137625,-0.001648,0.01077275,-0.03376775,-0.001125,-0.058375,0.0615,0.015976,-0.035492,-0.01628125,1741898502.921046
-0.07125,0.0465,0.132375,0.00263975,0.011901749,-0.04173275,-0.007875,-0.077625,0.070375,0.02174375,-0.037704498,-0.009734999,1741898502.93731
-0.056625,0.028125,0.12675,0.0056,0.011810251,-0.04600525,-0.020125,-0.10125,0.087625,0.0213165,-0.03848275,-0.0063325,1741898502.950859
-0.052125,0.0165,0.1295,0.01020825,0.0115815,-0.052673247,-0.02325,-0.101875,0.0955,0.01667775,-0.038803,-0.00143425,1741898502.965724
-0.0455,-0.0115,0.140625,0.009521499,0.011535751,-0.054901,-0.029375,-0.1065,0.111,0.01419075,-0.03828425,0.00029,1741898502.980243
-0.038625,-0.022125,0.139375,0.0074920002,0.011795,-0.055862498,-0.0345,-0.113,0.11875,0.010147001,-0.035949748,0.0044250004,1741898502.998424
-0.020375,-0.045,0.135625,0.0064239996,0.012557999,-0.05596925,-0.045875,-0.10775,0.13425,0.008651749,-0.0343475,0.00691225,1741898503.009662
-0.014625,-0.055375,0.137625,0.00717175,0.01324475,-0.055236753,-0.048625,-0.100125,0.143625,0.0075835,-0.030426001,0.0114135,1741898503.024341
-0.012,-0.06175,0.138,0.006302,0.015304499,-0.05184925,-0.045875,-0.102625,0.15775,0.008194,-0.028289748,0.013549751,1741898503.038841
-0.008125,-0.06525,0.12775,0.0041044997,0.01579275,-0.04898075,-0.047875,-0.110375,0.16025,0.0069274995,-0.0237275,0.016037,1741898503.054162
-0.008875,-0.066375,0.1305,0.00201425,0.01655575,-0.0423125,-0.047625,-0.107,0.15625,0.0049285004,-0.020874001,0.017807,1741898503.068257
-0.012875,-0.07675,0.15975,0.0029755002,0.0186615,-0.039306752,-0.0445,-0.09375,0.15425,0.00169375,-0.014358499,0.0243225,1741898503.082962
-0.0085,-0.086875,0.166125,0.00555425,0.0261535,-0.03211975,-0.0345,-0.068125,0.153125,0.00109875,-0.0115205,0.02586375,1741898503.097714
0.006875,-0.104,0.156625,0.00631725,0.03012075,-0.02619925,-0.03325,-0.066,0.154125,0.00057975,-0.009002751,0.024505502,1741898503.112428
0.0105,-0.101625,0.147375,0.00744625,0.034195,-0.0186615,-0.040625,-0.064875,0.1535,0.00074775,-0.008224499,0.0263215,1741898503.127069
0.01325,-0.09675,0.135625,0.01019275,0.04116825,-0.00408925,-0.044125,-0.059875,0.15125,0.000824,-0.00708,0.02886975,1741898503.1417449
0.023875,-0.0855,0.109875,0.01013175,0.0426025,0.0012055,-0.047875,-0.049,0.15175,-0.000229,-0.0036315,0.03094475,1741898503.158334
0.029875,-0.08325,0.10075,0.0068969997,0.04068,0.0075682504,-0.04825,-0.043125,0.152875,-0.0013885,-0.0015105,0.03041075,1741898503.1779158
0.031375,-0.08225,0.097,0.0048674997,0.03886425,0.010757499,-0.047875,-0.0375,0.15225,-0.004074,0.00317375,0.027542,1741898503.1858811
0.02975,-0.073375,0.096625,0.0045625,0.03721625,0.018875,-0.0505,-0.0415,0.1465,-0.0049285004,0.00541675,0.026291,1741898503.200446
0.0365,-0.0605,0.086375,0.0059967497,0.03663625,0.022064252,-0.05275,-0.04775,0.14375,-0.0070342496,0.009491,0.02545175,1741898503.2176042
0.041875,-0.062625,0.07775,0.0067902496,0.03297425,0.027587999,-0.046875,-0.03675,0.141375,-0.00883475,0.012329,0.024261499,1741898503.229852
0.047125,-0.057125,0.066375,0.0062407497,0.03019725,0.0306245,-0.043,-0.025625,0.14,-0.0106355,0.017868,0.018982,1741898503.2445672
0.0485,-0.04925,0.063375,0.005844,0.02722175,0.03300475,-0.034125,-0.014375,0.134125,-0.0102845,0.020111,0.016388,1741898503.259229
0.050125,-0.043625,0.060875,0.00621025,0.0206145,0.0346375,-0.03125,-0.011625,0.131875,-0.00935375,0.023650998,0.011688249,1741898503.273878
0.05375,-0.038125,0.0585,0.00668325,0.01705925,0.03500375,-0.02975,-0.008125,0.128,-0.009017999,0.025268499,0.009201,1741898503.288439
0.055625,-0.035,0.0575,0.00839225,0.01013175,0.0365905,-0.02775,-0.01125,0.12425,-0.009506251,0.028716998,0.0041044997,1741898503.303154
0.056125,-0.028625,0.056125,0.0091705,0.006607,0.03733825,-0.02125,-0.016375,0.115125,-0.01071175,0.03050225,0.0016785001,1741898503.320939
0.0525,-0.023,0.055875,0.00889575,-0.0009765,0.037917998,-0.017625,-0.014375,0.111375,-0.01326,0.03424075,-0.0036315,1741898503.3326368
0.044875,-0.00575,0.0495,0.0072175004,-0.0052642496,0.03718575,-0.01125,-0.00025,0.108,-0.01402275,0.03598025,-0.00697325,1741898503.347618
0.044,-0.00125,0.046625,0.0047302498,-0.01026925,0.035431,-0.0105,0.003625,0.108,-0.01367175,0.038681,-0.013931249,1741898503.362345
0.043125,0.0,0.048125,-0.000824,-0.021636998,0.030456498,-0.00925,-0.0005,0.10725,-0.0128175,0.03955075,-0.0168,1741898503.37835
0.034625,0.0045,0.059625,-0.00331125,-0.0266265,0.02832025,-0.006,-0.0005,0.103,-0.010681249,0.039855998,-0.02149975,1741898503.3918662
0.026875,0.01075,0.066875,-0.0065002497,-0.03353875,0.025085501,0.004125,0.0045,0.088375,-0.009613,0.039169252,-0.02401725,1741898503.406357
0.00475,0.033,0.087875,-0.00715625,-0.03556825,0.02313225,0.009,0.00625,0.08025,-0.00862125,0.03816225,-0.0269165,1741898503.420919
-0.02425,0.057625,0.116,-0.0074615004,-0.03671275,0.01719675,0.01325,0.006875,0.072,-0.0063934997,0.03553775,-0.03323375,1741898503.43854
-0.030375,0.062,0.1235,-0.0061339997,-0.03585825,0.01345825,0.023125,0.00625,0.0555,-0.00494375,0.033889752,-0.036331248,1741898503.4498649
-0.028,0.057875,0.125875,-0.00181575,-0.0331115,0.0068207504,0.03,0.0055,0.04575,-0.0008545,0.02879325,-0.041504003,1741898503.464329
-0.0145,0.04275,0.12375,-0.00067150005,-0.031952,0.0050202496,0.042125,-0.007625,0.03475,0.0013427499,0.02500925,-0.04319775,1741898503.478847
-0.010625,0.0405,0.124,-6.1000002e-05,-0.030838,0.002655,0.041875,-0.0305,0.03525,0.0041504996,0.013793999,-0.0433045,1741898503.495536
-0.01275,0.041375,0.13575,0.0003815,-0.030609248,0.00057975,0.038125,-0.092125,0.032125,0.00352475,0.00517275,-0.04125975,1741898503.50804
-0.0175,0.04225,0.143875,0.000763,-0.0296325,-0.0053709997,0.03625,-0.116625,0.0305,-0.00193775,-0.016327,-0.034652747,1741898503.522924
-0.029875,0.048,0.15825,0.000885,-0.028594999,-0.008636501,0.03,-0.134,0.031,-0.004074,-0.0261535,-0.03149425,1741898503.540295
-0.034,0.048625,0.161,0.0027465,-0.02510075,-0.0153502505,0.0245,-0.147,0.03575,-0.0054932497,-0.039306752,-0.025665252,1741898503.552432
-0.03225,0.0325,0.160375,0.003891,-0.023193251,-0.018127501,0.00725,-0.17375,0.047375,-0.00488275,-0.0437775,-0.021225,1741898503.567104
-0.030625,0.027,0.161875,0.0051269997,-0.0212555,-0.019927999,-0.003375,-0.171875,0.055625,-0.00239575,-0.050827,-0.008484,1741898503.582001
-0.032125,0.028625,0.166625,0.0074615004,-0.01705925,-0.02241525,-0.017875,-0.144375,0.083625,-0.00062550005,-0.05307,-0.0014495,1741898503.598121
-0.044125,0.04375,0.180625,0.007904,-0.01446525,-0.02445975,-0.018875,-0.131125,0.100125,0.00411975,-0.05349725,0.012085,1741898503.611551
-0.049875,0.04825,0.1865,0.008636501,-0.008026,-0.03108225,-0.012625,-0.142875,0.129625,0.0062712496,-0.0505675,0.01835625,1741898503.626313
-0.05825,0.048875,0.19625,0.00868225,-0.0045165,-0.034911998,-0.013,-0.15325,0.134625,0.007904,-0.045654252,0.02452075,1741898503.6409369
-0.056375,0.038375,0.19,0.008377,0.002533,-0.042236254,-0.017375,-0.1435,0.134625,0.0102235,-0.038879503,0.035324,1741898503.659968
-0.039875,-0.0015,0.177125,0.00764475,0.0056,-0.044326752,-0.019375,-0.125625,0.138125,0.009811499,-0.038055502,0.03913875,1741898503.67049
-0.0325,-0.016875,0.17975,0.002655,0.011078,-0.044143748,-0.021,-0.10925,0.144625,0.0027312501,-0.03657525,0.041992247,1741898503.685143
-0.01975,-0.04,0.186875,-0.0003815,0.014221249,-0.043335,-0.03825,-0.09325,0.16125,-0.00238025,-0.0348815,0.042419497,1741898503.699827
-0.0115,-0.052375,0.18575,-0.00292975,0.017685,-0.041931253,-0.053375,-0.086,0.170125,-0.005005,-0.02804575,0.045227002,1741898503.717813
0.0015,-0.073625,0.1785,-0.0062407497,0.02471925,-0.036087003,-0.07675,-0.0715,0.193375,-0.0016785001,-0.022491502,0.047530998,1741898503.729246
0.0035,-0.0845,0.17225,-0.00773625,0.0280915,-0.0319825,-0.08375,-0.059,0.205625,0.0040587503,-0.0093995,0.0502015,1741898503.7438521
0.002625,-0.088125,0.1625,-0.00823975,0.035553,-0.020401,-0.08925,-0.032,0.217875,0.0042115003,-0.00251775,0.0489045,1741898503.7601368
0.007625,-0.058375,0.168875,-0.00292975,0.0398865,-0.015213001,-0.09025,-0.026,0.2125,0.000946,0.011825499,0.04240425,1741898503.773043
0.0165,-0.064125,0.15625,0.030151252,0.0592805,-0.012313751,-0.087125,-0.0205,0.18825,-0.0016632499,0.01882925,0.0383605,1741898503.7877371
0.046625,-0.16275,0.070125,0.027832001,0.0606995,-0.003662,-0.08125,-0.014625,0.175625,-0.00874325,0.031433,0.02908325,1741898503.8024518
0.0605,-0.1305,0.075375,-0.00154125,0.045898497,0.02168275,-0.064875,0.004875,0.156375,-0.0123442495,0.036789,0.023758,1741898503.821652
0.06475,-0.102625,0.06575,-0.00953675,0.041824248,0.02705375,-0.057625,0.0135,0.14925,-0.016570998,0.04544075,0.0122375,1741898503.8316412
0.059375,-0.08975,0.05775,-0.010788,0.038681,0.031158501,-0.045,0.026125,0.1305,-0.01747125,0.04872125,0.00585925,1741898503.846148
0.055875,-0.07325,0.049375,-0.00068675,0.03430175,0.03810125,-0.036625,0.029875,0.117125,-0.019516,0.0535735,-0.0070952503,1741898503.860839
0.059875,-0.0495,0.030625,0.00402825,0.031433,0.040756248,-0.009125,0.036,0.085,-0.020523,0.05496225,-0.013275251,1741898503.878567
0.0635,-0.03975,0.021875,0.008285499,0.0211945,0.04470825,0.005875,0.03775,0.06775,-0.0204925,0.055236753,-0.019348249,1741898503.890048
0.07,-0.0155,0.001375,0.009872501,0.01425175,0.045456,0.017125,0.038375,0.0525,-0.0160675,0.05302425,-0.03025825,1741898503.904583
0.071875,-0.00325,-0.005125,0.013061499,-0.0019989999,0.04344175,0.030625,0.041375,0.025875,-0.010666001,0.0534515,-0.03445425,1741898503.9191658
0.06575,0.0135,0.0095,0.01367175,-0.010666001,0.040954497,0.039625,0.04,0.010625,0.00302125,0.052993752,-0.04116825,1741898503.93457
0.053125,0.022,0.026125,0.01272575,-0.02528375,0.03509525,0.05525,0.017,-0.007875,0.0060425,0.0464935,-0.044143748,1741898503.9481568
0.013375,0.06475,0.065625,0.013031,-0.031036502,0.03164675,0.05675,-0.007125,-0.012625,-0.0031585,0.021164,-0.04901125,1741898503.9629922
-0.008375,0.089375,0.087,0.014358499,-0.03562925,0.026535,0.049375,-0.06425,-0.035125,-0.01216125,0.00640875,-0.050293,1741898503.979061
-0.0275,0.1,0.105125,0.018158002,-0.0396575,0.0129395,0.044875,-0.095,-0.045125,-0.0273895,-0.018875,-0.051239,1741898503.992652
-0.04025,0.09075,0.126375,0.01930225,-0.039779752,0.0066985004,0.026,-0.139875,-0.033625,-0.02905275,-0.02955625,-0.04904175,1741898504.0075798
-0.034375,0.066,0.1155,0.016098,-0.040039003,-0.0045012496,0.0125,-0.155875,-0.02075,-0.024582,-0.048828,-0.039505,1741898504.0224159
-0.045625,0.017375,0.109,0.010147001,-0.041626,-0.00637825,-0.016625,-0.186375,0.019625,-0.019714251,-0.05555725,-0.032852247,1741898504.039395
-0.063625,0.029875,0.130875,-0.0038757501,-0.043105997,-0.008926501,-0.031875,-0.182375,0.0495,-0.0043335,-0.0626525,-0.0152435,1741898504.0520298
-0.0835,0.067625,0.179125,-0.0055695,-0.040466253,-0.014724749,-0.05875,-0.151625,0.127625,0.00263975,-0.0635375,-0.0065612504,1741898504.066849
-0.073875,0.0725,0.19025,0.0005645,-0.030014,-0.027649,-0.06175,-0.149,0.16375,0.01310725,-0.05140675,0.01019275,1741898504.081554
-0.0415,0.0585,0.208375,0.0052337497,-0.02445975,-0.030746501,-0.0295,-0.174125,0.1745,0.01800525,-0.04261775,0.018875,1741898504.098998
-0.034,0.059625,0.2215,0.008926501,-0.018982,-0.0316315,-0.013125,-0.180375,0.168,0.02439875,-0.033325247,0.033722,1741898504.1108391
-0.030125,0.061375,0.2275,0.0128785,-0.00631725,-0.0347595,-0.00525,-0.161875,0.162125,0.0242005,-0.030853251,0.038558997,1741898504.1254468
-0.012,0.0355,0.189125,0.01194775,-0.00067150005,-0.03781125,-0.010125,-0.155875,0.163375,0.022643998,-0.028747499,0.04216,1741898504.140139
-0.00325,0.021125,0.163375,0.00570675,0.0026854998,-0.042328,-0.036,-0.1345,0.177875,0.01779175,-0.024292,0.0466155,1741898504.159018
-0.01425,-0.00725,0.1595,0.00320425,0.0022125002,-0.04367075,-0.04925,-0.115625,0.194125,0.014206001,-0.02009575,0.0474395,1741898504.169322
-0.02375,-0.029625,0.18025,0.0010375,0.00546275,-0.04628,-0.05925,-0.094,0.216125,0.0048979996,-0.00585925,0.0469665,1741898504.183955
-0.025875,-0.0925,0.22125,-0.00143425,0.010437001,-0.045349,-0.065125,-0.051375,0.2405,-0.00010675,0.0028229998,0.04512025,1741898504.198755
-0.015625,-0.1135,0.22525,-0.00845325,0.023620501,-0.034073003,-0.064375,-0.03625,0.23325,-0.0057677496,0.018585252,0.0395355,1741898504.219476
0.00625,-0.1085,0.209375,-0.010559,0.0303955,-0.02626025,-0.060625,-0.013,0.19525,-0.0065155,0.02487175,0.0368805,1741898504.227946
0.015625,-0.096125,0.189125,-0.011245751,0.037201,-0.01855475,-0.0565,-0.000875,0.172625,-0.008026,0.0348815,0.029220501,1741898504.242591
0.02475,-0.085125,0.167625,-0.007431,0.047699,-0.0058899997,-0.040375,0.022,0.135,-0.00868225,0.038879503,0.02427675,1741898504.2607172
0.029875,-0.09475,0.133625,-0.004776,0.051498502,-0.00057975,-0.029125,0.03575,0.121125,-0.008926501,0.044662498,0.01266475,1741898504.271826
0.0315,-0.105375,0.117,-0.00064075,0.058426,0.013214,-0.009625,0.059875,0.099625,-0.008606,0.046646,0.005844,1741898504.286347
0.04975,-0.12725,0.07225,0.00039675,0.060668997,0.02073675,-0.001375,0.0675,0.084125,-0.0059815003,0.04792775,-0.00842275,1741898504.3019662
0.063375,-0.126625,0.048625,-0.00352475,0.05606075,0.03439325,0.0145,0.059625,0.045125,-0.0028687501,0.046341,-0.0148315,1741898504.315538
0.069375,-0.10175,0.01575,-0.0067597497,0.049591,0.039154,0.021375,0.0465,0.0305,0.0034484998,0.039734002,-0.02525325,1741898504.3299809
0.066,-0.08175,0.001125,-0.01065075,0.035019003,0.0473175,0.022875,0.0255,0.030875,0.0061645,0.038940497,-0.03034975,1741898504.344461
0.067375,-0.0485,-0.027375,-0.012420749,0.02734375,0.05055225,0.023625,0.018625,0.0255,0.008407501,0.041961752,-0.03639225,1741898504.3590999
0.076875,-0.027375,-0.0425,-0.01361075,0.01899725,0.053222753,0.027875,0.007625,0.01175,-1.5250001e-05,0.040573,-0.050674498,1741898504.378581
0.085875,-0.0045,-0.045875,-0.013000499,-0.0022735,0.051239,0.03275,-0.0405,-0.020375,-0.0117035,0.031265248,-0.055953998,1741898504.388166
0.07825,0.011875,-0.006,-0.009506251,-0.012191749,0.0467225,0.031,-0.076625,-0.0355,-0.0392915,0.00531,-0.0592345,1741898504.402875
0.058875,0.0275,0.011125,0.007187,-0.02421575,0.038818248,0.018125,-0.151625,-0.04225,-0.04875175,-0.00791925,-0.0578155,1741898504.419772
0.006875,0.09325,0.0215,0.018035999,-0.0290985,0.03453075,0.00725,-0.182625,-0.032625,-0.05223075,-0.03215025,-0.049621496,1741898504.4325418
-0.013375,0.127625,0.036125,0.0379945,-0.039734002,0.02333075,-0.018,-0.2365,0.017125,-0.04783625,-0.04252625,-0.042221002,1741898504.447349
-0.029125,0.160625,0.07425,0.04597475,-0.043518003,0.015442001,-0.029875,-0.2385,0.056125,-0.02781675,-0.05953975,-0.018692,1741898504.462225
-0.03275,0.1335,0.089,0.045898497,-0.048111,-0.00228875,-0.05025,-0.14275,0.155875,-0.01725775,-0.061355498,-0.008514499,1741898504.480154
-0.060875,0.066875,0.13675,0.036728002,-0.049850497,-0.00723275,-0.049,-0.104875,0.18975,-0.00393675,-0.039352503,0.0017242499,1741898504.491873
-0.079,0.063875,0.161875,0.02572625,-0.050293,-0.00976575,-0.018625,-0.12825,0.186125,0.001709,-0.028473,0.008499251,1741898504.506473
-0.091625,0.07575,0.17975,0.010940501,-0.044860747,-0.019577,0.003375,-0.145,0.161625,0.016983,-0.0229645,0.02952575,1741898504.520959
-0.091875,0.08825,0.22875,0.0067597497,-0.03990175,-0.02787775,0.03225,-0.13375,0.12825,0.02636725,-0.0236665,0.03854375,1741898504.539474
-0.0755,0.0715,0.246375,0.00077825,-0.026733499,-0.038940497,0.019875,-0.128,0.13575,0.0421295,-0.02211,0.047378503,1741898504.550057
-0.028125,0.0445,0.24025,0.0013885,-0.019165002,-0.0404815,-0.028625,-0.139375,0.174125,0.045516998,-0.01911925,0.04936225,1741898504.564768
-0.014125,0.040875,0.233625,0.00384525,-0.0055237496,-0.04318225,-0.045625,-0.13525,0.193375,0.043808,-0.01519775,0.0507965,1741898504.579359
-0.017625,-0.0015,0.228625,0.0029755002,0.000534,-0.044983003,-0.05275,-0.102,0.221375,0.03114325,-0.00213625,0.051818747,1741898504.598696
-0.0275,-0.027875,0.229,-0.001526,0.01278675,-0.04261775,-0.051125,-0.0795,0.225,0.02424625,0.00643925,0.04995725,1741898504.60858
-0.037125,-0.053875,0.234375,-0.0034637498,0.019470248,-0.040527247,-0.047875,-0.058375,0.2175,0.014510999,0.023071252,0.04319775,1741898504.623064
-0.0265,-0.08,0.224375,-0.00494375,0.02677925,-0.038390998,-0.02925,-0.02225,0.17125,0.01091,0.029007,0.040069498,1741898504.639509
0.005125,-0.11625,0.195,-0.0063325,0.04039,-0.027847249,-0.01825,-0.00425,0.14125,0.0044250004,0.03462225,0.032409754,1741898504.6522791
0.018875,-0.113875,0.176,-0.0065155,0.046646,-0.01927175,-0.00275,0.018125,0.101875,0.00364675,0.0356445,0.027984502,1741898504.6667259
0.032875,-0.110875,0.15375,-0.00204475,0.058014,-0.002655,0.0035,0.028,0.095625,0.00390625,0.03636175,0.01725775,1741898504.681089
0.052875,-0.123375,0.107625,0.00051875,0.06112675,0.00440975,0.016375,0.056625,0.096375,0.00411975,0.037231497,0.010391249,1741898504.699169
0.0535,-0.12875,0.087625,-0.00245675,0.060897753,0.01968375,0.022875,0.05925,0.090625,0.0077972496,0.038498,-0.003128,1741898504.70995
0.055375,-0.124625,0.05025,-0.00631725,0.05896,0.02804575,0.030625,0.027875,0.055,0.010101249,0.036728002,-0.008209251,1741898504.7244658
0.060625,-0.11325,0.02875,-0.013854999,0.05075075,0.042861998,0.0295,0.007875,0.033375,0.0075225,0.029831,-0.01911925,1741898504.73984
0.066875,-0.07575,-0.01875,-0.017151,0.04385375,0.0480805,0.033625,-0.01075,0.012,0.0010375,0.02680975,-0.027160749,1741898504.7535622
0.071625,-0.044875,-0.042625,-0.0195465,0.035461497,0.051834,0.035375,-0.017125,0.01375,-0.0062407497,0.02616875,-0.03622425,1741898504.768167
0.078375,-0.01175,-0.05825,-0.02182,0.013778751,0.052368253,0.034125,-0.031875,0.004,-0.017547501,0.028122,-0.050293,1741898504.78287
0.08425,0.03875,-0.04925,-0.020462,0.0019685,0.049057,0.03225,-0.07675,-0.0365,-0.025970502,0.02241525,-0.05340575,1741898504.803042
0.076625,0.053375,-0.02975,-0.01033025,-0.01753225,0.039566003,0.031875,-0.097875,-0.04775,-0.047348,-0.001526,-0.0559845,1741898504.812465
0.04025,0.089625,0.009875,-0.00059500005,-0.024292,0.034317,0.01725,-0.151125,-0.0525,-0.05567925,-0.01460275,-0.056244,1741898504.827261
0.02025,0.10575,0.032125,0.02427675,-0.035476748,0.02000425,0.00425,-0.17825,-0.045375,-0.060974,-0.0375365,-0.05007925,1741898504.842047
-0.007625,0.093,0.086125,0.034195,-0.039154,0.013549751,-0.01975,-0.17825,0.004375,-0.056686502,-0.04695125,-0.043151747,1741898504.859172
-0.013375,0.083375,0.113625,0.041869998,-0.03787225,0.009369001,-0.024,-0.15175,0.038375,-0.03538525,-0.06007375,-0.025589,1741898504.8716538
-0.028875,0.11725,0.164625,0.041396998,-0.035949748,0.0077210004,-0.03675,-0.128125,0.101625,-0.022521999,-0.063507,-0.01525875,1741898504.886538
-0.030375,0.113875,0.16375,0.0381775,-0.0347595,0.0021515,-0.0495,-0.14075,0.134375,-0.000122000005,-0.0614165,0.0062712496,1741898504.901231
-0.0245,0.079125,0.144,0.033661,-0.03318775,-0.0128175,-0.040875,-0.189,0.167375,0.0079345,-0.054062,0.015808,1741898504.91975
-0.024125,0.054625,0.093875,0.0314025,-0.03363025,-0.01675425,-0.03,-0.193875,0.17175,0.0149535,-0.04185475,0.030136,1741898504.930529
-0.036375,0.062625,0.104625,0.017334,-0.0382995,-0.0262145,-0.027625,-0.1835,0.1805,0.013931249,-0.0376435,0.03456125,1741898504.945162
-0.049375,0.03125,0.184875,0.00985725,-0.037902746,-0.03190625,-0.03375,-0.17675,0.185,0.0029755002,-0.0286255,0.040161252,1741898504.9602501
-0.04175,0.028125,0.212625,-0.00096125,-0.030716,-0.03768925,-0.052625,-0.137875,0.187,-0.00369275,-0.0237275,0.041916,1741898504.9796212
-0.0195,0.06925,0.23325,-0.0045777503,-0.02592475,-0.03872675,-0.062625,-0.115,0.18725,-0.008285499,-0.01206975,0.043762248,1741898504.9894788
-0.013625,0.08375,0.226,-0.00747675,-0.01330575,-0.042923,-0.076625,-0.0715,0.192,-0.00579825,-0.00579825,0.044235248,1741898505.0041778
-0.010875,0.04225,0.215,-0.0069274995,-0.00723275,-0.046081502,-0.081625,-0.054875,0.1995,0.0027465,0.008773751,0.0456695,1741898505.019753
-0.01475,0.00925,0.215,-0.0052947504,-0.0019225,-0.04806525,-0.072,-0.019125,0.20675,0.005005,0.01708975,0.04553225,1741898505.0390248
-0.02025,-0.0165,0.215625,-0.00137325,0.009384249,-0.04689025,-0.06075,0.00125,0.198875,0.00541675,0.02510075,0.04367075,1741898505.0479748
-0.01725,-0.074375,0.22825,0.0001525,0.01661675,-0.0447845,-0.051,0.018,0.184875,0.0058899997,0.03781125,0.0356445,1741898505.062467
-0.006125,-0.105875,0.232875,0.00251775,0.03392025,-0.035049498,-0.035875,0.0395,0.146625,0.0073547503,0.04188525,0.030578502,1741898505.0787442
0.0145,-0.138125,0.210625,0.00384525,0.0428925,-0.02661125,-0.02875,0.037875,0.126125,0.0112,0.0463105,0.02088925,1741898505.0914361
0.0225,-0.136875,0.178625,0.0068969997,0.0572205,-0.0072480002,-0.014125,0.023,0.095875,0.011383001,0.0475005,0.01631175,1741898505.105909
0.043,-0.1385,0.100125,0.00646975,0.06007375,0.00184625,-0.006625,0.019,0.084875,0.00764475,0.04824825,0.00564575,1741898505.120496
0.052375,-0.138875,0.068875,-0.0009765,0.0570985,0.020477248,0.005125,0.016125,0.064875,0.005005,0.047805753,-0.0002595,1741898505.139488
0.071375,-0.113125,0.02825,-0.00463875,0.052902248,0.028594999,0.015125,0.014875,0.052,-0.0002595,0.046768248,-0.0139770005,1741898505.1494908
0.079,-0.09475,0.0165,-0.0075072497,0.047668498,0.03509525,0.042875,0.008875,0.02025,-0.00314325,0.04464725,-0.0215455,1741898505.163958
0.083375,-0.0725,0.010375,-0.01408375,0.03382875,0.04287725,0.049125,0.0055,0.011,-0.01086425,0.03663625,-0.03627025,1741898505.179381
0.078125,-0.033875,0.00425,-0.0158845,0.026519751,0.043747,0.0335,-0.01575,0.01375,-0.011169501,0.035873502,-0.042236254,1741898505.1994681
0.076625,-0.01925,-0.006,-0.012634249,0.013137749,0.0436095,0.02675,-0.047625,-0.002375,-0.0110625,0.03607175,-0.046142504,1741898505.2079859
0.07675,0.004375,-0.026,-0.009674,0.0055847503,0.043213002,0.03,-0.131125,-0.03475,-0.030761749,0.01914975,-0.04745475,1741898505.222761
0.073375,0.01475,-0.027375,-0.00390625,-0.01148975,0.0413055,0.032125,-0.151,-0.037875,-0.045837503,0.00485225,-0.0466155,1741898505.24103
0.05825,0.040625,-0.013625,0.000885,-0.01965325,0.039322,0.0315,-0.152625,-0.03325,-0.05874625,-0.01985175,-0.04714975,1741898505.2523992
0.0435,0.05025,0.002125,0.0158385,-0.0332185,0.032852247,0.020625,-0.17075,-0.0105,-0.055862498,-0.02946475,-0.046325747,1741898505.2670872
-0.008625,0.082125,0.062125,0.023940999,-0.038345248,0.029663,0.0105,-0.18325,0.005,-0.046524,-0.04553225,-0.033508252,1741898505.283045
-0.03625,0.112125,0.102375,0.031662002,-0.0414735,0.025528,-0.008875,-0.139375,0.047125,-0.04208375,-0.050705,-0.02572625,1741898505.296546
-0.05675,0.13425,0.13475,0.0396575,-0.04034425,0.011245751,-0.0255,-0.117,0.08275,-0.03120425,-0.0494995,-0.0138702495,1741898505.311351
-0.058625,0.13025,0.166125,0.0368195,-0.038055502,0.002655,-0.05925,-0.095,0.151375,-0.02360525,-0.0453185,-0.00617975,1741898505.326255
-0.0335,0.08425,0.141,0.02778625,-0.035827752,-0.011398249,-0.06475,-0.10175,0.181625,-0.00364675,-0.03518675,0.013916001,1741898505.341047
-0.031,0.0385,0.131125,0.0240325,-0.037506,-0.012115501,-0.0415,-0.137,0.19525,0.0070952503,-0.028716998,0.024505502,1741898505.3602161
-0.06075,0.04425,0.163,0.0101775,-0.0352325,-0.016296498,-0.017375,-0.13875,0.1795,0.0252075,-0.01737975,0.03828425,1741898505.370365
-0.073,0.012875,0.2255,0.0050812503,-0.02958675,-0.021179251,0.002375,-0.124875,0.15975,0.03028875,-0.0139770005,0.04055775,1741898505.384924
-0.0515,0.00675,0.251,0.0012055,-0.02215575,-0.024231002,-0.01125,-0.12175,0.166375,0.03338625,-0.007904,0.04249575,1741898505.400225
0.00025,0.050625,0.253625,-0.0064545004,-0.0076142503,-0.02449025,-0.038625,-0.103125,0.1855,0.03312675,-0.00399775,0.0432435,1741898505.421684
0.012,0.081875,0.226125,-0.009658749,-0.00148,-0.024841249,-0.04325,-0.09575,0.193625,0.027954001,0.0063325,0.042724498,1741898505.429091
0.0125,0.09225,0.198625,-0.012024,0.008209251,-0.029876752,-0.04075,-0.065,0.203,0.024688749,0.0123595,0.042785753,1741898505.443774
-0.008375,0.046125,0.203375,-0.010604749,0.011901749,-0.033264253,-0.034375,-0.042375,0.19775,0.0232085,0.02421575,0.040924,1741898505.459518
-0.01525,0.01475,0.213,-0.0068665,0.02015675,-0.038498,-0.012,-0.017,0.160625,0.02345275,0.028716998,0.03857425,1741898505.47378
-0.00525,-0.047875,0.20225,-0.00662225,0.0252075,-0.03842175,-0.0005,-0.01175,0.1395,0.022171,0.03149425,0.035492,1741898505.487477
0.006,-0.07675,0.1905,-0.008133001,0.035339247,-0.0299225,0.015875,0.00125,0.11525,0.0150605,0.0330505,0.027069,1741898505.5018399
0.033875,-0.109875,0.16375,-0.008072,0.04043575,-0.02268975,0.02025,0.0095,0.110375,0.0112,0.03300475,0.021927001,1741898505.519924
0.045875,-0.111875,0.144875,-0.0048674997,0.0485535,-0.00794975,0.022125,0.019875,0.1075,0.00672925,0.033432,0.010009751,1741898505.5308568
0.0595,-0.11375,0.097375,-0.00393675,0.05039975,-0.0012055,0.02,0.025375,0.093125,0.006302,0.034195,0.0036162501,1741898505.545095
0.06575,-0.111875,0.07525,-0.00466925,0.0505065,0.0061339997,0.02175,0.01825,0.077125,0.0066374997,0.035141,-0.008255,1741898505.560063
0.0725,-0.104,0.055625,-0.0110625,0.04582225,0.02091975,0.039125,0.006875,0.037125,0.0057677496,0.0334015,-0.0139770005,1741898505.579683
0.07725,-0.082625,0.031125,-0.015564,0.041214,0.027160749,0.047,-0.002,0.021125,-0.00352475,0.025543248,-0.02696225,1741898505.588927
0.076875,-0.06225,0.018375,-0.02050775,0.030456498,0.03601075,0.0475,-0.022,0.009625,-0.010314999,0.02091975,-0.0338745,1741898505.603572
0.0745,-0.022875,-0.003875,-0.0208435,0.0242005,0.0375825,0.038,-0.037375,0.013125,-0.0138855,0.02095025,-0.0442505,1741898505.619165
0.073625,-0.006,-0.014125,-0.017624,0.01020825,0.037796002,0.0215,-0.081875,-0.013,-0.01156625,0.02436825,-0.0463105,1741898505.632998
0.07225,0.023,-0.028625,-0.015075751,0.00231925,0.03689575,0.015125,-0.1075,-0.0245,-0.031066999,0.013626001,-0.0459595,1741898505.647735
0.067875,0.037625,-0.02925,-0.0072937496,-0.01361075,0.033462502,0.008625,-0.14675,-0.027,-0.0516815,0.00099175,-0.04499825,1741898505.6625059
0.052875,0.0685,-0.012125,-0.0001525,-0.0205535,0.03059375,0.00525,-0.163875,-0.02,-0.0706635,-0.01257325,-0.044815,1741898505.6801112
0.04025,0.08525,0.0065,0.010147001,-0.0266265,0.0264435,-0.007125,-0.185375,0.015875,-0.082428,-0.037063498,-0.042984,1741898505.692068
0.023,0.10025,0.031375,0.037033,-0.03721625,0.014068499,-0.008125,-0.15825,0.048375,-0.07444774,-0.047699,-0.038085997,1741898505.707008
-0.020875,0.1235,0.111375,0.04685975,-0.041183498,0.00801075,-0.01725,-0.059125,0.10575,-0.044875998,-0.0608825,-0.0202485,1741898505.721771
-0.034,0.1235,0.155875,0.0532685,-0.03840625,-0.00238025,-0.035625,-0.06325,0.125125,-0.029846251,-0.05821225,-0.013488751,1741898505.741879
-0.023375,0.0605,0.187375,0.048950247,-0.03331,-0.0067597497,-0.0565,-0.09175,0.1425,-0.007599,-0.043518003,0.00267025,1741898505.751364
-0.007125,0.02125,0.178125,0.0361175,-0.0282135,-0.008316,-0.052125,-0.145,0.16125,0.00093075,-0.03842175,0.01251225,1741898505.766017
-0.002375,0.023375,0.15275,0.03189075,-0.027649,-0.0072480002,-0.03025,-0.162125,0.161625,0.01496875,-0.032196,0.030746501,1741898505.783652
-0.01475,0.045125,0.144375,0.017624,-0.0265655,-0.01675425,-0.001625,-0.15875,0.166625,0.018188499,-0.02778625,0.0359955,1741898505.7953742
-0.028625,0.026,0.144,0.006836,-0.026886,-0.024231002,-0.004625,-0.14525,0.170875,0.018280001,-0.017654499,0.0352325,1741898505.810074
-0.032875,0.01525,0.180625,-0.0028535,-0.02699275,-0.02790825,-0.041375,-0.123375,0.18725,0.019165002,-0.01358025,0.036026,1741898505.824929
-0.03675,0.063625,0.22825,-0.0074004997,-0.020111,-0.028366,-0.054625,-0.11175,0.199375,0.022873,-0.0046845004,0.044006247,1741898505.8403862
-0.02525,0.089125,0.211875,-0.0067902496,-0.014267,-0.03012075,-0.05725,-0.0725,0.214125,0.025848499,0.0009155,0.04730225,1741898505.8594089
-0.006875,0.076125,0.1885,-0.006775,-0.00302125,-0.035293497,-0.054875,-0.059625,0.209875,0.034179747,0.013153,0.04969775,1741898505.8688781
0.006,0.019625,0.203125,-0.0054475004,0.0009155,-0.03541575,-0.04325,-0.054875,0.182375,0.036728002,0.018127501,0.050460752,1741898505.8835058
-0.001125,0.002375,0.21625,-0.0034942501,0.009781,-0.03585825,-0.034,-0.056625,0.16475,0.02920525,0.025970502,0.047851503,1741898505.899339
-0.003125,-0.040125,0.21375,-0.00514225,0.01513675,-0.035827752,-0.01725,-0.046375,0.137125,0.020477248,0.02946475,0.0446015,1741898505.9126248
0.001875,-0.058625,0.208125,-0.008407501,0.02671825,-0.03056325,-0.010875,-0.027375,0.129625,0.00292975,0.03515625,0.03500375,1741898505.927191
0.0095,-0.079875,0.19325,-0.008361749,0.0330505,-0.025360001,-0.005625,0.003875,0.117875,-0.0017395001,0.037841752,0.02940375,1741898505.9417758
0.017625,-0.0855,0.17425,-0.0025025,0.04599,-0.013290499,-0.00025,0.012875,0.10875,-0.004013,0.04040525,0.023758,1741898505.9605892
0.043375,-0.10475,0.1175,0.0012970001,0.0504455,-0.0072480002,0.00975,0.024125,0.096625,-0.0052642496,0.044143748,0.0113525,1741898505.970782
0.056625,-0.114875,0.08775,0.00331125,0.052597,-0.00042725,0.03225,0.038375,0.066875,-0.00355525,0.04408275,0.0046234997,1741898505.985216
0.069875,-0.123375,0.064125,-0.001007,0.0491485,0.0159455,0.03975,0.034,0.054125,0.0019225,0.039184503,-0.00767525,1741898505.999701
0.0915,-0.107625,0.031,-0.00640875,0.044433497,0.024582,0.045625,0.010875,0.031875,0.002472,0.03559875,-0.0136565,1741898506.019466
0.092125,-0.08925,0.026,-0.01593025,0.0318755,0.03569025,0.046875,0.00275,0.0185,-0.0008545,0.02702325,-0.024353001,1741898506.0288918
0.079625,-0.048375,0.016625,-0.017608749,0.0263215,0.038498,0.04475,-0.012375,-0.008375,-0.0047455,0.022186251,-0.02981575,1741898506.0436218
0.076,-0.030125,0.007125,-0.015289251,0.0157165,0.040573,0.0465,-0.024625,-0.022,-0.01766975,0.011673001,-0.04173275,1741898506.059197
0.0765,0.00025,-0.016125,-0.01301575,0.009292499,0.04072575,0.022375,-0.06925,-0.004875,-0.02215575,0.009384249,-0.046463,1741898506.073109
0.076125,0.016,-0.022125,-0.00868225,-0.00643925,0.03939825,0.005125,-0.097,-0.017625,-0.02253725,0.016448999,-0.049286,1741898506.087925
0.064875,0.051625,-0.018125,-0.0047912505,-0.014160249,0.0375365,-0.004625,-0.133375,-0.037375,-0.0317535,0.0102235,-0.0484925,1741898506.1028779
0.055,0.069875,-0.00925,0.0020752498,-0.02114875,0.03456125,0.0,-0.152,-0.028,-0.07687375,-0.01832575,-0.0485535,1741898506.1201978
0.03675,0.086625,0.009875,0.02534475,-0.0341035,0.02427675,-0.01075,-0.198125,0.005875,-0.094009496,-0.03108225,-0.046997003,1741898506.132492
-0.019,0.126625,0.082,0.03739925,-0.0394135,0.01852425,-0.013625,-0.199375,0.038375,-0.089797996,-0.050766,-0.0331115,1741898506.147282
-0.04125,0.146125,0.129375,0.05166625,-0.041748002,0.0037537501,-0.001,-0.06075,0.130625,-0.070068255,-0.05738825,-0.023940999,1741898506.162011
-0.044625,0.098875,0.18275,0.0490265,-0.037170503,-0.0041810004,-0.003875,-0.013125,0.150625,-0.0319215,-0.05305475,-0.0153655,1741898506.1804109
-0.024375,0.0465,0.1835,0.03553775,-0.028427,-0.010666001,-0.067625,-0.078875,0.16325,-0.020599252,-0.04689025,-0.0075225,1741898506.1915789
0.008375,-0.0145,0.128875,0.0325775,-0.027435249,-0.008636501,-0.079125,-0.12475,0.161125,-0.0138855,-0.0410155,0.00494375,1741898506.2063842
-0.002875,0.017625,0.101625,0.021988,-0.0318145,-0.00791925,-0.025625,-0.1675,0.151875,0.0056304997,-0.033432,0.031311,1741898506.221083
-0.060875,0.052375,0.138,0.01020825,-0.03382875,-0.01519775,-0.00775,-0.153375,0.15525,0.016265752,-0.03176875,0.039672747,1741898506.243318
-0.076375,0.03425,0.174125,-0.0009765,-0.03370675,-0.02357475,-0.00575,-0.131625,0.167125,0.026474,-0.02474975,0.043396,1741898506.250387
-0.073,0.027125,0.206,-0.010940501,-0.02633675,-0.031036502,-0.03075,-0.100875,0.207375,0.025970502,-0.01811225,0.040207002,1741898506.265126
-0.041,0.0645,0.240125,-0.009430001,-0.02050775,-0.030914249,-0.045375,-0.089625,0.222875,0.01979075,-0.0060272496,0.034225497,1741898506.2848241
-0.025625,0.086625,0.235875,-0.00245675,-0.0056,-0.032424998,-0.061625,-0.06325,0.229125,0.0206605,-0.00054925,0.03668225,1741898506.299642
0.00075,0.0345,0.215,-0.0002595,0.0023345,-0.03433225,-0.05975,-0.049375,0.220625,0.0285035,0.010452249,0.04426575,1741898506.309014
0.005,-0.004375,0.222,0.0014495,0.01501475,-0.03370675,-0.04725,-0.038375,0.19575,0.0313415,0.0151825,0.046112,1741898506.323591
-0.003625,-0.037125,0.217875,0.00169375,0.020049999,-0.032897998,-0.0385,-0.031625,0.183875,0.029296748,0.024582,0.0432435,1741898506.340437
-0.005,-0.03925,0.204875,-0.0020599999,0.02793875,-0.0329285,-0.021375,-0.01775,0.16,0.025421249,0.029251,0.0392915,1741898506.3527071
0.006125,-0.0725,0.182375,-0.00369275,0.03208925,-0.0310975,-0.0145,-0.011875,0.147375,0.01496875,0.036728002,0.029892,1741898506.367271
0.011875,-0.081375,0.1775,0.00027475,0.0424805,-0.01914975,-0.003375,0.00525,0.119625,0.010589501,0.039154,0.02575675,1741898506.381758
0.031375,-0.091625,0.1395,0.00590525,0.048172,-0.012802,0.001125,0.011875,0.107625,0.006012,0.041381747,0.01693725,1741898506.400436
0.044375,-0.106875,0.11175,0.010818499,0.05264275,-0.00665275,0.0145,0.022,0.088625,0.004837,0.04208375,0.011627249,1741898506.410591
0.057625,-0.114,0.0885,0.0104674995,0.05432125,0.008270251,0.0205,0.027125,0.0805,0.0047455,0.042465247,0.00611875,1741898506.425018
0.07475,-0.107625,0.054625,0.0067902496,0.0517425,0.0152435,0.02525,0.029375,0.070875,0.00646975,0.0414735,-0.00485225,1741898506.4400508
0.079,-0.09175,0.041875,-0.0021819999,0.042846747,0.026657,0.04075,0.01725,0.04225,0.00590525,0.039993253,-0.01092525,1741898506.459887
0.083875,-0.04975,0.027375,-0.00485225,0.037506,0.0298615,0.04725,0.007625,0.024375,-0.0009155,0.033722,-0.023819,1741898506.468512
0.0805,-0.041,0.022,-0.00419625,0.027649,0.032776,0.054,-0.00625,-0.0065,-0.0065917503,0.02896125,-0.029892,1741898506.483146
0.07675,-0.022,-0.002875,-0.0014495,0.02285775,0.034378,0.05525,-0.012625,-0.015625,-0.0219575,0.01722725,-0.04281625,1741898506.499327
0.0785,-0.009875,-0.0165,0.0014037499,0.01681525,0.035293497,0.042,-0.051375,-0.029125,-0.031356752,0.010391249,-0.0485535,1741898506.5127082
0.080375,0.005625,-0.023375,0.0055847503,0.00030525,0.033783,0.028125,-0.0745,-0.02425,-0.032776,0.010757499,-0.0534515,1741898506.5275478
0.0785,0.007375,-0.01625,0.0076905,-0.008636501,0.03208925,-0.004875,-0.124375,-0.01725,-0.02690125,0.01445,-0.05470275,1741898506.542263
0.074625,0.007875,-0.006375,0.01361075,-0.02456675,0.02861025,-0.0105,-0.148875,-0.01725,-0.0443115,0.0025940002,-0.051086497,1741898506.560095
0.054375,0.011875,0.017375,0.01791375,-0.031356752,0.0264435,-0.019,-0.19225,0.017375,-0.0715485,-0.01104725,-0.04600525,1741898506.5717802
0.03475,0.0135,0.03275,0.025711,-0.042099,0.023650998,-0.027125,-0.211,0.0385,-0.1152955,-0.03807075,-0.03050225,1741898506.586505
-0.008125,0.06125,0.08975,0.030181998,-0.0457915,0.02244575,-0.022875,-0.11975,0.135125,-0.109893754,-0.046203498,-0.0239715,1741898506.601284
-0.032625,0.101875,0.133375,0.031479,-0.047607496,0.01026925,-0.0185,-0.049625,0.181625,-0.0681915,-0.03373725,-0.021087749,1741898506.619883
-0.06475,0.124,0.17775,0.02690125,-0.045761,-0.00042725,-0.021125,-0.0075,0.19025,-0.05093375,-0.02330025,-0.021560749,1741898506.630899
-0.049625,0.07925,0.1585,0.021789499,-0.043808,-0.010818499,-0.0445,-0.007,0.191875,-0.028900249,-0.01245125,-0.013336251,1741898506.64572
-0.021125,0.0125,0.126,0.0201875,-0.04119875,-0.01693725,-0.05,-0.07125,0.174125,-0.01776125,-0.00070200005,-0.0056915004,1741898506.660529
-0.024125,-0.0015,0.119625,0.01924125,-0.04190075,-0.01156625,-0.02375,-0.102375,0.15775,-0.0016785001,0.017334,0.008133001,1741898506.68066
-0.06825,0.052375,0.177125,0.00668325,-0.04043575,-0.016143749,0.02175,-0.086375,0.0915,0.03886425,0.0210725,0.046051,1741898506.689739
-0.102,0.057375,0.24,0.003006,-0.0346985,-0.026702998,0.001875,-0.100125,0.1385,0.05062875,-0.0113525,0.0466155,1741898506.704393
-0.073375,0.040875,0.246375,-0.0025025,-0.02186575,-0.034362752,-0.023875,-0.10925,0.19325,0.062912,-0.038925253,0.037704498,1741898506.722223
-0.011875,0.06075,0.218125,-0.004776,-0.01596075,-0.033691503,-0.03125,-0.101875,0.238,0.06056225,-0.029220501,0.03810125,1741898506.733666
-0.007375,0.0645,0.20625,-0.005066,-0.006775,-0.03793325,-0.024625,-0.10425,0.2405,0.04621875,-0.0035095,0.04408275,1741898506.748441
-0.03,0.022875,0.2245,-0.00399775,-0.001526,-0.041564997,-0.01275,-0.048,0.23025,0.039184503,0.0045777503,0.0466155,1741898506.764284
-0.037375,-0.007375,0.2355,-0.0014037499,0.01177975,-0.045349,-0.006625,-0.01375,0.219375,0.04141225,0.0125885,0.04653925,1741898506.7791529
-0.024375,-0.0555,0.23925,9.15e-05,0.01921075,-0.04515075,-0.00025,-0.00475,0.178875,0.0462495,0.015029999,0.0450135,1741898506.792265
-0.008875,-0.087125,0.22875,0.0025940002,0.0276185,-0.043151747,0.002125,-0.012,0.162875,0.045654252,0.01896675,0.042251498,1741898506.8067782
0.005875,-0.11675,0.207125,0.0047607496,0.043686002,-0.0306245,0.00775,-0.006875,0.143625,0.037917998,0.0226745,0.038849,1741898506.821159
0.021125,-0.12525,0.172375,0.00463875,0.04924,-0.021698,0.015875,0.001875,0.12375,0.021209748,0.032669,0.029144252,1741898506.84012
0.029875,-0.132,0.145125,0.01136775,0.059433,-0.0042725,0.03625,0.027,0.094625,0.016983,0.03427125,0.024688749,1741898506.850094
0.042,-0.13275,0.093,0.012054499,0.06207275,0.0048674997,0.0435,0.03525,0.087625,0.0135955,0.034729,0.019439751,1741898506.864651
0.04675,-0.11625,0.076875,0.00485225,0.061035253,0.019165002,0.0465,0.038875,0.082125,0.012680001,0.033844,0.008072,1741898506.880086
0.05375,-0.088,0.05325,-0.0002135,0.0585175,0.02359,0.032875,0.0185,0.07525,0.013626001,0.03329475,0.0021972498,1741898506.893614
0.062125,-0.077625,0.042125,-0.0045012496,0.051712003,0.031021,0.032875,0.00125,0.065625,0.0066985004,0.03550725,-0.010253999,1741898506.907922
0.07425,-0.06875,0.02,-0.0026092501,0.0480805,0.034225497,0.044875,-0.00725,0.035,-0.000412,0.03591925,-0.0158385,1741898506.9226618
0.07875,-0.063875,-0.00075,-0.00061025,0.044051997,0.037917998,0.048625,-0.00825,0.020125,-0.0164795,0.033966,-0.02769475,1741898506.940046
0.083875,-0.05075,-0.02025,-0.0037995,0.029754749,0.043991,0.04925,-0.0255,-0.02025,-0.02586375,0.032074,-0.034118753,1741898506.9522061
0.091,-0.017,-0.042875,-0.00717175,0.01985175,0.04420475,0.04925,-0.039625,-0.043875,-0.0436555,0.02177425,-0.043701246,1741898506.966937
0.091125,-0.002625,-0.042625,-0.008316,-0.00096125,0.04049675,0.030875,-0.080375,-0.05225,-0.05355825,0.013031,-0.04618825,1741898506.981632
0.08275,0.01675,-0.024125,-0.0051269997,-0.010101249,0.03756725,0.0175,-0.1065,-0.047,-0.06764225,0.0072785,-0.04544075,1741898506.999424
0.074125,0.020625,-0.00425,0.00437925,-0.02613825,0.031540003,0.01225,-0.114125,-0.000125,-0.06785575,-0.002533,-0.0427705,1741898507.011286
0.048125,0.026625,0.049625,0.0105742505,-0.031967252,0.028534,-0.014375,-0.111125,0.064,-0.07592775,-0.01956175,-0.03910825,1741898507.026078
0.02725,0.029,0.068625,0.017929,-0.0358125,0.0251465,-0.0615,-0.14975,0.118,-0.084457494,-0.017395,-0.03787225,1741898507.040881
0.0045,0.042625,0.088125,0.0301665,-0.040161252,0.0203095,-0.0545,-0.147125,0.123875,-0.09243775,-0.01498425,-0.02873225,1741898507.059478
-0.02225,0.1055,0.134875,0.032608002,-0.040847752,0.016159,0.00175,-0.088625,0.136375,-0.082290746,-0.01728825,-0.0199585,1741898507.070385
-0.025125,0.113,0.153875,0.0250245,-0.039276,-0.000885,0.01925,-0.058,0.136875,-0.044342,-0.030029248,0.0017242499,1741898507.085162
-0.01675,0.058,0.176375,0.020584,-0.037277248,-0.0085602505,-0.00175,-0.020875,0.149625,-0.02696225,-0.03622425,0.010253999,1741898507.1001759
-0.001875,0.01625,0.155625,0.01976025,-0.03173825,-0.012054499,-0.0245,-0.026125,0.180125,-0.00402825,-0.0317535,0.023407,1741898507.119895
-0.001875,0.023375,0.103625,0.019195499,-0.0314635,-0.01083375,-0.01175,-0.092375,0.171875,0.00662225,-0.024047751,0.032043498,1741898507.1293702
-0.039375,0.061875,0.147375,0.0062407497,-0.03202825,-0.019516,0.00675,-0.1115,0.152375,0.02015675,-0.021026501,0.041748002,1741898507.1439328
-0.069125,0.086625,0.21525,0.00112925,-0.028778,-0.028900249,0.018875,-0.099875,0.15425,0.0452575,-0.0283965,0.044128504,1741898507.1607912
-0.043,0.07475,0.21825,-0.00125125,-0.024063,-0.03610225,0.014,-0.06675,0.203,0.05137625,-0.0290375,0.037963748,1741898507.173016
-0.00975,0.057125,0.211,-0.00148,-0.012680001,-0.037323,-0.0045,-0.07125,0.2275,0.05340575,-0.020279,0.0316315,1741898507.187791
0.012625,0.022,0.226625,-0.0023345,-0.0070495,-0.035614,-0.027375,-0.067875,0.25525,0.05305475,-0.01098625,0.0347595,1741898507.202297
0.0045,-0.004375,0.24625,-0.00891125,0.00611875,-0.03639225,-0.024125,-0.038375,0.25475,0.0532075,0.0067445002,0.03958125,1741898507.222589
0.005625,-0.06125,0.237625,-0.01216125,0.013321,-0.036331248,-0.009625,-0.001125,0.2255,0.05532825,0.013275251,0.038330004,1741898507.231275
0.0155,-0.072125,0.21825,-0.0158845,0.02456675,-0.031005751,0.00175,0.00075,0.2015,0.059203997,0.02186575,0.035263002,1741898507.245795
0.02,-0.066625,0.198375,-0.0178375,0.02896125,-0.027862499,0.02025,0.008375,0.157875,0.05815125,0.02452075,0.03376775,1741898507.263764
0.0165,-0.0675,0.187375,-0.016327,0.040527247,-0.020599252,0.021625,0.01475,0.145,0.04689025,0.031158501,0.02572625,1741898507.28009
0.0285,-0.09275,0.148625,-0.010940501,0.046630748,-0.01589975,0.0295,0.01425,0.10525,0.0385285,0.0363465,0.0199585,1741898507.289328
0.039875,-0.11125,0.128,-0.00555425,0.051651,-0.009506251,0.039375,0.020875,0.08225,0.032256998,0.039032,0.015442001,1741898507.303723
0.05075,-0.117,0.106,-0.003296,0.056289747,0.0068512503,0.04425,0.02725,0.06775,0.0286255,0.03492725,0.007431,1741898507.32071
0.071875,-0.11275,0.061625,-0.00541675,0.0558015,0.014328,0.039375,0.010125,0.054625,0.0276185,0.0331115,0.001831,1741898507.332559
0.0815,-0.1005,0.043125,-0.01036075,0.04954525,0.02674875,0.043375,-0.0055,0.0435,0.018127501,0.034195,-0.01042175,1741898507.3471758
0.084,-0.06125,0.017,-0.013321,0.044662498,0.0300445,0.049,-0.019625,0.019625,0.0114135,0.03338625,-0.015625,1741898507.361603
0.0835,-0.046,0.003625,-0.017974751,0.032821752,0.03318775,0.049625,-0.023375,0.003,-0.00267025,0.0278015,-0.025772,1741898507.380558
0.087,-0.0195,-0.02425,-0.01857,0.025787251,0.03439325,0.046625,-0.03825,-0.028125,-0.010101249,0.0237885,-0.031311,1741898507.391005
0.09075,-0.00675,-0.03575,-0.01690675,0.00947575,0.035324,0.0395,-0.05475,-0.037625,-0.03341675,0.018020751,-0.04202275,1741898507.40574
0.092375,0.015625,-0.03475,-0.0155030005,0.0003205,0.03430175,0.0165,-0.103375,-0.049875,-0.04512025,0.0152435,-0.0447235,1741898507.420591
0.084875,0.025375,-0.023875,-0.01295475,-0.00845325,0.03256225,0.002125,-0.1265,-0.039,-0.057312,0.0050355,-0.042861998,1741898507.440428
0.075625,0.0305,-0.011,-0.00228875,-0.022216748,0.02793875,-0.035125,-0.148875,0.04075,-0.061828498,-0.00381475,-0.040268,1741898507.450015
0.057875,0.022375,0.02125,0.0046845004,-0.027740499,0.02563475,-0.062125,-0.18525,0.063125,-0.086319,-0.00918575,-0.03474425,1741898507.464951
0.04825,0.024125,0.0405,0.0215455,-0.0366975,0.022461,-0.0695,-0.22925,0.063625,-0.09933475,-0.00874325,-0.029251,1741898507.4802802
0.025,0.038,0.076625,0.03190625,-0.040145747,0.02050775,-0.03525,-0.1675,0.0925,-0.0927125,-0.0127105,-0.015396,1741898507.5009978
0.004125,0.05475,0.098625,0.045395,-0.0447235,0.0155030005,0.048125,-0.0515,0.1575,-0.07304375,-0.01643375,-0.00717175,1741898507.509206
-0.03575,0.11975,0.157,0.045715246,-0.04385375,0.011245751,0.045,-0.044,0.167125,-0.035049498,-0.020934999,0.009231499,1741898507.523788
-0.043,0.1305,0.178375,0.0414275,-0.0411225,0.0041504996,-0.01925,-0.051,0.155125,-0.020172002,-0.021026501,0.015808,1741898507.539874
-0.0365,0.102875,0.186125,0.02757275,-0.033203,-0.011688249,-0.028375,-0.054875,0.15025,-0.0067902496,-0.02064525,0.02211,1741898507.559506
0.00125,0.01275,0.145125,0.026275748,-0.02961725,-0.014358499,-0.00375,-0.070625,0.140375,0.0231475,-0.019195499,0.03610225,1741898507.567817
0.000875,0.020625,0.133875,0.0235595,-0.02796925,-0.0139465,0.036125,-0.099125,0.133375,0.04069525,-0.022461,0.04031375,1741898507.58221
-0.0395,0.04175,0.18925,0.01649475,-0.026855499,-0.017624,0.016125,-0.10125,0.15525,0.0608215,-0.02687075,0.03800975,1741898507.5998561
-0.049125,0.034375,0.224125,0.00314325,-0.01927175,-0.02702325,-0.016375,-0.127625,0.207,0.06210325,-0.022354,0.037658747,1741898507.611472
-0.026875,0.061875,0.22,-0.00402825,-0.015029999,-0.029846251,-0.011,-0.12025,0.222625,0.05226125,-0.0063477503,0.042923,1741898507.6260428
-0.00875,0.05725,0.20975,-0.0139770005,-0.00564575,-0.032074,-0.002125,-0.067875,0.228625,0.047881998,0.0013427499,0.044693,1741898507.640599
0.005625,0.032125,0.219125,-0.015029999,-0.00016775,-0.032196,0.001875,-0.04775,0.216125,0.047622748,0.01324475,0.04515075,1741898507.659868
0.00675,0.019,0.22775,-0.015396,0.0051269997,-0.033584498,0.015375,-0.02525,0.168625,0.04751575,0.01708975,0.0442505,1741898507.669615
0.0095,-0.00675,0.22725,-0.01026925,0.01705925,-0.037231497,0.023125,-0.0145,0.14375,0.0368195,0.02238475,0.03860475,1741898507.684132
0.021125,-0.05125,0.207625,-0.01004025,0.0232085,-0.03578175,0.038,0.005875,0.1035,0.027709998,0.02563475,0.0332795,1741898507.701534
0.02425,-0.067,0.19825,-0.0136565,0.034378,-0.02908325,0.044875,0.015625,0.088875,0.0208435,0.027832001,0.028015248,1741898507.7128818
0.02725,-0.08875,0.166625,-0.01324475,0.0398255,-0.0239105,0.046125,0.021125,0.08675,0.015167249,0.02525325,0.01766975,1741898507.727359
0.034,-0.101625,0.145625,-0.00646975,0.048660252,-0.0109709995,0.037875,0.01525,0.08725,0.012542751,0.02497875,0.0115967505,1741898507.742878
0.053,-0.1205,0.097375,-0.00419625,0.051056,-0.00343325,0.0365,0.01,0.078,0.0085755,0.02708425,0.000534,1741898507.759083
0.069125,-0.12075,0.070125,-0.00688175,0.05104075,0.01301575,0.043,0.0075,0.04875,0.006073,0.02775575,-0.00491325,1741898507.770525
0.096875,-0.108875,0.0295,-0.009948749,0.047592252,0.01991275,0.053,0.0045,0.03,-0.0052947504,0.0276185,-0.01829525,1741898507.7850041
0.1035,-0.099875,0.018125,-0.013549751,0.042465247,0.02586375,0.06625,0.000375,0.00025,-0.011810251,0.024993999,-0.024841249,1741898507.8003469
0.10575,-0.083625,0.013375,-0.022094749,0.029068,0.035553,0.0595,-0.006,0.00125,-0.02510075,0.017883249,-0.03781125,1741898507.8199968
0.091,-0.041,0.008,-0.025360001,0.022613501,0.037917998,0.03675,-0.041625,-0.01075,-0.034073003,0.01681525,-0.04331975,1741898507.82891
0.0805,-0.020125,-0.002625,-0.02354425,0.012115501,0.039855998,0.02875,-0.065375,-0.02,-0.047226,0.009277251,-0.04707325,1741898507.843673
0.077625,0.01525,-0.028625,-0.0186615,0.006546,0.04008475,-0.000625,-0.125125,0.007125,-0.052826,0.00242625,-0.046157748,1741898507.8595672
0.07925,0.029125,-0.03475,-0.009002751,-0.00794975,0.03816225,-0.02025,-0.15275,0.0355,-0.058456503,-0.003952,-0.0440215,1741898507.879243
0.069875,0.050625,-0.0265,-0.003662,-0.015335,0.035949748,-0.044,-0.203625,0.06475,-0.06796275,-0.010513251,-0.0368195,1741898507.887964
0.06425,0.049375,-0.014375,0.01042175,-0.028061,0.030655,-0.039875,-0.20825,0.077125,-0.070831254,-0.01295475,-0.0315095,1741898507.9027998
0.038625,0.05575,0.043625,0.0198365,-0.034027,0.027954001,0.0155,-0.12475,0.110875,-0.0641785,-0.018219,-0.01896675,1741898507.920244
0.012625,0.067,0.073375,0.03097525,-0.03878775,0.024261499,0.030375,-0.096625,0.13075,-0.054138247,-0.0217285,-0.014038,1741898507.93212
-0.015875,0.080375,0.099875,0.0447845,-0.043808,0.017425502,0.02125,-0.091125,0.15275,-0.034652747,-0.026397752,-0.00239575,1741898507.946916
-0.04825,0.125125,0.157,0.044098,-0.0436555,0.013854999,-0.01975,-0.078375,0.172875,-0.02522275,-0.02424625,0.005844,1741898507.961681
-0.047375,0.123,0.17675,0.033081003,-0.037490748,0.00148,-0.022625,-0.07225,0.1685,-0.00108325,-0.017746,0.0228425,1741898507.980128
-0.032,0.06725,0.1815,0.027862499,-0.03306575,-0.0034942501,0.031,-0.0905,0.1325,0.015274,-0.0164795,0.029876752,1741898507.990973
-0.02725,0.056875,0.162375,0.024536248,-0.02677925,-0.00817875,0.041125,-0.106,0.12225,0.04983525,-0.0216675,0.0378265,1741898508.005516
-0.048125,0.102375,0.136,0.02171325,-0.02601625,-0.0125885,0.005875,-0.104625,0.158125,0.059784,-0.025314251,0.0379945,1741898508.020031
-0.066,0.0775,0.1655,0.0104674995,-0.02165225,-0.026733499,-0.00725,-0.105875,0.187875,0.0631715,-0.0213165,0.03825375,1741898508.040127
-0.06525,0.003125,0.23875,0.0037537501,-0.016037,-0.028716998,0.000875,-0.084125,0.217625,0.059494,-0.013443,0.038803,1741898508.049193
-0.04775,0.02375,0.2575,-0.0032655,-0.009597749,-0.02746575,0.006125,-0.06625,0.21625,0.05220025,0.00177,0.0388335,1741898508.063594
-0.022625,0.066,0.2525,-0.0141145,0.00231925,-0.0288085,0.019375,-0.0445,0.186625,0.0504455,0.0077210004,0.03889475,1741898508.081016
0.018375,0.058,0.211125,-0.015335,0.0081635,-0.03202825,0.0265,-0.0425,0.165375,0.04281625,0.01542675,0.037048247,1741898508.092652
0.026625,0.016625,0.21075,-0.01582325,0.01864625,-0.032776,0.0375,-0.030875,0.121125,0.034149252,0.01879875,0.03373725,1741898508.107172
0.0245,-0.006875,0.218125,-0.01719675,0.02297975,-0.031692497,0.0425,-0.019125,0.1005,0.024688749,0.02200325,0.02943425,1741898508.121622
0.02325,-0.01825,0.209625,-0.016632,0.032516498,-0.0328065,0.047625,-0.00525,0.0865,0.012313751,0.02339175,0.020691,1741898508.140244
0.028,-0.067125,0.180625,-0.0154725,0.03800975,-0.0305175,0.052,0.0155,0.080875,0.0081635,0.02313225,0.014800999,1741898508.1505978
0.0365,-0.08575,0.162875,-0.0101775,0.04957575,-0.01643375,0.05025,0.016625,0.076625,0.00163275,0.02433775,0.00051875,1741898508.165052
0.0665,-0.1095,0.101,-0.00590525,0.05429075,-0.0075377496,0.047625,0.00925,0.052875,-0.0019685,0.025238002,-0.0063325,1741898508.182303
0.08575,-0.12225,0.064,-0.00384525,0.055862498,0.000763,0.048375,0.00625,0.035375,-0.01248175,0.0258025,-0.01908875,1741898508.194226
0.100375,-0.126125,0.035375,-0.0099945,0.048034754,0.017181499,0.04425,-0.012,0.001875,-0.01849375,0.02471925,-0.02537525,1741898508.2089238
0.109125,-0.094125,0.0085,-0.01445,0.041031,0.024078252,0.039375,-0.028,-0.01275,-0.036743253,0.02159125,-0.03598025,1741898508.223653
0.102625,-0.071875,0.005125,-0.019134501,0.02677925,0.03215025,0.028,-0.06475,-0.031375,-0.045639,0.018127501,-0.03898625,1741898508.239265
0.086375,-0.0315,0.000625,-0.02070625,0.019867001,0.0346985,0.016625,-0.091375,-0.02375,-0.057846002,0.005539,-0.039978,1741898508.2532082
0.0805,-0.012375,-0.004,-0.01924125,0.0067597497,0.03762825,-0.02875,-0.152,0.028875,-0.06375125,-0.00099175,-0.0377655,1741898508.268011
0.075875,0.0165,-0.018875,-0.0156555,0.000229,0.03793325,-0.0495,-0.17225,0.05725,-0.076706,-0.00794975,-0.0309295,1741898508.282804
0.07175,0.0315,-0.023,-0.005844,-0.013931249,0.036422748,-0.049,-0.1765,0.0935,-0.081482,-0.0085602505,-0.0271455,1741898508.30021
0.049875,0.07075,-0.01225,0.00016775,-0.02076725,0.03427125,-0.014625,-0.130125,0.112375,-0.080124,-0.008773751,-0.02253725,1741898508.312309
0.03725,0.088125,0.003125,0.0076142503,-0.02693175,0.030883752,0.045875,-0.045875,0.157125,-0.05249025,-0.013321,-0.013183501,1741898508.327064
0.020875,0.108375,0.028875,0.0293885,-0.03866575,0.019195499,0.04275,-0.045625,0.17475,-0.0345765,-0.0174865,-0.008255,1741898508.34172
-0.02175,0.131875,0.0925,0.04119875,-0.04261775,0.011825499,0.025125,-0.053125,0.181375,-0.0071105,-0.01876825,0.00296025,1741898508.359587
-0.032125,0.1255,0.115125,0.05078125,-0.043090753,0.00296025,0.001625,-0.0615,0.153875,0.0051269997,-0.017105,0.0094604995,1741898508.370831
-0.01575,0.091125,0.148125,0.0477295,-0.040634252,1.5250001e-05,0.01575,-0.0625,0.137375,0.0326995,-0.01576225,0.022369498,1741898508.3852851
-0.01025,0.064125,0.163,0.035766497,-0.03459175,-0.0052337497,0.05075,-0.08175,0.11175,0.048584,-0.01747125,0.02565,1741898508.4005692
-0.032,0.057,0.184,0.032180753,-0.0312805,-0.0072175004,0.040125,-0.083625,0.112125,0.076156504,-0.02778625,0.027069,1741898508.419017
-0.041625,0.072,0.168125,0.0293885,-0.02711475,-0.01121525,-0.001,-0.098,0.155,0.08279425,-0.03034975,0.02746575,1741898508.4289439
-0.043,0.054,0.17275,0.018737748,-0.02012625,-0.023697,-0.00025,-0.109375,0.1715,0.076294,-0.01531975,0.02746575,1741898508.44357
-0.0345,0.01525,0.200625,0.01092525,-0.015976,-0.02693175,0.0185,-0.102625,0.173375,0.06782525,-0.0068665,0.027298,1741898508.4594922
-0.021375,0.002,0.220875,-0.0025787498,-0.0047302498,-0.02360525,0.021875,-0.097875,0.166375,0.0539855,0.00367725,0.02977,1741898508.472645
0.01175,0.067875,0.223875,-0.0072175004,9.15e-05,-0.02275075,0.035,-0.0775,0.140125,0.047057997,0.0076295,0.03125,1741898508.487124
0.025875,0.0725,0.196625,-0.01316825,0.00862125,-0.027587999,0.040125,-0.056125,0.1215,0.0388335,0.01104725,0.030716,1741898508.5016162
0.024625,0.001875,0.196,-0.01658625,0.012039251,-0.027893,0.046625,-0.024375,0.086875,0.022766002,0.01651,0.0229645,1741898508.5194938
0.01625,-0.006625,0.2105,-0.0247345,0.019226,-0.025115998,0.053375,-0.01325,0.0765,0.017303498,0.017929,0.017517,1741898508.5306711
0.0125,-0.033125,0.209125,-0.02616875,0.02436825,-0.025879,0.056875,-0.0075,0.072125,0.010437001,0.017028749,0.00546275,1741898508.545114
0.01975,-0.06025,0.192125,-0.0257415,0.03047175,-0.02507025,0.052875,-0.013125,0.066875,0.0084379995,0.01617425,-0.00048825,1741898508.559989
0.039875,-0.091625,0.150375,-0.02153025,0.042724498,-0.012832751,0.047875,-0.019375,0.062625,0.00228875,0.01519775,-0.01142875,1741898508.579884
0.053625,-0.0965,0.117125,-0.01799,0.0483855,-0.00369275,0.032875,-0.030125,0.05025,-0.00331125,0.01570125,-0.01658625,1741898508.588779
0.07175,-0.098,0.079,-0.01628125,0.050766,0.01260375,0.0265,-0.042,0.034,-0.02503975,0.0217285,-0.0273895,1741898508.603319
0.0965,-0.08725,0.02475,-0.0196685,0.04599,0.01899725,0.016,-0.079,-0.0055,-0.03837575,0.0224305,-0.031692497,1741898508.619843
0.100375,-0.068125,0.006375,-0.02510075,0.03053275,0.02876275,0.009875,-0.095375,-0.005625,-0.060897753,0.01725775,-0.03508,1741898508.63273
0.096125,-0.023625,-0.002125,-0.02589425,0.0222015,0.031128,-0.004875,-0.125125,0.006125,-0.0690765,0.01419075,-0.03480525,1741898508.647454
0.08975,-0.00675,-0.001625,-0.02522275,0.008361749,0.033325247,-0.0115,-0.1325,0.008125,-0.070098996,0.0028074998,-0.03050225,1741898508.6621141
0.076,0.02925,-0.0015,-0.022705,0.0021057501,0.034027,-0.00975,-0.1005,0.024375,-0.06277475,-0.00538625,-0.027252251,1741898508.6771042
0.069,0.047625,-0.00275,-0.018127501,-0.00381475,0.03385925,-0.00325,-0.0835,0.03625,-0.0442505,-0.02064525,-0.0219115,1741898508.691725
0.04775,0.08725,-0.0005,-0.00390625,-0.01481625,0.02993775,-0.0125,-0.10425,0.07275,-0.03518675,-0.0265655,-0.01776125,1741898508.706521
0.033375,0.11175,0.0085,0.00579825,-0.0198365,0.02575675,-0.023375,-0.126125,0.08925,-0.026474,-0.03097525,-0.0116425,1741898508.7238002
0.021,0.12775,0.023,0.0309905,-0.02838125,0.013321,-0.020375,-0.13975,0.1115,-0.0103455,-0.035965,0.0019225,1741898508.740232
-0.00725,0.152875,0.079125,0.0470885,-0.0321045,0.0073547503,-0.010375,-0.139125,0.126125,-0.0030365,-0.036804248,0.0073547503,1741898508.7506618
-0.02025,0.148875,0.111,0.069198504,-0.032608002,-0.0046234997,-0.004375,-0.143375,0.143625,0.0058899997,-0.035324,0.01445,1741898508.7653482
-0.0125,0.07125,0.1515,0.06697075,-0.029907249,-0.00976575,-0.009,-0.174375,0.154875,0.0072937496,-0.03244025,0.0183715,1741898508.780446
0.000125,0.012875,0.159,0.04924,-0.024780251,-0.009719751,-0.014,-0.180375,0.150375,0.0062865,-0.02572625,0.03117375,1741898508.80003
-0.0085,0.01275,0.164125,0.0420685,-0.023681749,-0.0065917503,-0.019625,-0.144,0.158,0.00585925,-0.02268975,0.03724675,1741898508.809345
-0.02475,0.049125,0.173125,0.034668,-0.0222015,-0.0075225,-0.0185,-0.11375,0.172875,0.00947575,-0.01330575,0.043640252,1741898508.823992
-0.027875,0.03125,0.15925,0.018814,-0.0162505,-0.02180475,-0.014375,-0.0625,0.200125,0.013793999,-0.00782775,0.044067502,1741898508.839763
-0.020125,0.005625,0.1715,0.008407501,-0.01419075,-0.02548225,-0.012375,-0.047875,0.2065,0.0249635,0.0012055,0.043273997,1741898508.859359
-0.0135,0.009,0.195375,-0.0068665,-0.009613,-0.0222015,0.003,-0.02975,0.19975,0.0286255,0.0054475004,0.042923,1741898508.867659
-0.001875,0.07875,0.175375,-0.0102845,-0.0070647504,-0.02153025,0.008625,-0.023875,0.190625,0.029724,0.014282251,0.0398255,1741898508.882145
0.00475,0.076,0.1705,-0.01301575,-0.00109875,-0.02528375,0.015,-0.012625,0.15775,0.02746575,0.0190735,0.0365295,1741898508.9003031
0.012125,0.0375,0.20125,-0.013916001,0.003006,-0.026245002,0.021375,-0.005625,0.138125,0.01805125,0.028289748,0.027709998,1741898508.911177
0.012375,0.027,0.212125,-0.012329,0.01245125,-0.02911375,0.04175,0.02175,0.104625,0.01412975,0.03105175,0.022918751,1741898508.925556
0.020875,-0.0215,0.210125,-0.01187125,0.01832575,-0.0300445,0.046875,0.02875,0.0945,0.01156625,0.03179925,0.0173645,1741898508.9401221
0.028625,-0.0475,0.20025,-0.01307675,0.02462775,-0.02861025,0.04775,0.028,0.083875,0.0059967497,0.0312195,0.0046845004,1741898508.961241
0.047125,-0.087,0.158625,-0.013931249,0.036911,-0.018448,0.04175,0.012,0.058125,0.0026854998,0.03019725,-0.00146475,1741898508.968701
0.057625,-0.093875,0.12775,-0.012207,0.04173275,-0.010666001,0.039875,0.00225,0.041875,-0.0075835,0.027481,-0.01351925,1741898508.983217
0.0675,-0.089875,0.09675,-0.0076295,0.0449065,0.005066,0.043625,-0.010125,0.01425,-0.01490775,0.024536248,-0.019226,1741898508.9997592
0.0865,-0.065625,0.053375,-0.0067597497,0.042755,0.010498,0.04575,-0.008375,0.0125,-0.03474425,0.022613501,-0.03253175,1741898509.0124512
0.08825,-0.06825,0.042375,-0.0114135,0.033203,0.0177765,0.038875,-0.025,0.005625,-0.042861998,0.0213775,-0.038345248,1741898509.027046
0.0895,-0.051375,0.018625,-0.0141145,0.027359,0.022812,0.0275,-0.043375,0.00725,-0.053100497,0.01272575,-0.043273997,1741898509.041638
0.092,-0.029,0.011375,-0.015304499,0.013992251,0.029251,-0.00125,-0.09425,0.0235,-0.05714425,0.00712575,-0.04296875,1741898509.059863
0.08525,0.005375,0.00925,-0.014068499,0.00715625,0.029892,-0.017,-0.120375,0.039,-0.06469725,-0.0041504996,-0.03863525,1741898509.071231
0.077125,0.016375,0.0115,-0.0071409997,-0.0044555003,0.02931225,-0.033875,-0.160125,0.07125,-0.067413256,-0.008514499,-0.03480525,1741898509.0860019
0.0625,0.025,0.015625,-0.0029145,-0.009872501,0.028442498,-0.026625,-0.163,0.081875,-0.06791675,-0.011749251,-0.0301665,1741898509.100755
0.055125,0.02875,0.0235,0.00160225,-0.015442001,0.027557248,0.006625,-0.089875,0.1085,-0.057602,-0.017578252,-0.021179251,1741898509.1195211
0.044,0.038875,0.036,0.0142365,-0.0250245,0.024780251,0.01175,-0.055875,0.122125,-0.047881998,-0.02034,-0.018707251,1741898509.130084
0.00675,0.075625,0.05575,0.02130125,-0.0286255,0.023040751,0.001125,-0.059875,0.130625,-0.02970875,-0.02711475,-0.01048275,1741898509.1449358
-0.010875,0.10875,0.06575,0.032043498,-0.036163248,0.01637275,-0.031875,-0.085,0.149,-0.022613501,-0.028656,-0.00099175,1741898509.162448
-0.020625,0.131,0.085125,0.0343475,-0.03955075,0.0091095,-0.023375,-0.09225,0.144,-0.0035095,-0.024947999,0.02012625,1741898509.174473
-0.01775,0.101875,0.100125,0.032394502,-0.042648252,-0.0039215,0.02075,-0.115375,0.117375,0.00903325,-0.0254365,0.02967825,1741898509.188981
-0.017125,0.043875,0.1295,0.02893075,-0.041748002,-0.00590525,0.02575,-0.1185,0.1145,0.028946,-0.031570498,0.035553,1741898509.203746
-0.024,0.035,0.12825,0.021606501,-0.03933725,-0.00617975,-0.000625,-0.117,0.150125,0.032470748,-0.0329285,0.0345765,1741898509.21872
-0.067375,0.062875,0.168625,0.017120251,-0.038390998,-0.008514499,-0.012,-0.1095,0.179625,0.02781675,-0.029266251,0.034973253,1741898509.232851
-0.07975,0.06825,0.190375,0.01222225,-0.03524775,-0.0134735005,-0.018375,-0.08325,0.220125,0.02513125,-0.0245515,0.036972,1741898509.247562
-0.07275,0.068625,0.209875,0.00488275,-0.023940999,-0.02259825,-0.020875,-0.072125,0.2265,0.0226745,-0.009842,0.0405885,1741898509.262154
-0.02425,0.0715,0.235875,0.0016785001,-0.017929,-0.024643,-0.02075,-0.048375,0.217,0.0210725,-0.0020295,0.040969748,1741898509.280263
-0.00625,0.075125,0.240625,-0.00019825,-0.0054780003,-0.02671825,-0.019125,-0.033875,0.210125,0.018631,0.00903325,0.0391235,1741898509.291318
-0.002,0.071875,0.237875,-6.1000002e-05,0.001419,-0.029129,-0.011875,-0.006875,0.1875,0.018402,0.01361075,0.03718575,1741898509.3058271
-0.00325,0.05375,0.2215,-0.0018005001,0.01496875,-0.034866247,-0.007625,-0.00125,0.171625,0.017700251,0.0221405,0.031479,1741898509.320273
-0.0015,0.00925,0.185,-0.001892,0.01953125,-0.03598025,0.0005,-0.000875,0.137375,0.01510625,0.026550248,0.0275115,1741898509.33977
-0.004,-0.011625,0.180875,-0.0021515,0.02581775,-0.03494275,0.008375,0.00175,0.119625,0.011260999,0.0308075,0.0232085,1741898509.349065
-0.009875,-0.0565,0.179375,-0.0040435,0.029739501,-0.0325775,0.018375,0.009,0.1045,0.00737,0.034851003,0.01579275,1741898509.36337
-0.00275,-0.07775,0.169375,-0.0066374997,0.03456125,-0.028,0.0385,0.0275,0.082375,0.0075225,0.034606997,0.011734,1741898509.382037
0.025625,-0.082625,0.133,-0.0084379995,0.043213002,-0.014068499,0.047875,0.032,0.069625,0.008773751,0.03190625,0.0016632499,1741898509.392062
0.039875,-0.07625,0.113875,-0.007843,0.045578,-0.007904,0.051625,0.011,0.05425,0.008361749,0.02952575,-0.0030669998,1741898509.406472
0.051875,-0.074875,0.096,-0.0068969997,0.047119252,0.00198375,0.047125,-0.004625,0.054625,0.00317375,0.0249175,-0.010086001,1741898509.4209762
0.075,-0.078375,0.06,-0.0069274995,0.04638675,0.00785825,0.043625,-0.011625,0.058375,-0.0024414998,0.023803748,-0.013503999,1741898509.439883
0.08225,-0.0705,0.049875,-0.0101775,0.038879503,0.01835625,0.045375,-0.0095,0.052375,-0.019470248,0.026550248,-0.0245515,1741898509.450318
0.078375,-0.054625,0.046125,-0.01260375,0.03433225,0.0223235,0.053625,-0.000375,0.02875,-0.02610775,0.025940001,-0.03022775,1741898509.464917
0.076,-0.04125,0.036125,-0.01345825,0.026855499,0.0300445,0.054,0.00325,0.026,-0.03056325,0.022796748,-0.034911998,1741898509.4797199
0.083125,-0.0105,-0.0015,-0.012313751,0.021789499,0.032776,0.046875,-0.003,0.0315,-0.03660575,0.013854999,-0.041610748,1741898509.4993658
0.089,0.004125,-0.014375,-0.00947575,0.006073,0.035049498,0.01875,-0.050625,0.03925,-0.038314752,0.010024999,-0.042984,1741898509.508642
0.08525,0.0295,-0.004125,-0.007599,-0.0028687501,0.03433225,0.00375,-0.079875,0.044625,-0.03714,-0.0026092501,-0.0394745,1741898509.5234141
0.07275,0.0385,0.0115,-0.00437925,-0.0106355,0.032470748,-0.0205,-0.120375,0.06125,-0.0349885,-0.010009751,-0.03530875,1741898509.541188
0.057,0.046625,0.029375,0.0077210004,-0.02142325,0.02708425,-0.02525,-0.14125,0.067125,-0.02749625,-0.02101125,-0.0257415,1741898509.552942
0.028375,0.0645,0.06175,0.01617425,-0.025512751,0.02389525,-0.011625,-0.15225,0.077875,-0.023117,-0.024658252,-0.0208435,1741898509.5677161
0.01125,0.07825,0.08075,0.03363025,-0.032959,0.017425502,0.00125,-0.126625,0.0825,-0.01918025,-0.02948,-0.01412975,1741898509.582474
-0.026,0.111,0.133,0.0385895,-0.034484748,0.013793999,-0.009875,-0.09725,0.12575,-0.01899725,-0.031021,-0.011673001,1741898509.599691
-0.032375,0.11225,0.152375,0.034911998,-0.031128,0.0033875,-0.022875,-0.100125,0.156,-0.01222225,-0.027709998,0.00093075,1741898509.611878
-0.013125,0.05025,0.155625,0.0286255,-0.028015248,-0.0009155,-0.00325,-0.09775,0.1645,-0.0035704998,-0.0233155,0.009719751,1741898509.626704
0.0,0.023,0.148625,0.02253725,-0.0253295,-0.00187675,0.017625,-0.098,0.152375,0.01979075,-0.02067575,0.022583,1741898509.6412191
0.004625,0.02675,0.142,0.01628125,-0.02285775,0.00077825,0.031375,-0.107,0.1395,0.029739501,-0.022232,0.02433775,1741898509.662216
-0.00375,0.0805,0.100125,0.01554875,-0.0230255,-0.00193775,0.01775,-0.114625,0.1455,0.04214475,-0.02507025,0.025940001,1741898509.670202
-0.018,0.092875,0.097625,0.00773625,-0.027359,-0.01586925,-0.015875,-0.116875,0.1785,0.044098,-0.024887,0.028411752,1741898509.6848419
-0.049125,0.037625,0.167125,0.00228875,-0.0276185,-0.021331752,-0.02225,-0.108375,0.198625,0.043273997,-0.022216748,0.031265248,1741898509.70334
-0.046375,0.027125,0.1915,-0.0044707498,-0.020599252,-0.021362249,-0.014,-0.083875,0.215125,0.037963748,-0.00712575,0.035049498,1741898509.719317
-0.011875,0.07475,0.19425,-0.00720225,-0.016037,-0.02064525,-0.00525,-0.06625,0.20925,0.035431,0.0013580001,0.03569025,1741898509.728735
0.001,0.089625,0.188375,-0.009811499,-0.00833125,-0.0241395,0.0045,-0.05025,0.196125,0.03149425,0.014206001,0.0349885,1741898509.7431302
-0.001,0.071625,0.212125,-0.009674,-0.00463875,-0.027160749,0.024375,-0.017,0.149875,0.029724,0.018341,0.03376775,1741898509.760504
-0.004625,0.05075,0.220875,-0.00891125,-3.0500001e-05,-0.030578502,0.028875,-0.005,0.13125,0.02589425,0.021576,0.028427,1741898509.7720928
0.00025,0.00675,0.21875,-0.009292499,0.010437001,-0.03538525,0.03575,0.009,0.1035,0.02297975,0.02288825,0.0240325,1741898509.786527
0.0035,-0.01775,0.21525,-0.00997925,0.016327,-0.035461497,0.041125,0.01575,0.091,0.019470248,0.0232085,0.0143737495,1741898509.800856
0.00625,-0.042375,0.21,-0.0087585,0.03019725,-0.02867125,0.048375,0.016875,0.079375,0.01744075,0.02256775,0.0090637505,1741898509.820197
0.017125,-0.06775,0.18125,-0.0073395,0.037201,-0.022705,0.049375,0.0085,0.07375,0.00935375,0.023178,-0.001953,1741898509.8297322
0.02475,-0.06775,0.154125,-0.0046539996,0.04714975,-0.010391249,0.042,-0.005875,0.058,0.00317375,0.02351375,-0.00712575,1741898509.8442152
0.043625,-0.060125,0.10925,-0.0036315,0.0494385,-0.00485225,0.036875,-0.00925,0.0515,-0.0051880004,0.02389525,-0.012634249,1741898509.859456
0.052625,-0.061,0.092375,-0.0036010002,0.050705,0.00494375,0.03575,-0.010375,0.0435,-0.02636725,0.025238002,-0.0248565,1741898509.8745868
0.072375,-0.074,0.062875,-0.0050812503,0.0494995,0.0102235,0.0385,-0.010125,0.025125,-0.036743253,0.02575675,-0.031005751,1741898509.8882098
0.082625,-0.071375,0.051875,-0.00744625,0.04679875,0.01586925,0.034625,-0.024125,0.01475,-0.051880002,0.024261499,-0.040039003,1741898509.902826
0.08775,-0.048875,0.03625,-0.013382,0.03771975,0.0249635,0.01225,-0.091625,0.001875,-0.056488,0.02034,-0.04110725,1741898509.920176
0.08575,-0.03175,0.02325,-0.015029999,0.03259275,0.027984502,-0.003,-0.12525,0.01125,-0.06349175,0.00561525,-0.03569025,1741898509.9320488
0.08425,-0.013625,0.00825,-0.0129395,0.02111825,0.0315095,-0.0205,-0.14275,0.070375,-0.064819254,-0.0012970001,-0.03211975,1741898509.946759
0.08525,0.0175,-0.01325,-0.009719751,0.014267,0.032348752,-0.01725,-0.140875,0.09825,-0.057449248,-0.0084379995,-0.02548225,1741898509.9615538
0.084,0.0315,-0.011875,-0.00108325,-0.00068675,0.03179925,0.00575,-0.097875,0.127,-0.0477295,-0.0111085,-0.021164,1741898509.979895
0.06625,0.053125,0.01625,0.00440975,-0.00720225,0.0296325,0.01825,-0.05825,0.127875,-0.0233155,-0.016418502,-0.016388,1741898509.990987
0.054125,0.056625,0.03325,0.019622749,-0.01586925,0.0229035,-0.003,-0.07175,0.149375,-0.01316825,-0.0199585,-0.01324475,1741898510.0057359
0.03275,0.073875,0.057125,0.02882375,-0.0193635,0.019638,-0.016375,-0.09225,0.1565,0.000885,-0.018127501,0.00463875,1741898510.020281
0.02275,0.091,0.069375,0.03752125,-0.023285,0.01640325,0.015375,-0.1195,0.126375,0.009430001,-0.015594499,0.0139465,1741898510.039755
0.009625,0.108375,0.088625,0.05030825,-0.030365,0.007431,0.03875,-0.13325,0.1125,0.03176875,-0.018982,0.026122998,1741898510.0494359
-0.020125,0.122375,0.150875,0.050583,-0.03070075,0.0016785001,0.041,-0.13275,0.11025,0.04040525,-0.02105725,0.028473,1741898510.063997
-0.020125,0.112,0.17825,0.0353545,-0.022918751,-0.009506251,0.029,-0.12325,0.1185,0.04609675,-0.022491502,0.029220501,1741898510.0799649
0.008125,0.028125,0.199875,0.027099501,-0.017685,-0.013000499,0.018875,-0.115625,0.1325,0.048401,-0.0238495,0.0309905,1741898510.092986
0.017625,0.002875,0.195,0.024841249,-0.0074004997,-0.010024999,0.007,-0.105375,0.16925,0.04685975,-0.0221405,0.03302,1741898510.1075041
0.015375,0.023,0.1655,0.022369498,-0.00334175,-0.009734999,0.005625,-0.09775,0.1835,0.0433045,-0.013336251,0.03718575,1741898510.1219578
0.009875,0.013,0.168625,0.01631175,-0.00099175,-0.012420749,0.006,-0.08475,0.19125,0.04145825,-0.008499251,0.03840625,1741898510.141254
0.0055,0.000375,0.166875,-0.0029755002,-0.000412,-0.01554875,0.009875,-0.070375,0.18775,0.037155252,0.000946,0.0394135,1741898510.1509068
0.0045,0.025375,0.1455,-0.014297499,-0.0009155,-0.01412975,0.025625,-0.023375,0.16925,0.0348205,0.0054475004,0.037963748,1741898510.1653702
0.007625,0.03475,0.1495,-0.02769475,0.0018005001,-0.01374825,0.03375,-0.00375,0.1545,0.0273895,0.01452625,0.029296748,1741898510.1839628
0.023,0.025625,0.176875,-0.03067025,0.0047455,-0.01481625,0.04725,0.0155,0.11575,0.02389525,0.017685,0.0238495,1741898510.199166
0.035875,0.012875,0.191125,-0.026275748,0.0143737495,-0.01617425,0.048375,0.017,0.104375,0.0183715,0.018737748,0.013198749,1741898510.2086458
0.058875,-0.028875,0.1785,-0.02301025,0.0204315,-0.014587499,0.045875,0.00925,0.08875,0.014572251,0.01965325,0.00747675,1741898510.222997
0.062,-0.032375,0.164,-0.029601999,0.028305,-0.0064850003,0.043375,0.000875,0.07775,0.010253999,0.021103,0.001831,1741898510.2400472
0.0615,-0.029,0.13125,-0.03050225,0.031692497,-0.00305175,0.039125,-0.00575,0.066375,-0.00030525,0.022613501,-0.00897225,1741898510.252077
0.066,-0.031875,0.108,-0.02819825,0.0347595,4.575e-05,0.040125,-0.005125,0.040125,-0.0079955,0.022918751,-0.015213001,1741898510.266701
0.07425,-0.03125,0.085125,-0.0222015,0.03553775,0.0058135,0.040875,0.0,0.03375,-0.02648925,0.02374275,-0.029876752,1741898510.2812421
0.08775,-0.0345,0.05425,-0.020691,0.033203,0.008224499,0.04175,-0.013,0.012125,-0.03671275,0.024993999,-0.037048247,1741898510.2999208
0.090125,-0.040625,0.042375,-0.0175935,0.026672252,0.0151825,0.035875,-0.028625,0.00525,-0.0519105,0.01976025,-0.045303248,1741898510.310575
0.100875,-0.032375,0.01925,-0.0158845,0.022064252,0.01968375,0.0105,-0.068625,0.003125,-0.05581675,0.013854999,-0.046463,1741898510.3251781
0.106125,-0.018625,0.011875,-0.0147705,0.0088805,0.02487175,-0.006375,-0.091875,0.0095,-0.053115748,-0.0025025,-0.0436555,1741898510.340033
0.102625,0.005375,0.01125,-0.014800999,0.00175475,0.0257415,-0.03775,-0.13675,0.037,-0.04771425,-0.011260999,-0.03958125,1741898510.359982
0.094875,0.016875,0.015375,-0.0104674995,-0.0100555,0.026855499,-0.044875,-0.15725,0.0515,-0.03869625,-0.0238495,-0.02838125,1741898510.3695529
0.0725,0.039875,0.025375,-0.0059967497,-0.014343251,0.02674875,-0.044375,-0.1815,0.082875,-0.03668225,-0.0270385,-0.02183525,1741898510.384326
0.056625,0.058,0.028375,-0.00062550005,-0.01763925,0.02604675,-0.035,-0.168875,0.099625,-0.032318,-0.027954001,-0.009491,1741898510.401271
0.0405,0.082375,0.0285,0.01171875,-0.02323925,0.02101125,-0.009,-0.115375,0.1325,-0.027862499,-0.02702325,-0.004303,1741898510.414525
0.021625,0.118875,0.032125,0.0189515,-0.027007999,0.01576225,-0.0025,-0.10475,0.142625,-0.012313751,-0.025512751,0.0069580004,1741898510.42869
0.01875,0.114,0.040375,0.0359955,-0.0365905,0.00538625,-0.004,-0.1185,0.144125,-0.0018615,-0.02537525,0.014160249,1741898510.443323
0.005625,0.0885,0.093375,0.042572,-0.040527247,0.0025634998,-0.006,-0.123875,0.141625,0.0100707505,-0.025833251,0.021408001,1741898510.4592772
-0.003375,0.084875,0.123,0.04367075,-0.0423125,-0.00065625,-0.00775,-0.1245,0.1615,0.0338745,-0.027130252,0.03009025,1741898510.472577
-0.020875,0.075875,0.156125,0.03837575,-0.04087825,-0.00354,-0.009375,-0.12625,0.1795,0.041931253,-0.02565,0.03164675,1741898510.487247
-0.0255,0.062125,0.16275,0.032318,-0.038390998,-0.00708,-0.01075,-0.132875,0.1965,0.045837503,-0.0179595,0.036163248,1741898510.501854
-0.031375,0.05825,0.167125,0.0230865,-0.03221125,-0.013000499,-0.004125,-0.133625,0.21325,0.042358503,-0.01121525,0.040222254,1741898510.51912
-0.0405,0.066625,0.1635,0.0188445,-0.02876275,-0.0166625,0.000375,-0.114125,0.210125,0.03117375,0.0036315,0.0453185,1741898510.530994
-0.038,0.0605,0.158375,0.012542751,-0.0221405,-0.023178,0.009375,-0.052,0.19175,0.02702325,0.009903,0.0451355,1741898510.545504
-0.023125,0.034125,0.174125,0.0093995,-0.018631,-0.02409375,0.018,-0.017,0.177875,0.025940001,0.018509,0.04031375,1741898510.559956
-0.01325,0.02925,0.1845,0.00071725,-0.0114135,-0.023940999,0.03325,0.02525,0.138125,0.02893075,0.02012625,0.0365295,1741898510.5796218
0.002375,0.062375,0.217875,-0.003418,-0.008026,-0.024383498,0.033,0.021375,0.121875,0.0300445,0.01985175,0.027069,1741898510.5886452
0.003125,0.085625,0.216,-0.0073242504,0.001831,-0.03038025,0.031125,0.00625,0.09525,0.0249175,0.02082825,0.0219115,1741898510.603032
0.0045,0.050375,0.192875,-0.0069885002,0.0073242504,-0.033844,0.03075,0.009875,0.086125,0.0182495,0.02182,0.016570998,1741898510.6206222
0.00675,0.0215,0.19275,-0.0056609996,0.012146,-0.034835752,0.030625,0.01775,0.068625,0.000183,0.02613825,0.00169375,1741898510.631888
0.00775,0.0,0.19525,-0.0033875,0.021453751,-0.032547,0.034875,0.02175,0.05475,-0.01133725,0.02970875,-0.0075072497,1741898510.646522
0.01425,-0.05725,0.180625,-0.002243,0.026977502,-0.030029248,0.04325,0.026875,0.036,-0.030777,0.03179925,-0.02510075,1741898510.66241
0.02375,-0.084125,0.1655,-0.0012055,0.037490748,-0.01766975,0.049625,0.03,0.010875,-0.0364075,0.0275115,-0.0324555,1741898510.675593
0.0485,-0.106,0.12825,-0.0015565,0.0414275,-0.009369001,0.04375,0.02125,0.00975,-0.0475005,0.02034,-0.0457915,1741898510.690149
0.059375,-0.1055,0.103375,-0.0024414998,0.045227002,0.0067445002,0.02275,-0.031125,-0.003375,-0.050598253,0.017105,-0.04971325,1741898510.704837
0.080375,-0.090125,0.05025,-0.003128,0.04388425,0.0133667495,0.0065,-0.068,-0.00275,-0.04582225,0.00077825,-0.0483245,1741898510.719638
0.08575,-0.085,0.031875,-0.00691225,0.034652747,0.023940999,-0.037625,-0.144375,0.02025,-0.04129025,-0.00918575,-0.04403675,1741898510.739957
0.08725,-0.05925,0.01475,-0.00935375,0.02845775,0.0293885,-0.053,-0.176375,0.028,-0.04002375,-0.02244575,-0.033905,1741898510.749229
0.08475,-0.033125,0.007625,-0.011398249,0.021988,0.034225497,-0.064375,-0.2095,0.06,-0.042282,-0.026122998,-0.0279235,1741898510.764139
0.08275,-0.007125,0.0005,-0.01133725,0.008270251,0.0379945,-0.058375,-0.1985,0.08925,-0.0345155,-0.0279235,-0.0104065,1741898510.781247
0.08025,0.024125,-0.00225,-0.0097045,0.00071725,0.037170503,-0.017875,-0.146625,0.1315,-0.0237275,-0.026764,-0.0015565,1741898510.800446
0.075625,0.031875,0.004875,-0.0041810004,-0.01440425,0.034118753,0.0005,-0.1375,0.142,-0.0032347501,-0.026947001,0.011398249,1741898510.808249
0.054,0.050375,0.03575,0.00213625,-0.0206605,0.032470748,0.006375,-0.147375,0.154875,0.00444025,-0.02696225,0.017608749,1741898510.822878
0.0345,0.06975,0.053875,0.0203095,-0.02923575,0.02772525,0.00425,-0.145375,0.158875,0.02012625,-0.026474,0.0299835,1741898510.839871
-0.01025,0.13275,0.080875,0.0280915,-0.03227225,0.02345275,0.008375,-0.120375,0.166,0.026275748,-0.025833251,0.034408502,1741898510.851978
-0.023375,0.1545,0.096875,0.032821752,-0.035202,0.016693002,0.004,-0.11075,0.173375,0.030243,-0.0246735,0.03710925,1741898510.866602
-0.028625,0.1445,0.114,0.02949525,-0.03854375,-0.0004425,-0.008875,-0.110125,0.18575,0.034911998,-0.01852425,0.04078675,1741898510.881236
-0.024375,0.0625,0.113625,0.0238495,-0.0387115,-0.0052795,-0.02925,-0.104375,0.210125,0.03572075,-0.012619001,0.0434265,1741898510.900104
-0.039375,0.0615,0.123125,0.0141145,-0.040161252,-0.0068969997,-0.024375,-0.08475,0.21925,0.03205875,0.0020752498,0.046646,1741898510.91063
-0.097875,0.098625,0.200625,0.0100555,-0.037902746,-0.01086425,0.007375,-0.024125,0.21275,0.02961725,0.00985725,0.046157748,1741898510.925072
-0.103125,0.09275,0.231625,0.005539,-0.022216748,-0.02439875,0.02125,0.004375,0.1955,0.028411752,0.02186575,0.04008475,1741898510.939523
-0.04375,0.062375,0.233125,0.0042115003,-0.01266475,-0.028167749,0.0355,0.037375,0.145625,0.029068,0.025055,0.035141,1741898510.961167
-0.012125,0.062625,0.225875,0.0007325,0.0004425,-0.02822875,0.037,0.039375,0.119625,0.02760325,0.027404752,0.022461,1741898510.968472
0.0105,0.0665,0.236125,-0.00062550005,0.0064239996,-0.02882375,0.040125,0.023,0.076125,0.026062,0.026825001,0.016540501,1741898510.982781
0.007375,0.0675,0.23275,-0.00108325,0.013564999,-0.03097525,0.037375,0.00725,0.069875,0.02067575,0.023819,0.0059815003,1741898511.000402
0.004375,0.0635,0.21475,-0.00187675,0.02687075,-0.037963748,0.02675,-0.023,0.060125,0.013275251,0.02513125,0.000229,1741898511.011692
0.011125,-0.0035,0.178875,-0.001007,0.0312195,-0.039855998,0.029625,-0.0235,0.049,0.003006,0.02737425,-0.0057525,1741898511.026218
0.010375,-0.04175,0.176625,-0.00238025,0.0390625,-0.03364575,0.03625,-0.015625,0.03625,-0.020218,0.02919,-0.01864625,1741898511.040969
0.021,-0.092,0.150875,-0.0042115003,0.0439605,-0.02787775,0.043875,-0.005,0.013875,-0.030136,0.02781675,-0.025466999,1741898511.060726
0.037375,-0.1195,0.127875,-0.00396725,0.05131525,-0.012375,0.042375,-0.011,0.006,-0.04881275,0.026519751,-0.03878775,1741898511.0702488
0.0645,-0.13675,0.081625,-0.0034790002,0.05252075,-0.0022277501,0.032375,-0.047875,-0.010375,-0.055847254,0.02452075,-0.042755,1741898511.084964
0.07275,-0.128375,0.06075,-0.0065917503,0.049347,0.015075751,0.0205,-0.078125,-0.007125,-0.06567375,0.0122985,-0.04391475,1741898511.101037
0.079625,-0.101625,0.016375,-0.008361749,0.04582225,0.02241525,-0.021,-0.138875,0.031375,-0.069320746,0.004074,-0.04125975,1741898511.1143758
0.08275,-0.0805,-0.0055,-0.009323,0.040802,0.0293885,-0.041125,-0.16175,0.058625,-0.07421875,-0.0076905,-0.03306575,1741898511.12917
0.083875,-0.054,-0.021625,-0.0104065,0.0253295,0.039855998,-0.04125,-0.179,0.093125,-0.074356005,-0.010437001,-0.027587999,1741898511.143979
0.081625,0.000125,-0.036,-0.01062,0.01586925,0.04208375,-0.016125,-0.1385,0.106,-0.06536875,-0.014038,-0.01921075,1741898511.163153
0.080125,0.0175,-0.033875,-0.008499251,-0.00292975,0.040969748,0.018875,-0.046125,0.13725,-0.0552825,-0.01582325,-0.0179595,1741898511.173629
0.073875,0.033,-0.010375,-0.0065002497,-0.01136775,0.03904725,0.007,-0.0455,0.1535,-0.0308075,-0.02038575,-0.009796251,1741898511.18817
0.065,0.042375,0.00225,-0.000229,-0.02519225,0.034911998,-0.020125,-0.05075,0.164625,-0.01800525,-0.01953125,-0.0008545,1741898511.202972
0.03525,0.08075,0.033875,0.0052642496,-0.031356752,0.032287497,-0.00675,-0.0625,0.148375,0.009643501,-0.01690675,0.01976025,1741898511.220039
0.013625,0.116375,0.065,0.0125275,-0.0375365,0.02848825,0.03425,-0.103625,0.11125,0.02534475,-0.019516,0.029174749,1741898511.232204
-0.041125,0.183375,0.14,0.02993775,-0.0451965,0.014145001,0.03325,-0.10825,0.114875,0.0512085,-0.02775575,0.032256998,1741898511.246797
-0.05,0.175,0.164625,0.03471375,-0.043335,0.004547,0.010125,-0.1085,0.145375,0.057189997,-0.02978525,0.03041075,1741898511.2612438
-0.034375,0.132125,0.177875,0.0318755,-0.030716,-0.008499251,0.002125,-0.108,0.168375,0.0591735,-0.0302735,0.030334499,1741898511.280086
0.01025,0.039125,0.1545,0.029876752,-0.025085501,-0.0091705,-0.0005,-0.10725,0.18875,0.055953998,-0.020996,0.033264253,1741898511.290496
0.005125,0.04675,0.134,0.02348325,-0.022491502,-0.0076295,0.0065,-0.093375,0.19925,0.0516205,-0.013183501,0.03479,1741898511.3050728
-0.04125,0.0695,0.163625,0.01554875,-0.0226745,-0.0119934995,0.009,-0.08075,0.197,0.04521175,-0.00283825,0.036972,1741898511.3200839
-0.049125,0.037375,0.194625,0.000534,-0.01498425,-0.021942249,0.011125,-0.06725,0.1805,0.043624748,0.0009765,0.037674,1741898511.338939
-0.012625,0.02325,0.216375,-0.006302,-0.010086001,-0.02238475,0.0095,-0.066625,0.16925,0.036255002,0.00862125,0.037368752,1741898511.3487139
0.01275,0.061625,0.218625,-0.01475525,-0.0027312501,-0.021988,0.00975,-0.052875,0.14475,0.027862499,0.0135345,0.0352325,1741898511.363234
0.0375,0.1045,0.196625,-0.01469425,0.0021972498,-0.025466999,0.0155,-0.035625,0.129875,0.010757499,0.024063,0.0282745,1741898511.380397
0.03625,0.0735,0.188875,-0.01092525,0.0122375,-0.032256998,0.033,0.005625,0.104125,0.00708,0.02671825,0.02445975,1741898511.3924968
0.024375,0.006875,0.19075,-0.010452249,0.01651,-0.032424998,0.04175,0.019125,0.093625,0.0043639997,0.028716998,0.0135345,1741898511.406865
0.01675,-0.008,0.185375,-0.0088805,0.0252075,-0.029846251,0.056625,0.02625,0.07475,0.00402825,0.028885,0.0071105,1741898511.421282
0.012375,-0.036875,0.16775,-0.0068969997,0.030243,-0.0273285,0.05875,0.02225,0.06725,0.004837,0.02796925,0.001068,1741898511.4395661
0.018625,-0.057125,0.157,-0.00469975,0.035492,-0.023346001,0.055625,0.013625,0.062,0.00708,0.023758,-0.00935375,1741898511.450167
0.029,-0.075875,0.141625,-0.00263975,0.043747,-0.01104725,0.04225,-0.00675,0.04825,0.00611875,0.0217285,-0.0137635,1741898511.46467
0.056125,-0.0905,0.09975,-0.003296,0.04556275,-0.003769,0.035125,-0.013,0.04175,-0.00245675,0.01905825,-0.02268975,1741898511.480027
0.07225,-0.088875,0.076375,-0.00662225,0.043151747,0.00976575,0.03275,-0.027375,0.018375,-0.0109709995,0.020691,-0.02864075,1741898511.4996328
0.08925,-0.0705,0.046125,-0.008270251,0.03913875,0.0153655,0.033875,-0.03525,0.007375,-0.028564502,0.01905825,-0.038681,1741898511.508673
0.087875,-0.057,0.039125,-0.011078,0.029739501,0.0247955,0.02275,-0.061875,0.005375,-0.0364685,0.015518251,-0.04164125,1741898511.523339
0.076625,-0.023,0.0345,-0.0115815,0.02537525,0.028686501,0.01375,-0.08,0.012375,-0.049652,0.0075377496,-0.0436095,1741898511.5395021
0.072875,-0.004875,0.030375,-0.0086975,0.0180665,0.033798248,-0.01,-0.114125,0.032625,-0.05390925,0.00279225,-0.04290775,1741898511.552683
0.075625,0.020875,0.010375,-0.0059967497,0.01412975,0.034652747,-0.021625,-0.12875,0.041375,-0.054062,-0.00798025,-0.03762825,1741898511.567635
0.078125,0.029625,-0.0005,-0.003418,0.0090485,0.034668,-0.025375,-0.13225,0.061125,-0.05125425,-0.01310725,-0.03338625,1741898511.5824692
0.076375,0.048,-0.008875,0.00125125,-0.00416575,0.0331115,-0.022,-0.126625,0.072125,-0.043716498,-0.020874001,-0.02427675,1741898511.600551
0.07125,0.05825,-0.004,0.003662,-0.01165775,0.0314635,-0.0295,-0.122875,0.10425,-0.038131747,-0.02386475,-0.0187225,1741898511.612043
0.062375,0.070125,0.009375,0.008926501,-0.02731325,0.024810748,-0.036125,-0.11875,0.125125,-0.02224725,-0.027160749,-0.0048979996,1741898511.62705
0.02925,0.092,0.061125,0.012039251,-0.034362752,0.019927999,-0.027,-0.123625,0.15,-0.0129395,-0.02680975,0.0023039998,1741898511.64225
0.007375,0.100875,0.09075,0.01864625,-0.041869998,0.011260999,-0.01225,-0.13125,0.1545,0.00393675,-0.0254975,0.013733,1741898511.659487
-0.018375,0.11525,0.127625,0.02095025,-0.0415955,0.0079955,0.0155,-0.13375,0.154125,0.010681249,-0.024658252,0.018020751,1741898511.671168
-0.01675,0.119375,0.134625,0.0220795,-0.0366975,0.00065625,0.022875,-0.131625,0.1475,0.01586925,-0.02360525,0.021636998,1741898511.685799
0.001875,0.080625,0.14325,0.02162175,-0.03338625,-0.00302125,0.012875,-0.134875,0.1435,0.02009575,-0.022521999,0.0280915,1741898511.7002418
0.005625,0.06025,0.142125,0.0215455,-0.0303955,-0.0051269997,0.000625,-0.13075,0.15375,0.0205535,-0.021636998,0.03176875,1741898511.7191098
-0.003,0.064625,0.115375,0.019714251,-0.02699275,-0.0077972496,-0.007125,-0.119125,0.166625,0.0213165,-0.01396175,0.0379945,1741898511.729496
-0.015125,0.07175,0.1225,0.01646425,-0.0273285,-0.010681249,-0.003875,-0.082375,0.1795,0.02227775,-0.009201,0.039367747,1741898511.744061
-0.025375,0.062375,0.14375,0.00720225,-0.02592475,-0.017868,-0.002,-0.071375,0.183125,0.0253295,-0.001526,0.040237498,1741898511.7605178
-0.019625,0.0395,0.17825,0.00245675,-0.022827249,-0.01965325,0.000625,-0.058625,0.185875,0.025665252,0.0025634998,0.040283248,1741898511.77318
-0.00575,0.045625,0.1875,-0.0051269997,-0.0160675,-0.0203095,0.004,-0.049125,0.182875,0.022064252,0.012146,0.03848275,1741898511.787657
0.014,0.078375,0.203375,-0.0074004997,-0.01257325,-0.020813,0.008375,-0.03075,0.16075,0.019042999,0.01734925,0.0361785,1741898511.802094
0.01075,0.092375,0.20175,-0.009491,-0.00325,-0.025238002,0.0115,-0.02375,0.142625,0.012496999,0.026352,0.0303955,1741898511.819881
-0.00175,0.080625,0.1875,-0.00935375,0.0013427499,-0.0288085,0.01975,-0.01,0.111875,0.010253999,0.02896125,0.02731325,1741898511.831153
-0.000875,0.05825,0.18525,-0.00488275,0.009597749,-0.0343475,0.022375,-0.0045,0.10425,0.00720225,0.03237925,0.020049999,1741898511.8456142
0.007125,0.008125,0.18575,-0.001648,0.01419075,-0.03479,0.03425,0.0135,0.094875,0.0058899997,0.034011748,0.01560975,1741898511.859978
0.012375,-0.0165,0.18175,0.0009155,0.0194245,-0.03329475,0.042625,0.0235,0.08675,0.0047455,0.0353545,0.0106355,1741898511.8744981
0.01925,-0.0355,0.173875,0.002411,0.029754749,-0.025085501,0.04825,0.02575,0.074125,0.0029449998,0.0353545,-0.00074775,1741898511.888895
0.033,-0.0505,0.15125,0.0021972498,0.03385925,-0.01985175,0.0485,0.007875,0.04575,0.00137325,0.03353875,-0.0063934997,1741898511.903413
0.038625,-0.053625,0.136,0.0029755002,0.039688,-0.009521499,0.047,-0.0005,0.036125,-0.0060272496,0.028991751,-0.01725775,1741898511.919339
0.054,-0.0615,0.0995,0.003296,0.04135125,-0.0043182503,0.04925,-0.010375,0.0215,-0.011856,0.027160749,-0.02265925,1741898511.932719
0.064125,-0.066125,0.083,0.0017395001,0.040420502,0.0059510004,0.05025,-0.013375,0.016625,-0.02503975,0.0219575,-0.03259275,1741898511.947277
0.076125,-0.066375,0.054125,-1.5250001e-05,0.037796002,0.011078,0.041375,-0.03075,0.010125,-0.03138725,0.0186005,-0.03663625,1741898511.962
0.07775,-0.057375,0.042125,-0.00302125,0.029663,0.021041749,0.033875,-0.050125,0.007375,-0.039855998,0.009674,-0.04034425,1741898511.979386
0.082875,-0.029875,0.027875,-0.0039825,0.024780251,0.025360001,0.0125,-0.103375,0.021875,-0.04435725,0.0043182503,-0.039734002,1741898511.991284
0.085375,-0.01675,0.025125,-0.0047607496,0.019470248,0.02867125,0.000125,-0.12625,0.040125,-0.0575715,-0.00494375,-0.03569025,1741898512.0061471
0.08475,-0.00675,0.02525,-0.0058287503,0.0080872495,0.03190625,-0.01525,-0.162125,0.071,-0.064499,-0.008285499,-0.03279125,1741898512.0210922
0.07675,0.009,0.02525,-0.0054015,0.00270075,0.03250125,-0.012,-0.1665,0.082375,-0.067489505,-0.0148315,-0.024047751,1741898512.039743
0.07275,0.014625,0.022,-0.00198375,-0.0075682504,0.0326995,0.014375,-0.099375,0.114875,-0.061752252,-0.017654499,-0.019744748,1741898512.050603
0.061875,0.030375,0.01975,0.00070200005,-0.013183501,0.032547,0.020125,-0.053625,0.131875,-0.0434875,-0.02056875,-0.01560975,1741898512.0653398
0.04975,0.045375,0.028,0.00637825,-0.02452075,0.0309295,-0.00075,-0.052,0.1425,-0.034729,-0.02177425,-0.012405501,1741898512.080183
0.017125,0.092625,0.060375,0.00883475,-0.02961725,0.02835075,-0.009375,-0.065625,0.13925,-0.02622975,-0.02244575,-0.00590525,1741898512.0956092
0.002,0.108875,0.08025,0.012909001,-0.03714,0.018341,0.013625,-0.081125,0.11475,-0.00177,-0.0222015,0.012191749,1741898512.1095948
-0.012,0.103875,0.111125,0.014297499,-0.0386505,0.01324475,0.028,-0.089375,0.10825,0.013626001,-0.0246125,0.018585252,1741898512.12417
-0.014375,0.10175,0.121375,0.01475525,-0.038955748,0.009384249,0.028,-0.0955,0.108375,0.036514252,-0.0308685,0.02244575,1741898512.1428978
-0.01675,0.1035,0.12875,0.0124665005,-0.037384,0.00340275,0.011375,-0.10575,0.121375,0.04273975,-0.032409754,0.022918751,1741898512.159483
-0.02375,0.09375,0.13775,0.01115425,-0.03572075,0.0003205,0.006875,-0.108125,0.135375,0.04714975,-0.033264253,0.02545175,1741898512.167948
-0.029,0.088625,0.139,0.01013175,-0.0315095,-0.0064239996,-0.00025,-0.1075,0.17075,0.046264753,-0.031021,0.02763375,1741898512.182577
-0.041375,0.098,0.132375,0.00975025,-0.029739501,-0.010788,0.001375,-0.102625,0.177875,0.04110725,-0.0188445,0.0321045,1741898512.1999009
-0.04625,0.097625,0.146375,0.0067902496,-0.02613825,-0.02073675,0.01025,-0.079625,0.182375,0.03807075,-0.013931249,0.0338135,1741898512.2118888
-0.038625,0.06675,0.18825,0.00488275,-0.02230825,-0.02401725,0.0115,-0.068375,0.182375,0.03610225,-0.005783,0.0346985,1741898512.226397
-0.026125,0.0575,0.203,0.001526,-0.0116425,-0.025970502,0.009875,-0.059125,0.172875,0.0363465,-0.00163275,0.033844,1741898512.240875
0.00525,0.049125,0.214375,-0.00030525,-0.0060882503,-0.02626025,0.0095,-0.062375,0.165125,0.02964775,0.0088805,0.0306855,1741898512.2608352
0.016375,0.048625,0.22025,-0.0022735,-0.000763,-0.02648925,0.0155,-0.050375,0.140625,0.02374275,0.01396175,0.029296748,1741898512.2697742
0.020625,0.053375,0.2185,-0.0046845004,0.0105742505,-0.027984502,0.0165,-0.039,0.129375,0.018341,0.017654499,0.027679501,1741898512.284194
0.01325,0.051125,0.187875,-0.0047912505,0.01576225,-0.029601999,0.018875,-0.0295,0.119125,0.0101165,0.02259825,0.0224,1741898512.300288
0.01025,0.028,0.176,-0.0025025,0.023650998,-0.03059375,0.027375,-0.01825,0.100625,0.0072175004,0.0245515,0.018875,1741898512.313163
0.003875,-0.01025,0.172125,-0.0013427499,0.02702325,-0.02879325,0.03325,-0.010875,0.0935,0.0038299998,0.026702998,0.01095575,1741898512.327872
0.002875,-0.023125,0.168125,0.00067150005,0.035339247,-0.02268975,0.044375,-0.002,0.085875,0.0029755002,0.027069,0.0065002497,1741898512.342294
0.017875,-0.052,0.14625,0.0017395001,0.039688,-0.018310498,0.046875,-0.002875,0.081625,0.0019989999,0.02719125,-0.0025634998,1741898512.3599591
0.029125,-0.06,0.13225,0.002884,0.045944247,-0.0065765,0.04625,-0.009375,0.06775,0.00119025,0.026840251,-0.0070495,1741898512.371522
0.056125,-0.05525,0.0965,0.0028687501,0.04739375,-0.00071725,0.043875,-0.014375,0.059875,-0.00251775,0.02401725,-0.01525875,1741898512.386304
0.069,-0.05325,0.079,0.00225825,0.04707325,0.00402825,0.03775,-0.02,0.0515,-0.005783,0.022613501,-0.018920999,1741898512.4010189
0.07675,-0.0525,0.065625,-0.00033575002,0.041869998,0.011764499,0.03725,-0.022375,0.047625,-0.014038,0.02212525,-0.027282748,1741898512.420356
0.077125,-0.044625,0.051375,-0.0012970001,0.038452253,0.01586925,0.0395,-0.029125,0.038625,-0.01734925,0.020874001,-0.03129575,1741898512.430298
0.074875,-0.036375,0.045625,-0.00175475,0.0319825,0.02445975,0.039,-0.033,0.03625,-0.019516,0.0139465,-0.03739925,1741898512.445005
0.076125,-0.015625,0.029,-0.00187675,0.028411752,0.0281525,0.0325,-0.046625,0.036875,-0.01930225,0.009887749,-0.039688,1741898512.460726
0.0785,-0.00525,0.019375,-0.00343325,0.018615749,0.03291325,0.025,-0.060875,0.037125,-0.01852425,0.0058899997,-0.04135125,1741898512.480978
0.079625,0.01725,0.006125,-0.00463875,0.012313751,0.033905,-0.002125,-0.1095,0.0365,-0.01899725,-0.0016632499,-0.04164125,1741898512.4891148
0.077375,0.028625,0.00625,-0.0057677496,-0.001114,0.033325247,-0.015125,-0.129875,0.03775,-0.02162175,-0.0051880004,-0.039734002,1741898512.504016
0.065625,0.0525,0.01925,-0.00517275,-0.0074920002,0.031967252,-0.030125,-0.14825,0.04925,-0.030883752,-0.01148975,-0.033798248,1741898512.519584
0.054375,0.06825,0.0295,-0.0036315,-0.013336251,0.0299225,-0.03125,-0.14675,0.058125,-0.03500375,-0.014099,-0.03034975,1741898512.539222
0.0405,0.087375,0.041875,0.0030669998,-0.022827249,0.02333075,-0.029625,-0.14475,0.066,-0.038742002,-0.018448,-0.0228425,1741898512.548484
0.013375,0.12225,0.07525,0.0079955,-0.0262145,0.0186005,-0.029375,-0.140625,0.088125,-0.037231497,-0.02105725,-0.018097,1741898512.56324
0.006375,0.12475,0.0925,0.01823425,-0.029174749,0.0077972496,-0.026625,-0.1285,0.097625,-0.0264435,-0.02589425,-0.007187,1741898512.580895
0.010125,0.09125,0.11525,0.02098075,-0.028946,0.00343325,-0.016375,-0.10875,0.102625,-0.018890498,-0.028183,-0.001953,1741898512.593009
0.015125,0.068625,0.125,0.01879875,-0.027176,0.00080875,-0.012625,-0.11125,0.099875,-0.00143425,-0.03221125,0.00842275,1741898512.607678
0.0225,0.04425,0.13075,0.01593025,-0.026291,0.00143425,-0.009625,-0.130375,0.111375,0.0068512503,-0.0347595,0.013031,1741898512.623599
0.021375,0.0505,0.12375,0.01307675,-0.026000999,0.00163275,-0.009,-0.137875,0.126875,0.01776125,-0.03714,0.02105725,1741898512.6388988
0.00475,0.083125,0.1005,0.0067597497,-0.028061,-0.003128,-0.007375,-0.143375,0.15,0.02073675,-0.036422748,0.024688749,1741898512.651639
-0.009875,0.086,0.112125,0.0032347501,-0.029907249,-0.007599,-0.009625,-0.145,0.155375,0.020324752,-0.03038025,0.0318755,1741898512.666294
-0.021,0.07825,0.13,-0.00099175,-0.02952575,-0.014618,-0.012,-0.137875,0.15825,0.017852752,-0.0258025,0.035446253,1741898512.681034
-0.01825,0.0645,0.15875,-0.00064075,-0.027007999,-0.016113251,-0.011,-0.128375,0.166375,0.015533499,-0.018448,0.0403595,1741898512.699328
-0.007,0.06175,0.167125,0.00030525,-0.0199585,-0.017120251,-0.016375,-0.117625,0.191,0.0153502505,-0.0138245,0.04202275,1741898512.710495
0.01375,0.06675,0.183,6.1000002e-05,-0.0166015,-0.01728825,-0.021375,-0.109625,0.199625,0.0124665005,-0.001587,0.045608502,1741898512.7252212
0.0155,0.07825,0.19,-0.00267025,-0.009842,-0.01979075,-0.01675,-0.071,0.201375,0.009811499,0.0055847503,0.04638675,1741898512.740012
0.005875,0.09325,0.1855,-0.00466925,-0.0061645,-0.023224002,-0.008625,-0.04725,0.19075,0.0067445002,0.01979075,0.04408275,1741898512.759449
0.005875,0.081875,0.180375,-0.0057372497,-0.0025787498,-0.0275115,0.00475,-0.017875,0.15125,0.007019,0.024993999,0.04185475,1741898512.768967
0.017875,0.041625,0.178625,-0.00251775,0.0036010002,-0.033661,0.009375,-0.01275,0.13075,0.0076142503,0.028442498,0.039352503,1741898512.783416
0.02025,0.0185,0.1805,0.000946,0.0070952503,-0.033935502,0.013625,-0.01075,0.106875,0.007431,0.03189075,0.033325247,1741898512.8000278
0.02075,-0.00125,0.179875,0.0061645,0.016967751,-0.028839001,0.015375,-0.009,0.100875,0.006607,0.033081003,0.02978525,1741898512.8124878
0.024625,-0.028,0.167875,0.0065917503,0.021789499,-0.02534475,0.0185,-0.005125,0.096875,0.0038757501,0.03553775,0.02186575,1741898512.8268921
0.02775,-0.03675,0.160125,0.0047912505,0.0289155,-0.01791375,0.030625,0.009875,0.087125,0.002243,0.03683475,0.0172425,1741898512.8412778
0.037875,-0.042375,0.141875,0.003891,0.03155525,-0.013778751,0.037,0.01175,0.076,-0.00181575,0.038681,0.006302,1741898512.85872
0.043375,-0.0415,0.134125,0.002533,0.03598025,-0.005249,0.042375,0.001125,0.0535,-0.0050965,0.0384675,0.0007325,1741898512.870462
0.05425,-0.036625,0.1155,0.00216675,0.037917998,-0.0010375,0.042625,-0.004,0.047125,-0.013778751,0.036331248,-0.010009751,1741898512.884959
0.058375,-0.034,0.10575,0.0019225,0.039199747,0.00296025,0.0435,-0.01025,0.043875,-0.01857,0.03541575,-0.015090999,1741898512.90004
0.062,-0.033625,0.095,0.0012665,0.039627,0.010589501,0.045375,-0.011625,0.042,-0.02835075,0.033691503,-0.024932751,1741898512.919987
0.07075,-0.03525,0.07125,0.0009155,0.0386505,0.01463325,0.046,-0.019625,0.03375,-0.03291325,0.032074,-0.02955625,1741898512.928877
0.07525,-0.032125,0.06025,-0.0003205,0.034118753,0.02297975,0.042375,-0.031625,0.0285,-0.039367747,0.02610775,-0.036499,1741898512.943529
0.080125,-0.014375,0.036,-0.0012055,0.03079225,0.026519751,0.03,-0.0715,0.01825,-0.042923,0.02253725,-0.038208,1741898512.959381
0.081625,-0.004375,0.022375,-0.00216675,0.02171325,0.030853251,0.02575,-0.087875,0.020125,-0.0470885,0.018310498,-0.038330004,1741898512.972901
0.084875,0.014125,0.00125,-0.002243,0.0157165,0.0319215,0.02225,-0.0975,0.0265,-0.054870497,0.00817875,-0.03636175,1741898512.9876149
0.085125,0.02275,-0.004625,-0.0021515,0.00897225,0.03237925,0.013375,-0.112625,0.04975,-0.059600748,0.00242625,-0.03524775,1741898513.00243
0.078125,0.03575,-0.006875,-0.00131225,-0.0056,0.0318145,0.0095,-0.124625,0.064625,-0.065322995,-0.0069580004,-0.031265248,1741898513.019341
0.06975,0.042375,0.001,-0.000534,-0.0129700005,0.03105175,0.010875,-0.136375,0.09125,-0.0634765,-0.009719751,-0.02790825,1741898513.031777
0.05775,0.051125,0.015375,0.0012207499,-0.026092501,0.0280915,0.01725,-0.12175,0.106625,-0.050964247,-0.014510999,-0.019042999,1741898513.046819
0.025125,0.0795,0.04975,0.00245675,-0.03123475,0.025268499,0.03775,-0.07175,0.124,-0.041961752,-0.01675425,-0.014343251,1741898513.0614998
0.007875,0.0955,0.067,0.006546,-0.038314752,0.017212,0.043125,-0.054875,0.1175,-0.024063,-0.02330025,-0.007553,1741898513.08076
-0.016875,0.123625,0.0945,0.00953675,-0.0401305,0.01278675,0.017875,-0.062625,0.108125,-0.01782225,-0.02746575,-0.0041504996,1741898513.0910661
-0.022875,0.130875,0.104375,0.01358025,-0.041031,0.00289925,-0.0,-0.07175,0.11125,-0.0056,-0.0317535,0.008590749,1741898513.105797
-0.020875,0.100625,0.125875,0.013793999,-0.039688,-0.00157175,-0.002,-0.08,0.115375,0.0045165,-0.031311,0.01670825,1741898513.122496
-0.01725,0.075375,0.139375,0.01374825,-0.037201,-0.0041810004,0.007375,-0.086875,0.116625,0.02677925,-0.02908325,0.0280915,1741898513.138717
-0.017625,0.061375,0.152875,0.014938249,-0.03019725,-0.00570675,0.0215,-0.092,0.1275,0.03395075,-0.02864075,0.03094475,1741898513.149739
-0.019875,0.071875,0.144625,0.014785751,-0.026702998,-0.007431,0.024125,-0.08875,0.138375,0.04167175,-0.02946475,0.0333405,1741898513.164293
-0.02325,0.080625,0.145625,0.009903,-0.0220185,-0.01339725,0.02325,-0.080625,0.16225,0.04467775,-0.029907249,0.033905,1741898513.178936
-0.02,0.05625,0.162,0.00708,-0.019455,-0.01593025,0.02225,-0.081875,0.17025,0.049469,-0.0285035,0.035675,1741898513.193411
-0.01375,0.045875,0.171625,0.001068,-0.012741,-0.01708975,0.022125,-0.08975,0.18375,0.0500945,-0.02610775,0.037033,1741898513.2080052
0.000625,0.056125,0.19275,-0.002365,-0.009369001,-0.01747125,0.020875,-0.089625,0.19025,0.048522998,-0.02224725,0.038025003,1741898513.222513
0.0065,0.0675,0.212625,-0.008316,-0.0016785001,-0.020324752,0.020375,-0.086125,0.1935,0.04043575,-0.010559,0.0382995,1741898513.23985
0.01275,0.0795,0.212625,-0.009903,0.0038757501,-0.02238475,0.013625,-0.07575,0.192875,0.034362752,-0.0045777503,0.037597753,1741898513.251926
0.017375,0.065125,0.203875,-0.010498,0.009262,-0.02442925,0.009125,-0.064625,0.188625,0.0233155,0.00773625,0.0351715,1741898513.26631
0.02675,0.027625,0.1965,-0.00968925,0.0180665,-0.02592475,0.009125,-0.039,0.170375,0.020782499,0.013412501,0.03364575,1741898513.280799
0.029,0.01875,0.19075,-0.00845325,0.022338752,-0.02503975,0.0145,-0.028625,0.155875,0.0194245,0.0217285,0.02996825,1741898513.299689
0.0305,0.005625,0.18025,-0.0042572496,0.032196,-0.021408001,0.026625,-0.0195,0.127875,0.01829525,0.024261499,0.027557248,1741898513.309896
0.034875,-0.022625,0.15475,-0.002777,0.03668225,-0.018020751,0.03125,-0.015,0.11875,0.01368725,0.0279235,0.021026501,1741898513.324306
0.03875,-0.03025,0.141875,-0.0025634998,0.0424805,-0.0104674995,0.037625,-0.003875,0.102125,0.0110932505,0.029373249,0.0169525,1741898513.338985
0.04875,-0.035375,0.114875,-0.0029755002,0.04403675,-0.0066374997,0.041625,0.001375,0.091,0.00640875,0.031188998,0.00764475,1741898513.353448
0.057,-0.02975,0.09975,-0.0048217503,0.04451,0.00074775,0.0495,0.00575,0.06975,0.0045165,0.03141775,0.0025787498,1741898513.367711
0.070875,-0.012625,0.074875,-0.0061950004,0.043213002,0.0035095,0.051,0.002375,0.05925,0.00279225,0.030899,-0.00251775,1741898513.382188
0.071875,-0.0065,0.067625,-0.00737,0.041153,0.0057525,0.051,-0.002625,0.05025,-0.00228875,0.026947001,-0.011764499,1741898513.400189
0.069875,-0.00275,0.064,-0.007431,0.03692625,0.0102235,0.04625,-0.007875,0.04375,-0.006546,0.025115998,-0.01628125,1741898513.411731
0.06875,0.000625,0.05675,-0.005844,0.035461497,0.012680001,0.04625,-0.011625,0.03875,-0.017212,0.024231002,-0.0266265,1741898513.4262881
0.072,0.003125,0.0505,-0.00177,0.032287497,0.017578252,0.046125,-0.023,0.027875,-0.022583,0.02259825,-0.0315095,1741898513.4409778
0.078125,0.01475,0.03125,0.000122000005,0.02993775,0.019775499,0.043125,-0.03275,0.020375,-0.031265248,0.016021749,-0.038498,1741898513.4592488
0.0805,0.02,0.020875,0.0034790002,0.0231475,0.022812,0.030125,-0.066375,0.001875,-0.03556825,0.0122375,-0.040283248,1741898513.470332
0.08525,0.026375,0.002875,0.004837,0.018692,0.023773251,0.0265,-0.081875,-0.003,-0.0432435,0.0032655,-0.040039003,1741898513.485051
0.08775,0.029375,-0.004375,0.0059205,0.013443,0.024536248,0.016375,-0.1085,0.018125,-0.04537975,-0.0029755002,-0.03889475,1741898513.49981
0.088875,0.03275,-0.008375,0.0067597497,0.00071725,0.02525325,0.004125,-0.122375,0.044875,-0.049286,-0.014510999,-0.035034247,1741898513.5203252
0.0825,0.043875,-0.0015,0.0062712496,-0.0063477503,0.0249175,-0.016625,-0.154125,0.084375,-0.051071253,-0.01719675,-0.03208925,1741898513.529495
0.07325,0.05375,0.008375,0.00369275,-0.020279,0.022094749,-0.01375,-0.152875,0.089125,-0.04837025,-0.020629998,-0.023681749,1741898513.544416
0.046875,0.0735,0.03375,0.002533,-0.02661125,0.01953125,0.016375,-0.080625,0.07625,-0.0427705,-0.023224002,-0.0199585,1741898513.560579
0.03375,0.08075,0.048625,0.0031889998,-0.0358125,0.0138855,0.00975,-0.07025,0.09075,-0.024108998,-0.032287497,-0.011688249,1741898513.573835
0.0205,0.081125,0.0785,0.0054015,-0.0379945,0.01156625,-0.026875,-0.09925,0.139625,-0.012420749,-0.034195,-0.0043182503,1741898513.5887842
0.017625,0.080875,0.094125,0.0081025,-0.03901675,0.00985725,-0.0245,-0.10875,0.14925,0.008148249,-0.03059375,0.010391249,1741898513.603515
0.013125,0.085375,0.105875,0.012039251,-0.038742002,0.0069580004,0.00925,-0.124375,0.148875,0.016739,-0.028473,0.01622,1741898513.6183438
-0.00025,0.099625,0.12,0.013702501,-0.03768925,0.0049285004,0.021125,-0.12925,0.143375,0.02955625,-0.02622975,0.024704,1741898513.6329558
-0.006125,0.107,0.12875,0.0187835,-0.0347595,-0.0009155,0.0245,-0.1315,0.134375,0.03338625,-0.02572625,0.02757275,1741898513.647736
-0.010125,0.10725,0.14725,0.020477248,-0.0328065,-0.0049895,0.01875,-0.1295,0.13825,0.03471375,-0.024704,0.0326995,1741898513.662102
-0.00925,0.095375,0.15625,0.023071252,-0.0267945,-0.0122985,0.00775,-0.109125,0.1585,0.032837003,-0.022796748,0.03489675,1741898513.67872
0.0045,0.069125,0.15275,0.02342225,-0.023071252,-0.01440425,0.007375,-0.097,0.168125,0.030746501,-0.019027751,0.036438,1741898513.691127
0.01225,0.06725,0.139875,0.020996,-0.020523,-0.0160065,0.008,-0.0875,0.175,0.02961725,-0.00982675,0.03778075,1741898513.705627
0.008125,0.058,0.143875,0.011673001,-0.01956175,-0.020355249,0.003,-0.078125,0.18325,0.0301665,-0.00593575,0.038055502,1741898513.720109
0.002375,0.04725,0.161875,0.0068055,-0.01893625,-0.0222625,0.001,-0.075125,0.1835,0.02851875,0.0025787498,0.037674,1741898513.7392619
0.0005,0.045,0.18125,-0.0002135,-0.01412975,-0.0237885,0.00675,-0.061875,0.173375,0.024993999,0.00782775,0.036789,1741898513.749192
0.008375,0.065375,0.18625,-0.00302125,-0.010437001,-0.02445975,0.01225,-0.05,0.162,0.01519775,0.01864625,0.03323375,1741898513.763979
0.014125,0.060875,0.1865,-0.00646975,-0.00292975,-0.026245002,0.021625,-0.030125,0.127125,0.011169501,0.022812,0.03059375,1741898513.779211
0.018375,0.045125,0.203375,-0.00643925,0.00143425,-0.02645875,0.02675,-0.025,0.110625,0.00541675,0.0274505,0.0245515,1741898513.793014
0.0195,0.03375,0.211875,-0.0065917503,0.013000499,-0.02711475,0.036,-0.010625,0.0935,0.00331125,0.0283965,0.021026501,1741898513.807551
0.02925,-0.0085,0.205,-0.0056,0.020279,-0.0256195,0.0405,-0.00225,0.089875,0.001068,0.02967825,0.012542751,1741898513.82204
0.034125,-0.022,0.191625,-0.00381475,0.027740499,-0.021927001,0.0535,0.011375,0.08125,0.00083925005,0.030075,0.0076295,1741898513.840215
0.036875,-0.027,0.17375,-0.0012817499,0.04119875,-0.012115501,0.05725,0.009125,0.074,0.0009765,0.0300445,0.0024414998,1741898513.850943
0.04675,-0.02825,0.1255,-0.00070200005,0.04599,-0.00782775,0.057,0.0005,0.06425,-0.0001525,0.02772525,-0.0073547503,1741898513.865458
0.05575,-0.026125,0.1005,-9.15e-05,0.04907225,-0.00119025,0.04975,-0.016,0.045625,-0.00276175,0.02563475,-0.011673001,1741898513.880001
0.069125,-0.024375,0.064875,-0.00036625,0.04765325,0.00146475,0.046875,-0.019875,0.039125,-0.01266475,0.023528999,-0.020691,1741898513.899761
0.073,-0.027375,0.053375,-0.0022125002,0.042297248,0.0073242504,0.050625,-0.02175,0.024125,-0.018707251,0.022643998,-0.02534475,1741898513.909687
0.081375,-0.032,0.0365,-0.00343325,0.038803,0.0110015,0.0515,-0.02275,0.016875,-0.02879325,0.01705925,-0.033325247,1741898513.9242082
0.085125,-0.02775,0.03175,-0.00561525,0.03059375,0.01852425,0.041,-0.041875,0.004875,-0.0332185,0.013427749,-0.036560003,1741898513.939638
0.08825,-0.009875,0.026625,-0.00637825,0.026352,0.021560749,0.034625,-0.05975,0.000125,-0.039367747,0.0048065,-0.038955748,1741898513.9540942
0.087875,-0.0005,0.022125,-0.0070495,0.0220795,0.023925751,0.0175,-0.099125,0.013125,-0.040863,-0.00112925,-0.03787225,1741898513.968299
0.087125,0.008625,0.015125,-0.00767525,0.012542751,0.0269165,0.0045,-0.116,0.038625,-0.04537975,-0.0127105,-0.03370675,1741898513.9830241
0.08475,0.026625,0.004625,-0.007019,0.0070342496,0.0276185,-0.0185,-0.152,0.085375,-0.049408,-0.01560975,-0.03129575,1741898513.999289
0.081875,0.03325,0.0035,-0.0034942501,-0.00419625,0.028,-0.02175,-0.1655,0.098375,-0.057006747,-0.018020751,-0.02409375,1741898514.012794
0.06875,0.051125,0.007875,-0.00096125,-0.00968925,0.027893,-0.003875,-0.122625,0.123625,-0.057327252,-0.0180665,-0.02041625,1741898514.027534
0.05975,0.061625,0.014625,0.0039215,-0.02076725,0.025421249,0.01275,-0.078125,0.1245,-0.04597475,-0.01658625,-0.015564,1741898514.042309
0.0365,0.08825,0.038375,0.0059205,-0.026519751,0.02256775,0.004375,-0.060875,0.13175,-0.0365295,-0.01914975,-0.01193225,1741898514.061242
0.024375,0.09525,0.053875,0.00798025,-0.03179925,0.018615749,-0.0165,-0.065625,0.15425,-0.015090999,-0.020996,0.0016175,1741898514.071938
0.0165,0.091375,0.069125,0.013488751,-0.03842175,0.011169501,-0.00575,-0.066,0.153625,-0.00225825,-0.017395,0.008865249,1741898514.0867589
0.013125,0.068625,0.0965,0.0153655,-0.03974925,0.00941475,0.017125,-0.07525,0.13975,0.02787775,-0.014938249,0.021362249,1741898514.1029959
0.0115,0.065875,0.10825,0.01425175,-0.040268,0.009140001,0.03325,-0.089,0.130875,0.04144275,-0.015533499,0.02412425,1741898514.118939
0.002625,0.079375,0.12,0.011901749,-0.039978,0.00852975,0.029875,-0.093625,0.13075,0.0521545,-0.016448999,0.02445975,1741898514.130351
-0.002375,0.084125,0.124375,0.008224499,-0.0390625,0.0039215,0.027,-0.098625,0.132625,0.06251525,-0.020218,0.02424625,1741898514.1449568
-0.01525,0.09775,0.130375,0.007187,-0.037963748,0.00035100002,0.02175,-0.106,0.148875,0.06283575,-0.020782499,0.02545175,1741898514.159446
-0.022375,0.107875,0.12775,0.0063325,-0.03639225,-0.0038605002,0.018875,-0.105875,0.15675,0.0568695,-0.01251225,0.02861025,1741898514.179623
-0.033375,0.10225,0.14875,0.00643925,-0.03259275,-0.0125885,0.02425,-0.093125,0.155125,0.053283747,-0.007019,0.0301665,1741898514.188619
-0.032375,0.085,0.168375,0.0075835,-0.029007,-0.01548775,0.0285,-0.08425,0.151125,0.04904175,-0.00071725,0.03190625,1741898514.203139
-0.025625,0.069125,0.186625,0.009216251,-0.017852752,-0.01661675,0.034,-0.080125,0.13775,0.0463105,0.0017395001,0.0313415,1741898514.219611
-0.003125,0.0625,0.208,0.008133001,-0.011673001,-0.01620475,0.0365,-0.081,0.127125,0.033661,0.0077515002,0.0291595,1741898514.232193
0.00725,0.0695,0.214125,0.0020905002,-0.00083925005,-0.017334,0.036875,-0.066875,0.10675,0.02572625,0.0103455,0.027771,1741898514.246795
0.018,0.0885,0.2145,-0.001114,0.004303,-0.019394,0.03475,-0.059,0.099875,0.013122501,0.01408375,0.023650998,1741898514.2612731
0.019125,0.091875,0.19875,-0.004303,0.013549751,-0.025528,0.03575,-0.046125,0.09225,0.0088805,0.01570125,0.02095025,1741898514.282315
0.022375,0.06675,0.169625,-0.00384525,0.0168305,-0.02832025,0.0405,-0.038625,0.086875,0.005783,0.01731875,0.01782225,1741898514.2902431
0.023375,0.04675,0.16425,-0.00064075,0.02278125,-0.03009025,0.046,-0.031875,0.07925,0.0025634998,0.019134501,0.010528499,1741898514.3051672
0.02675,0.007375,0.153625,0.00137325,0.02613825,-0.02879325,0.0495,-0.035,0.064875,0.00102225,0.019333,0.00646975,1741898514.320308
0.030375,-0.007375,0.147,0.0031889998,0.029724,-0.026122998,0.04775,-0.040375,0.06125,-0.0063325,0.020324752,-0.001419,1741898514.340148
0.0435,-0.033,0.124875,0.004486,0.036804248,-0.01879875,0.04775,-0.0405,0.057625,-0.012115501,0.021347,-0.0054015,1741898514.3485818
0.051,-0.0385,0.110625,0.0037385002,0.03907775,-0.014572251,0.048875,-0.036875,0.056375,-0.0269165,0.02357475,-0.01374825,1741898514.3632472
0.058,-0.037375,0.097,0.000534,0.039810248,-0.0062255003,0.048375,-0.0365,0.04375,-0.035553,0.025055,-0.018188499,1741898514.38027
0.068,-0.029625,0.079375,-0.00115975,0.038757253,-0.002777,0.049375,-0.038625,0.030875,-0.050949,0.02503975,-0.02592475,1741898514.392721
0.068625,-0.028625,0.074375,-0.0033722501,0.03578175,0.0037385002,0.04975,-0.041125,0.01675,-0.0564575,0.02259825,-0.028854249,1741898514.40725
0.069125,-0.024875,0.06425,-0.0033875,0.03424075,0.00747675,0.047875,-0.04625,0.017375,-0.06279,0.015274,-0.033462502,1741898514.421887
0.071625,-0.019375,0.058125,-0.00160225,0.030853251,0.0153807495,0.034375,-0.07125,0.028875,-0.0646515,0.010666001,-0.03459175,1741898514.439455
0.078,-0.0045,0.0435,-0.00048825,0.028656,0.01896675,0.021375,-0.089125,0.0415,-0.068573,-0.00090025004,-0.03244025,1741898514.451298
0.08,0.0025,0.03475,0.0003815,0.025879,0.022033751,-0.007625,-0.1225,0.0805,-0.07086175,-0.0060577504,-0.02977,1741898514.4660978
0.08125,0.009125,0.025,0.0015105,0.0180665,0.026474,-0.01425,-0.128125,0.0985,-0.07374575,-0.01092525,-0.024231002,1741898514.481065
0.08475,0.0225,0.008,0.00204475,0.012847999,0.027740499,-0.0035,-0.108375,0.122,-0.0720215,-0.011031999,-0.0215455,1741898514.499413
0.0855,0.0305,0.003125,0.00317375,0.00013725001,0.02822875,0.00925,-0.0855,0.130125,-0.05941775,-0.01098625,-0.0144805005,1741898514.5109189
0.0785,0.050125,0.008125,0.0038605002,-0.006668,0.02737425,0.023,-0.067625,0.1325,-0.05052175,-0.01322925,-0.010162249,1741898514.525611
0.071125,0.0595,0.01475,0.0063934997,-0.019897498,0.023407,0.019875,-0.066625,0.126625,-0.042099,-0.016845752,-0.0051574996,1741898514.54048
0.04225,0.097375,0.04425,0.008788999,-0.026062,0.020141501,0.01,-0.043,0.11925,-0.025421249,-0.022338752,0.00662225,1741898514.5549152
0.023125,0.1205,0.0645,0.0124665005,-0.03105175,0.015594499,0.008625,-0.031875,0.122625,-0.012832751,-0.023650998,0.013702501,1741898514.5696168
0.00825,0.1325,0.0865,0.023224002,-0.035431,0.003296,0.00825,-0.028625,0.128625,0.02088925,-0.025360001,0.02616875,1741898514.584113
-0.004125,0.102875,0.12975,0.026657,-0.034652747,-0.00238025,0.005375,-0.049625,0.137,0.036300752,-0.025543248,0.0296325,1741898514.598678
-0.001625,0.077625,0.144125,0.0251465,-0.028747499,-0.0062712496,0.00725,-0.06125,0.138625,0.05738825,-0.026413,0.033752497,1741898514.6131258
0.0165,0.041875,0.1495,0.02330025,-0.025543248,-0.0052642496,0.00825,-0.086125,0.153375,0.06513975,-0.02854925,0.0346985,1741898514.62765
0.021375,0.045875,0.1505,0.0177155,-0.0224,-0.0049285004,0.005,-0.09525,0.167875,0.07598875,-0.03141775,0.035873502,1741898514.6421618
0.019,0.072625,0.15025,0.0141145,-0.021347,-0.0078735,0.004125,-0.1105,0.1895,0.078308,-0.0302735,0.03701775,1741898514.659915
0.01725,0.08,0.14875,0.0075072497,-0.019027751,-0.0168,0.005,-0.118375,0.192375,0.0755615,-0.02238475,0.04068,1741898514.671131
0.019875,0.0675,0.132375,0.00924675,-0.01716625,-0.0206145,0.011125,-0.122125,0.183875,0.070633,-0.01593025,0.04261775,1741898514.685638
0.021375,0.0555,0.12975,0.010604749,-0.0162505,-0.02268975,0.0145,-0.11475,0.173125,0.05526725,-0.00355525,0.044875998,1741898514.700078
0.01775,0.046,0.138375,0.00308225,-0.015518251,-0.024108998,0.0085,-0.1015,0.154125,0.04544075,0.00131225,0.045578,1741898514.719161
0.010125,0.015625,0.147125,-0.00239575,-0.0139770005,-0.0235595,0.01,-0.08475,0.142875,0.035339247,0.0059205,0.046524,1741898514.7290812
0.010875,0.00525,0.15275,-0.01445,-0.010589501,-0.0198365,0.013625,-0.068875,0.13475,0.019226,0.013290499,0.045868002,1741898514.743568
0.01425,0.02075,0.175375,-0.01991275,-0.00880425,-0.018127501,0.020875,-0.04675,0.12475,0.012985251,0.01643375,0.0440215,1741898514.7587452
0.017125,0.039,0.190625,-0.019775499,-0.0015105,-0.018707251,0.02525,-0.039375,0.1215,0.0028229998,0.02268975,0.0390625,1741898514.772584
0.0315,0.034,0.197,-0.0154725,0.0041044997,-0.02000425,0.032625,-0.0275,0.115125,-4.575e-05,0.025528,0.03627025,1741898514.787241
0.0385,0.023875,0.19775,-0.010727,0.0158845,-0.019195499,0.036,-0.02175,0.110375,-0.00137325,0.0302735,0.029892,1741898514.801856
0.044375,0.0035,0.175875,-0.010666001,0.021942249,-0.01664725,0.045875,-0.001875,0.095625,-0.0023497501,0.03262325,0.02565,1741898514.8196712
0.04425,0.001375,0.1605,-0.01004025,0.027481,-0.0133667495,0.054,0.0135,0.08325,-0.00491325,0.035965,0.014328,1741898514.830843
0.0445,-0.000875,0.145125,-0.0058287503,0.036148,-0.00782775,0.0705,0.034625,0.056625,-0.005539,0.036209,0.0072785,1741898514.8453498
0.053875,-0.0095,0.114375,-0.0038757501,0.03869625,-0.0058287503,0.074,0.0315,0.0435,-0.0062255003,0.033508252,-0.0074004997,1741898514.859838
0.0595,-0.018875,0.100625,-0.00402825,0.038849,-0.001892,0.07625,0.01025,0.020125,-0.007187,0.029846251,-0.01358025,1741898514.874702
0.067375,-0.023375,0.078125,-0.0061339997,0.037094,0.00131225,0.07325,-0.00025,0.015125,-0.009384249,0.0250245,-0.0186615,1741898514.88903
0.071625,-0.016125,0.070375,-0.01036075,0.031967252,0.00773625,0.067,-0.00675,0.014125,-0.01968375,0.018631,-0.028778,1741898514.903761
0.07625,-0.0085,0.0625,-0.01210025,0.029220501,0.0101165,0.061375,-0.01825,0.000375,-0.026519751,0.017120251,-0.03459175,1741898514.91948
0.07625,-0.00575,0.059875,-0.01310725,0.02449025,0.01498425,0.052125,-0.022875,0.00375,-0.04312125,0.011078,-0.044051997,1741898514.933035
0.075625,0.004875,0.054125,-0.01278675,0.022583,0.01741025,0.03175,-0.06275,-0.014875,-0.052368253,0.012329,-0.047530998,1741898514.9479492
0.07475,0.011,0.04925,-0.0124665005,0.02079775,0.0195465,0.0245,-0.0905,-0.027375,-0.062683,0.0045012496,-0.04638675,1741898514.962623
0.07425,0.01625,0.042875,-0.0112915,0.016570998,0.0228425,-0.002375,-0.136125,0.01375,-0.06773375,-0.004486,-0.04255675,1741898514.979764
0.07525,0.02425,0.02525,-0.01077275,0.013564999,0.02409375,-0.017,-0.150125,0.045875,-0.085144,-0.0159455,-0.03506475,1741898514.992246
0.076,0.030125,0.016375,-0.0075682504,0.00494375,0.02613825,-0.020125,-0.174625,0.081625,-0.09404,-0.018448,-0.03141775,1741898515.007212
0.078,0.04125,0.0075,-0.00564575,-0.00036625,0.0266265,-0.003875,-0.1525,0.093625,-0.09443675,-0.022812,-0.021041749,1741898515.022052
0.0775,0.045375,0.0085,-0.0019685,-0.0114744995,0.026840251,0.027125,-0.03925,0.135875,-0.0824585,-0.02262875,-0.01678475,1741898515.04125
0.0715,0.04875,0.017375,0.00051875,-0.0166625,0.02674875,0.0315,-0.0205,0.1295,-0.051513746,-0.021881001,-0.0077667497,1741898515.051533
0.06225,0.0575,0.0285,0.00390625,-0.021469,0.026519751,0.006,-0.00625,0.14875,-0.036804248,-0.026886,-0.00131225,1741898515.0663612
0.03125,0.10175,0.048875,0.013290499,-0.02896125,0.02359,-0.007875,-0.011,0.168875,-0.0061035,-0.02810675,0.013290499,1741898515.081058
0.013625,0.133,0.0555,0.019287001,-0.032394502,0.019470248,0.0135,-0.06725,0.142125,0.012832751,-0.0257415,0.02339175,1741898515.099534
-0.00325,0.1555,0.0655,0.0317535,-0.039367747,0.0056915004,0.0225,-0.085375,0.128875,0.05001825,-0.0310975,0.0338745,1741898515.110166
-0.01625,0.128875,0.097625,0.03721625,-0.0405425,-0.00093075,0.016375,-0.1015,0.14225,0.06248475,-0.0351105,0.0310975,1741898515.125099
-0.0085,0.099125,0.1155,0.0417785,-0.037704498,-0.0069885002,0.0135,-0.1045,0.161625,0.071869,-0.036239497,0.02687075,1741898515.1396182
0.00025,0.05925,0.163875,0.040145747,-0.03530875,-0.0075225,0.00975,-0.108,0.196125,0.07185375,-0.03323375,0.02769475,1741898515.159661
-0.005875,0.059375,0.182875,0.0328675,-0.028183,-0.00947575,0.00375,-0.113875,0.209625,0.07067875,-0.02742,0.0302735,1741898515.168455
-0.014375,0.077375,0.19575,0.026855499,-0.023803748,-0.012847999,0.003125,-0.11125,0.210625,0.061569247,-0.010086001,0.037201,1741898515.183048
-0.006875,0.081375,0.187875,0.0182495,-0.0148315,-0.0211945,0.0115,-0.082125,0.191625,0.056289747,-0.0047302498,0.03948975,1741898515.199971
0.01775,0.064,0.15975,0.01753225,-0.011321999,-0.02427675,0.013375,-0.072,0.17875,0.051818747,0.00112925,0.04245,1741898515.212049
0.025,0.05025,0.150875,0.0168915,-0.008926501,-0.026245002,0.01175,-0.07025,0.157,0.048584,0.004242,0.042419497,1741898515.226624
0.022625,0.040125,0.159875,0.008651749,-0.00671375,-0.02746575,0.01375,-0.0655,0.1465,0.028946,0.015457249,0.037552,1741898515.2411048
0.000875,0.013,0.181,0.0019989999,-0.00411975,-0.02630625,0.03125,-0.0285,0.117,0.01882925,0.020629998,0.03479,1741898515.259306
-0.005125,-0.0005,0.17925,-0.013382,0.0028074998,-0.02153025,0.039125,-0.007625,0.10775,0.008545,0.024688749,0.02838125,1741898515.270241
-0.001875,0.008625,0.200875,-0.020629998,0.0059205,-0.019592252,0.052875,0.016125,0.091125,0.00631725,0.0257415,0.023178,1741898515.284765
0.00825,0.0145,0.204375,-0.018280001,0.016296498,-0.019699,0.057375,0.017625,0.085625,0.0072632497,0.02592475,0.0112305,1741898515.299884
0.034875,-0.00075,0.18475,-0.016983,0.0224305,-0.01864625,0.05575,0.003,0.075125,0.008712751,0.02565,0.00555425,1741898515.3196192
