L-AccX,L-AccY,L-AccZ,L-GyrX,L-GyrY,L-GyrZ,R-AccX,R-AccY,R-AccZ,R-GyrX,R-GyrY,R-GyrZ,timestamp
-0.011,0.120875,-0.0105,0.00067150005,-0.000534,0.00035100002,-0.001125,-0.036,0.124375,0.0012665,-0.00033575002,-0.001114,1741897835.359925
-0.011,0.120625,-0.012125,0.00070200005,-0.00016775,0.00033575002,-0.005,-0.036875,0.124,0.00108325,-0.0001525,-0.0014495,1741897835.372061
-0.011125,0.120625,-0.0125,0.00071725,9.15e-05,0.0003815,-0.007875,-0.037625,0.123125,0.0007325,0.000183,-0.0017395001,1741897835.38643
-0.011625,0.12075,-0.012875,0.0005645,0.00042725,0.00054925,-0.0135,-0.034125,0.12325,0.0005035,0.00013725001,-0.0018005001,1741897835.401184
-0.01225,0.120625,-0.014375,0.000412,0.00051875,0.00067150005,-0.017,-0.02975,0.12625,0.00067150005,0.00039675,-0.0024872501,1741897835.415869
-0.012375,0.12075,-0.01525,0.00013725001,0.00054925,0.00105275,-0.030875,-0.027375,0.14,0.001236,0.00108325,-0.0029755002,1741897835.430563
-0.012625,0.121625,-0.016625,9.15e-05,0.0005035,0.001175,-0.041,-0.02825,0.1465,0.00238025,0.0047607496,-0.00320425,1741897835.445225
-0.013,0.12225,-0.017,7.625e-05,0.00035100002,0.00131225,-0.044125,-0.0125,0.148875,0.002655,0.00770575,-0.0035704998,1741897835.459896
-0.01425,0.1235,-0.0165,7.625e-05,0.000229,0.0013275,-0.0345,-0.005375,0.145,0.004593,0.01402275,-0.0056304997,1741897835.474561
-0.01475,0.123625,-0.016,3.0500001e-05,9.15e-05,0.0013275,-0.01625,0.00625,0.137875,0.0062865,0.016296498,-0.00741575,1741897835.49248
-0.015125,0.123625,-0.0155,-0.0001525,-0.0002135,0.00131225,-0.0135,0.00675,0.13525,0.010559,0.0185395,-0.012252751,1741897835.503785
-0.01475,0.123875,-0.014875,-0.00024425,-0.00036625,0.00125125,-0.00975,-0.00975,0.12825,0.0122375,0.01908875,-0.01425175,1741897835.51838
-0.014375,0.124,-0.014625,-0.0001525,-0.00051875,0.00108325,-0.00525,-0.020125,0.12625,0.013000499,0.0194855,-0.01564025,1741897835.533215
-0.014125,0.124,-0.014125,-1.5250001e-05,-0.00051875,0.001007,0.003375,-0.03325,0.1255,0.01171875,0.020111,-0.017852752,1741897835.550308
-0.014125,0.124,-0.01425,0.00024425,-0.00048825,0.000885,0.0045,-0.036125,0.124875,0.0101165,0.0203705,-0.01914975,1741897835.5622962
-0.0145,0.124,-0.01375,0.00033575002,-0.000473,0.00080875,0.00375,-0.039625,0.12225,0.0065612504,0.021103,-0.021453751,1741897835.576787
-0.01475,0.12375,-0.013125,0.0004425,-0.000412,0.00067150005,0.002625,-0.0545,0.110125,0.0049590003,0.021469,-0.02186575,1741897835.5913012
-0.01475,0.123125,-0.01225,0.00045775,-0.00036625,0.00064075,0.005125,-0.064125,0.10425,0.001526,0.021606501,-0.0209655,1741897835.609714
-0.01475,0.12275,-0.011875,0.00051875,-0.00019825,0.00057975,0.015125,-0.08575,0.100125,-0.00045775,0.0213775,-0.01994325,1741897835.620492
-0.014875,0.122625,-0.012,0.0005645,-9.15e-05,0.00054925,0.01975,-0.093875,0.10225,-0.0040587503,0.020782499,-0.017105,1741897835.635092
-0.015,0.122875,-0.01225,0.00059500005,0.0,0.000534,0.0225,-0.1055,0.10475,-0.005066,0.02056875,-0.01567075,1741897835.650406
-0.015125,0.123125,-0.0125,0.00061025,0.00016775,0.00051875,0.02125,-0.1135,0.100625,-0.006073,0.02006525,-0.01210025,1741897835.664505
-0.015375,0.12325,-0.01325,0.00062550005,0.000183,0.00051875,0.0235,-0.139875,0.083125,-0.00662225,0.019592252,-0.009094249,1741897835.679219
-0.015375,0.123,-0.013125,0.00054925,9.15e-05,0.00045775,0.028,-0.152875,0.074625,-0.0070037497,0.01678475,0.00093075,1741897835.693853
-0.01575,0.1225,-0.012375,0.000473,1.5250001e-05,0.00042725,0.031,-0.15475,0.072875,-0.0063325,0.014267,0.0070647504,1741897835.710834
-0.015625,0.122125,-0.012125,0.0002595,-9.15e-05,0.0003815,0.027375,-0.145125,0.078625,-0.00485225,0.0115815,0.01301575,1741897835.7231889
-0.0155,0.122375,-0.01175,0.00010675,-0.0001525,0.00036625,0.02,-0.12875,0.083375,0.0005035,0.007309,0.024261499,1741897835.737765
-0.01525,0.1225,-0.01175,-0.000122000005,-0.000122000005,0.00027475,0.019875,-0.12475,0.07875,0.0041504996,0.0054015,0.029754749,1741897835.752225
-0.015,0.123,-0.012,-0.00013725001,-3.0500001e-05,0.0002135,0.0215,-0.12225,0.073375,0.010894749,0.00062550005,0.0396575,1741897835.769802
-0.01475,0.123125,-0.01225,-0.000122000005,9.15e-05,0.0001525,0.022,-0.110125,0.06875,0.01260375,-0.00198375,0.0439605,1741897835.781333
-0.014375,0.123,-0.01275,1.5250001e-05,0.00035100002,3.0500001e-05,0.020625,-0.100125,0.06975,0.01307675,-0.0067445002,0.051330503,1741897835.795777
-0.013375,0.122625,-0.0135,0.000122000005,0.0004425,-1.5250001e-05,0.016125,-0.0775,0.071625,0.01307675,-0.009002751,0.054397497,1741897835.8102982
-0.013125,0.122375,-0.01375,0.0002595,0.00042725,-9.15e-05,0.014375,-0.064125,0.074,0.0153655,-0.01402275,0.05882275,1741897835.824866
-0.013,0.12175,-0.01425,0.00029,0.00033575002,-7.625e-05,0.010375,-0.036875,0.08925,0.0177155,-0.01651,0.06007375,1741897835.8395588
-0.012875,0.121375,-0.014625,0.00033575002,6.1000002e-05,4.575e-05,0.008875,-0.025375,0.1,0.021179251,-0.01985175,0.06044,1741897835.854204
-0.013,0.121125,-0.015375,0.00036625,-0.000122000005,0.00010675,0.010375,-0.00475,0.11325,0.021103,-0.0204925,0.059143003,1741897835.869865
-0.013375,0.121,-0.015375,0.00036625,-0.00051875,0.0002595,0.012125,0.00625,0.117,0.018631,-0.02079775,0.053542998,1741897835.88321
-0.013875,0.121125,-0.0155,0.00030525,-0.0007325,0.000412,0.008125,0.037875,0.144125,0.01681525,-0.02026375,0.049179003,1741897835.897815
-0.014375,0.121375,-0.015,0.0002135,-0.0009155,0.0005645,0.003625,0.0575,0.168,0.01452625,-0.01823425,0.043716498,1741897835.912203
-0.014625,0.1215,-0.01425,0.00010675,-0.001114,0.0007935,0.003,0.077625,0.186875,0.0104674995,-0.008545,0.0296325,1741897835.931838
-0.015125,0.12175,-0.013125,7.625e-05,-0.0011445,0.000885,0.0115,0.098,0.192,0.00947575,-0.0030975002,0.021103,1741897835.941238
-0.015125,0.122125,-0.013,-6.1000002e-05,-0.00115975,0.00090025004,0.0165,0.099125,0.18125,0.00842275,0.0052337497,0.00419625,1741897835.955606
-0.015625,0.122625,-0.012375,-0.00010675,-0.00119025,0.00080875,0.0215,0.095625,0.15925,0.00741575,0.007904,-0.0035095,1741897835.9718442
-0.016,0.12275,-0.012,-9.15e-05,-0.001236,0.00061025,0.0185,0.08675,0.153,0.0036010002,0.011810251,-0.017120251,1741897835.984861
-0.01625,0.122625,-0.011,-9.15e-05,-0.0012055,0.0005645,0.00975,0.0595,0.14775,0.00071725,0.013839751,-0.022812,1741897835.999342
-0.0165,0.123,-0.010625,-0.0002135,-0.00109875,0.000534,0.008375,0.048125,0.145625,-0.00596625,0.0179595,-0.03256225,1741897836.0140958
-0.01675,0.123625,-0.010875,-0.00029,-0.00102225,0.00051875,0.008125,0.028875,0.141,-0.0091095,0.0196685,-0.0368195,1741897836.029902
-0.01675,0.1235,-0.010875,-0.00024425,-0.00080875,0.0003815,0.01,0.01725,0.136625,-0.01351925,0.0220185,-0.043808,1741897836.042927
-0.0165,0.123125,-0.011125,-0.000183,-0.00067150005,0.00029,0.016375,-0.012375,0.126,-0.0151825,0.022613501,-0.046569753,1741897836.0575738
-0.0165,0.12275,-0.01125,-0.00010675,-0.000534,0.00019825,0.01675,-0.027875,0.12275,-0.01690675,0.022873,-0.048889253,1741897836.072463
-0.01625,0.122,-0.011375,-7.625e-05,-0.000229,3.0500001e-05,0.010375,-0.05075,0.124,-0.02053825,0.02345275,-0.05220025,1741897836.089341
-0.016125,0.12175,-0.01175,-0.00010675,-9.15e-05,0.0,0.00675,-0.060375,0.123625,-0.02197275,0.02415475,-0.053329498,1741897836.1018271
-0.016,0.12175,-0.01225,-0.00016775,0.000122000005,-1.5250001e-05,0.006125,-0.069625,0.120375,-0.02388,0.02598575,-0.054015998,1741897836.116416
-0.0155,0.121625,-0.013,-0.0001525,0.0002135,-3.0500001e-05,0.016125,-0.09025,0.11,-0.02401725,0.026672252,-0.0532685,1741897836.131246
-0.0155,0.12175,-0.0135,-0.0001525,0.00033575002,-4.575e-05,0.024375,-0.102625,0.1045,-0.02253725,0.027404752,-0.050491247,1741897836.149733
-0.015625,0.12175,-0.01375,-0.0001525,0.00035100002,-4.575e-05,0.03375,-0.121375,0.09275,-0.0213165,0.0275115,-0.0491485,1741897836.1606069
-0.015625,0.12175,-0.013875,-0.0002135,0.00027475,3.0500001e-05,0.03025,-0.127375,0.0875,-0.017974751,0.027160749,-0.046203498,1741897836.1752179
-0.015625,0.121625,-0.013875,-0.00024425,0.00019825,7.625e-05,0.02375,-0.137375,0.076625,-0.0159455,0.02693175,-0.043762248,1741897836.1898198
-0.01575,0.12175,-0.01375,-0.00030525,9.15e-05,0.000183,0.028,-0.1435,0.06925,-0.01156625,0.0259095,-0.036499,1741897836.204562
-0.015625,0.12225,-0.014,-0.00029,7.625e-05,0.00024425,0.042875,-0.1575,0.052375,-0.0093995,0.02445975,-0.032013,1741897836.21915
-0.015625,0.122375,-0.014,-0.00027475,7.625e-05,0.00029,0.04775,-0.164125,0.045125,-0.0053252503,0.0189515,-0.021408001,1741897836.233815
-0.01575,0.122375,-0.014,-0.000183,0.000122000005,0.0002595,0.04975,-0.172875,0.037875,-0.00320425,0.01513675,-0.01498425,1741897836.250995
-0.01575,0.122,-0.013875,-0.00013725001,0.0001525,0.0002135,0.048375,-0.1735,0.038,0.001007,0.006256,0.000229,1741897836.263104
-0.0155,0.121875,-0.01375,-6.1000002e-05,0.00013725001,0.00019825,0.044,-0.1625,0.043,0.00283825,0.0016785001,0.00839225,1741897836.277708
-0.015625,0.12225,-0.013625,-6.1000002e-05,0.00010675,0.000229,0.04175,-0.151875,0.0475,0.006668,-0.0071105,0.02351375,1741897836.292227
-0.015875,0.122625,-0.013625,-9.15e-05,3.0500001e-05,0.00029,0.035875,-0.1365,0.056375,0.0088805,-0.0110015,0.0298615,1741897836.3103921
-0.0165,0.122875,-0.0135,-9.15e-05,0.0,0.00030525,0.032625,-0.132625,0.06,0.0110015,-0.014495751,0.035431,1741897836.321323
-0.01675,0.122875,-0.01325,-7.625e-05,-1.5250001e-05,0.0003205,0.028625,-0.127375,0.0645,0.013717749,-0.020355249,0.04438775,1741897836.336001
-0.016875,0.123,-0.013625,-7.625e-05,-3.0500001e-05,0.00029,0.0195,-0.110375,0.073875,0.014495751,-0.022583,0.04812625,1741897836.3505049
-0.01675,0.123125,-0.01375,-6.1000002e-05,-3.0500001e-05,0.000229,0.0165,-0.100375,0.077125,0.016098,-0.02626025,0.05502325,1741897836.3657868
-0.01675,0.123375,-0.013625,0.0,-1.5250001e-05,9.15e-05,0.0125,-0.08,0.083375,0.0170135,-0.02807625,0.05815125,1741897836.379874
-0.017125,0.123625,-0.0135,4.575e-05,-3.0500001e-05,0.0,0.009875,-0.06925,0.08975,0.0187835,-0.03144825,0.0631715,1741897836.394402
-0.01725,0.12325,-0.0135,0.00010675,-9.15e-05,-0.0001525,0.0025,-0.051375,0.1045,0.01953125,-0.032852247,0.06488025,1741897836.4106188
-0.01725,0.122375,-0.01325,7.625e-05,-0.00013725001,-0.0002135,-0.001,-0.042375,0.11325,0.0196685,-0.03471375,0.0662385,1741897836.423599
-0.017125,0.122125,-0.01275,1.5250001e-05,-0.000183,-0.00027475,-0.004,-0.0205,0.132,0.01867675,-0.034729,0.065414496,1741897836.4383261
-0.016375,0.122125,-0.0125,-3.0500001e-05,-0.00010675,-0.0002595,-0.003875,-0.007875,0.138375,0.0153502505,-0.032821752,0.061462503,1741897836.452992
-0.016,0.122375,-0.01275,-6.1000002e-05,6.1000002e-05,-0.0002595,-0.0025,0.026625,0.154875,0.01368725,-0.030578502,0.058838002,1741897836.467516
-0.015375,0.121875,-0.013125,0.0,0.00013725001,-0.00030525,0.00225,0.049875,0.164625,0.01278675,-0.024780251,0.050705,1741897836.482017
-0.01525,0.121875,-0.013125,6.1000002e-05,0.0002135,-0.000412,0.01075,0.069125,0.175,0.013290499,-0.022171,0.04502875,1741897836.496421
-0.015375,0.12175,-0.013875,7.625e-05,0.000183,-0.00042725,0.01325,0.068875,0.174375,0.01380925,-0.0194245,0.039093,1741897836.510815
-0.015375,0.121625,-0.014125,9.15e-05,0.000122000005,-0.00039675,0.014375,0.069125,0.173875,0.01216125,-0.013412501,0.0260315,1741897836.525234
-0.01525,0.121625,-0.014375,9.15e-05,-6.1000002e-05,-0.00029,0.01775,0.086875,0.18225,0.009552,-0.0095672505,0.0186615,1741897836.540003
-0.015125,0.122,-0.015,7.625e-05,-0.0001525,-0.000229,0.01875,0.09575,0.18475,0.004242,-0.00048825,0.0019989999,1741897836.5544288
-0.015,0.122375,-0.01525,6.1000002e-05,-0.00030525,-0.00010675,0.01725,0.093875,0.17525,0.00242625,0.004013,-0.006363,1741897836.569949
-0.015125,0.122625,-0.0155,7.625e-05,-0.00042725,-7.625e-05,0.016125,0.083,0.163125,0.00024425,0.01098625,-0.02105725,1741897836.583522
-0.015375,0.122625,-0.015375,0.00010675,-0.000763,3.0500001e-05,0.014375,0.055,0.143875,-0.00099175,0.013198749,-0.0271455,1741897836.5980349
-0.016125,0.123375,-0.014375,4.575e-05,-0.000946,7.625e-05,0.013125,0.04325,0.140625,-0.00460825,0.01716625,-0.03742975,1741897836.612614
-0.0165,0.12375,-0.014,-0.00019825,-0.0012055,-1.5250001e-05,0.011625,0.022625,0.13825,-0.006668,0.019195499,-0.04190075,1741897836.630242
-0.016625,0.12375,-0.013875,-0.00024425,-0.0012665,-0.000122000005,0.012625,0.013125,0.13525,-0.009811499,0.0228425,-0.04907225,1741897836.641732
-0.01675,0.123875,-0.0145,-0.00024425,-0.0013275,-0.00024425,0.012875,-0.009625,0.126875,-0.010742251,0.024063,-0.051925752,1741897836.656329
-0.016375,0.1245,-0.01575,-0.000122000005,-0.001419,-0.000473,0.01025,-0.026125,0.122625,-0.01156625,0.02487175,-0.054138247,1741897836.670908
-0.016,0.124625,-0.01625,3.0500001e-05,-0.0014037499,-0.00061025,0.007375,-0.05625,0.115375,-0.014160249,0.0259095,-0.05606075,1741897836.6855779
-0.015875,0.124625,-0.01675,0.00042725,-0.00148,-0.00090025004,0.008875,-0.066875,0.112875,-0.0158845,0.02636725,-0.056137,1741897836.7003121
-0.016125,0.12425,-0.0165,0.00057975,-0.0016175,-0.001007,0.012,-0.07525,0.11175,-0.01893625,0.0270385,-0.055252,1741897836.7150211
-0.016125,0.124375,-0.01675,0.00086975005,-0.0019989999,-0.001068,0.019625,-0.088625,0.10575,-0.019348249,0.027298,-0.054367002,1741897836.730111
-0.015625,0.1255,-0.0185,0.000885,-0.0023039998,-0.00105275,0.021625,-0.094625,0.09975,-0.01799,0.02674875,-0.051925752,1741897836.744271
-0.015625,0.126625,-0.01875,0.000763,-0.00292975,-0.00115975,0.02325,-0.1075,0.088375,-0.0168915,0.02601625,-0.050063998,1741897836.7588181
-0.014,0.126375,-0.019,0.00080875,-0.00314325,-0.0013275,0.026375,-0.113625,0.083125,-0.014663749,0.024383498,-0.044570997,1741897836.773437
-0.01275,0.125625,-0.018875,0.0012665,-0.00354,-0.001648,0.038,-0.12575,0.074375,-0.013778751,0.023407,-0.04119875,1741897836.790025
-0.010625,0.12175,-0.0185,0.0013885,-0.003769,-0.0017852499,0.043,-0.1305,0.072125,-0.01165775,0.02130125,-0.034149252,1741897836.802614
-0.0105,0.120875,-0.018125,0.0007325,-0.0047912505,-0.0018005001,0.048,-0.136625,0.06625,-0.0104065,0.020202748,-0.030487,1741897836.817298
-0.012125,0.1225,-0.0155,0.00029,-0.0053405,-0.0017242499,0.049375,-0.1385,0.06075,-0.0077667497,0.016861,-0.0220795,1741897836.832032
-0.012625,0.123625,-0.01475,7.625e-05,-0.0056609996,-0.001648,0.05325,-0.143125,0.050125,-0.0062255003,0.014267,-0.017044,1741897836.8498418
-0.012625,0.12425,-0.014375,7.625e-05,-0.0058135,-0.0016632499,0.05475,-0.144625,0.04775,-0.00320425,0.00791925,-0.0058899997,1741897836.861225
-0.01075,0.1215,-0.01425,0.0001525,-0.00579825,-0.00177,0.05625,-0.142625,0.048375,-0.0015105,0.00444025,-0.00013725001,1741897836.875929
-0.009875,0.12,-0.01425,6.1000002e-05,-0.006012,-0.00193775,0.053875,-0.140125,0.051125,0.000534,0.0007325,0.0056,1741897836.890481
-0.011875,0.123125,-0.014375,1.5250001e-05,-0.0062255003,-0.00190725,0.049875,-0.13675,0.054125,0.0045777503,-0.0063325,0.01670825,1741897836.905209
-0.0135,0.12575,-0.01425,0.00033575002,-0.00631725,-0.0019685,0.043,-0.12875,0.057,0.00621025,-0.00935375,0.0219575,1741897836.91978
-0.013125,0.12425,-0.01275,0.00054925,-0.00617975,-0.0020752498,0.040875,-0.1245,0.05775,0.0088805,-0.0148925,0.03173825,1741897836.934355
-0.011875,0.1215,-0.011625,0.00080875,-0.005783,-0.0023345,0.037625,-0.1115,0.060625,0.0100707505,-0.0175935,0.03610225,1741897836.949087
-0.010875,0.119,-0.010625,0.00086975005,-0.0056915004,-0.002365,0.03575,-0.103125,0.062125,0.0129395,-0.022827249,0.043396,1741897836.9634938
-0.0115,0.120125,-0.011,0.00093075,-0.0056,-0.002243,0.030125,-0.092375,0.066625,0.014618,-0.025466999,0.046524,1741897836.978111
-0.012625,0.12175,-0.010875,0.00093075,-0.0055237496,-0.0020905002,0.026,-0.08925,0.07025,0.01716625,-0.03070075,0.0521545,1741897836.994551
-0.0125,0.120625,-0.0085,0.00077825,-0.00538625,-0.001892,0.01625,-0.08275,0.084,0.017608749,-0.03297425,0.05461125,1741897837.009686
-0.01225,0.119625,-0.00625,-1.5250001e-05,-0.0048065,-0.00160225,0.0105,-0.0755,0.094125,0.01744075,-0.035797,0.05853275,1741897837.021775
-0.011125,0.119,-0.0055,-0.00035100002,-0.00434875,-0.001526,0.00025,-0.05475,0.11325,0.0173645,-0.036376998,0.059768748,1741897837.036351
-0.01075,0.119625,-0.006875,-0.00059500005,-0.00352475,-0.0013580001,-0.0025,-0.045,0.12025,0.016983,-0.03645325,0.06074525,1741897837.0511758
-0.009125,0.12025,-0.00975,-0.00059500005,-0.0031889998,-0.00125125,-0.00675,-0.024375,0.14125,0.016570998,-0.0355835,0.060318,1741897837.0699258
-0.0085,0.121,-0.009625,-0.00035100002,-0.0025634998,-0.00105275,-0.006625,-0.014375,0.149125,0.015579251,-0.03338625,0.05921925,1741897837.080458
-0.008875,0.121625,-0.009125,-9.15e-05,-0.0021819999,-0.00099175,0.002375,0.002125,0.149375,0.012847999,-0.028411752,0.054794252,1741897837.094976
-0.008875,0.121,-0.0095,0.0002135,-0.00143425,-0.000824,0.00425,0.00975,0.148,0.011901749,-0.027007999,0.051757753,1741897837.1099079
-0.008875,0.12,-0.009625,0.0002135,-0.0012055,-0.00071725,0.005875,0.01975,0.147625,0.009781,-0.025466999,0.045105,1741897837.124054
-0.008875,0.12,-0.00975,-0.00029,-0.00099175,-0.00045775,0.005125,0.05525,0.168875,0.00833125,-0.0246735,0.041092,1741897837.138568
-0.00875,0.121125,-0.009875,-0.0005645,-0.00090025004,-0.00030525,0.00675,0.0715,0.178875,0.007843,-0.0177765,0.0299225,1741897837.153036
-0.0085,0.121,-0.0105,-0.00067150005,-0.0005645,-3.0500001e-05,0.010875,0.081375,0.181875,0.0077972496,-0.0141145,0.0229645,1741897837.170052
-0.00725,0.12025,-0.01275,-0.00061025,-0.00042725,9.15e-05,0.01,0.077875,0.175875,0.0055847503,-0.0072480002,0.00846875,1741897837.182053
-0.00675,0.120375,-0.013375,-0.0005645,-0.00035100002,0.00016775,0.005375,0.05775,0.161375,0.0034942501,-0.0032655,0.0017852499,1741897837.1965
-0.0065,0.120875,-0.013625,-0.00065625,-0.00033575002,0.0002595,0.005875,0.05525,0.1565,-0.0021819999,0.004303,-0.01133725,1741897837.211009
-0.00725,0.1225,-0.0135,-0.000763,-0.00033575002,0.0003205,0.01175,0.06325,0.15325,-0.0044555003,0.0074615004,-0.018310498,1741897837.230388
-0.007625,0.1235,-0.013625,-0.00086975005,-0.00027475,0.00029,0.01325,0.06225,0.153,-0.00543225,0.010253999,-0.02500925,1741897837.240028
-0.00775,0.12425,-0.014375,-0.00077825,-0.000229,0.0002135,0.006375,0.044,0.149375,-0.00444025,0.01490775,-0.036239497,1741897837.2545931
-0.00775,0.123875,-0.015,-0.00051875,-0.00024425,-3.0500001e-05,0.0,0.030875,0.14675,-0.00381475,0.016922,-0.0408325,1741897837.270574
-0.007875,0.12325,-0.0155,-0.00045775,-0.00027475,-0.00013725001,-0.00525,0.018125,0.143375,-0.0043639997,0.02095025,-0.048339747,1741897837.2838469
-0.007875,0.123125,-0.015375,-0.0004425,-0.00029,-0.00033575002,-0.00725,-0.00175,0.133625,-0.00555425,0.02297975,-0.0512085,1741897837.298493
-0.007625,0.123,-0.015125,-0.00045775,-0.0002595,-0.00035100002,-0.004625,-0.010875,0.1295,-0.008651749,0.02630625,-0.055908248,1741897837.313298
-0.007625,0.123,-0.015125,-0.000534,-0.000183,-0.00029,0.004375,-0.030625,0.126,-0.010009751,0.027557248,-0.0577545,1741897837.330318
-0.008,0.122625,-0.015125,-0.0005645,-0.000183,-0.00029,0.00775,-0.039875,0.125625,-0.0115815,0.029373249,-0.060608003,1741897837.3426151
-0.00825,0.122,-0.015375,-0.00061025,-0.00019825,-0.0002595,0.006,-0.057,0.12175,-0.011886501,0.030029248,-0.061615,1741897837.357437
-0.0085,0.121125,-0.01475,-0.0008545,-0.00035100002,-6.1000002e-05,0.004375,-0.062125,0.11725,-0.01257325,0.0309905,-0.06242375,1741897837.3721468
-0.008625,0.121125,-0.014375,-0.00105275,-0.00042725,4.575e-05,0.0035,-0.070375,0.106875,-0.0129395,0.031188998,-0.06207275,1741897837.3872252
-0.009,0.122125,-0.014125,-0.0012665,-0.0004425,0.0002135,0.00425,-0.07775,0.1025,-0.01361075,0.0305175,-0.0592805,1741897837.40153
-0.00975,0.12575,-0.015125,-0.001175,-0.00036625,0.000183,0.01325,-0.096875,0.09525,-0.01402275,0.030075,-0.0570985,1741897837.416202
-0.009625,0.126375,-0.01575,-0.00067150005,-0.00010675,-9.15e-05,0.019375,-0.1045,0.09225,-0.015457249,0.02923575,-0.052688498,1741897837.43329
-0.008625,0.1235,-0.015375,-0.000412,-1.5250001e-05,-0.000183,0.023375,-0.11425,0.0865,-0.016235251,0.028473,-0.05036925,1741897837.445455
-0.008625,0.122,-0.014375,-0.00024425,1.5250001e-05,-0.0002135,0.02425,-0.1165,0.082,-0.0164795,0.0255585,-0.044570997,1741897837.460018
-0.009,0.121125,-0.0135,-0.0003205,4.575e-05,-0.000183,0.027875,-0.122625,0.07025,-0.01567075,0.02330025,-0.040847752,1741897837.4747
-0.009125,0.121875,-0.013375,-0.0005645,0.0002595,-7.625e-05,0.02975,-0.127375,0.0655,-0.01412975,0.020752002,-0.03663625,1741897837.4908328
-0.009,0.123875,-0.014625,-0.00057975,0.00039675,-9.15e-05,0.03175,-0.1325,0.063,-0.00982675,0.01570125,-0.027832001,1741897837.503804
-0.00875,0.124625,-0.015875,-0.000412,0.0005645,-0.000183,0.035,-0.14025,0.063625,-0.00801075,0.013549751,-0.02363575,1741897837.518453
-0.00775,0.12375,-0.017125,-0.00019825,0.00062550005,-0.0002595,0.036,-0.14325,0.0635,-0.0054015,0.00975025,-0.015075751,1741897837.5330381
-0.007375,0.122125,-0.016875,3.0500001e-05,0.00067150005,-0.00033575002,0.039875,-0.143125,0.058125,-0.003952,0.0076295,-0.010314999,1741897837.5500212
-0.007375,0.12075,-0.0165,6.1000002e-05,0.00054925,-0.00030525,0.042,-0.141875,0.054125,0.00051875,0.002243,-0.00013725001,1741897837.562233
-0.008125,0.12125,-0.016,-0.0001525,0.00042725,-0.00019825,0.0435,-0.13975,0.053625,0.003128,-0.0009155,0.0049742498,1741897837.576855
-0.008625,0.122125,-0.016,-0.000473,0.00033575002,-3.0500001e-05,0.041625,-0.137375,0.058125,0.006607,-0.0064239996,0.014358499,1741897837.591447
-0.0085,0.122625,-0.01675,-0.0005035,0.0003205,0.0,0.036875,-0.1285,0.066,0.007553,-0.0085755,0.018463248,1741897837.608886
-0.008,0.122375,-0.017,-0.000412,0.00030525,1.5250001e-05,0.03475,-0.1245,0.068375,0.00930775,-0.01248175,0.026092501,1741897837.620946
-0.007375,0.1225,-0.01725,-0.00035100002,0.00027475,3.0500001e-05,0.03,-0.1215,0.071625,0.01013175,-0.014419501,0.02993775,1741897837.6355689
-0.007375,0.1225,-0.017,-0.0002135,0.00019825,1.5250001e-05,0.029375,-0.120125,0.07325,0.01133725,-0.01826475,0.037384,1741897837.650571
-0.00775,0.122125,-0.01575,-0.00019825,0.00019825,0.0,0.02625,-0.1165,0.07875,0.011734,-0.020218,0.04081725,1741897837.664719
-0.008125,0.12175,-0.014875,-0.0003205,0.00019825,-1.5250001e-05,0.021,-0.112125,0.08225,0.0118407495,-0.022171,0.044051997,1741897837.679381
-0.008625,0.121,-0.0135,-0.00074775,0.00027475,0.00016775,0.0085,-0.1,0.088125,0.011825499,-0.02575675,0.0503845,1741897837.694059
-0.0085,0.12125,-0.0135,-0.0009155,0.0003815,0.00030525,0.00325,-0.0935,0.091125,0.01200875,-0.0273895,0.05363475,1741897837.7101219
-0.00825,0.122,-0.01375,-0.00099175,0.00074775,0.000473,-0.00125,-0.087875,0.0945,0.012557999,-0.030151252,0.059723,1741897837.7232482
-0.008125,0.123,-0.014375,-0.0009155,0.0009765,0.00051875,-0.008125,-0.073875,0.105,0.01272575,-0.031158501,0.062393248,1741897837.737855
-0.008375,0.1235,-0.01425,-0.00102225,0.0014037499,0.00068675,-0.009875,-0.059625,0.114625,0.01402275,-0.03186025,0.06631475,1741897837.752432
-0.00975,0.12575,-0.0125,-0.00115975,0.00160225,0.00068675,-0.010875,-0.033375,0.1305,0.0154115,-0.031662002,0.06726075,1741897837.770942
-0.010625,0.127,-0.010875,-0.0012055,0.0022125002,0.00039675,-0.010625,-0.0255,0.13275,0.017212,-0.030853251,0.066925004,1741897837.781931
-0.012375,0.129625,-0.007375,-0.0012055,0.00263975,0.00016775,-0.01075,-0.020125,0.12775,0.01681525,-0.03022775,0.066162005,1741897837.796782
-0.013625,0.131,-0.005375,-0.001419,0.00369275,-0.0005035,-0.011125,-0.009875,0.133,0.013626001,-0.028366,0.06333925,1741897837.811339
-0.015875,0.130875,-0.0025,-0.00154125,0.0043639997,-0.0009765,-0.00975,0.03725,0.165,0.012054499,-0.0264435,0.0598755,1741897837.829621
-0.01575,0.129375,-0.002875,-0.00160225,0.00511175,-0.0014495,-0.0025,0.05575,0.172,0.01228325,-0.02050775,0.049194247,1741897837.840769
-0.0155,0.128625,-0.003625,-0.0014037499,0.006775,-0.0026092501,0.00775,0.06525,0.162625,0.012176501,-0.01826475,0.04331975,1741897837.855361
-0.01725,0.130625,-0.003625,-0.00105275,0.0077210004,-0.00340275,0.0115,0.067875,0.15325,0.0091095,-0.012741,0.03082275,1741897837.870254
-0.017875,0.1305,-0.003,0.00019825,0.0099639995,-0.00488275,0.016125,0.082875,0.152875,0.0069274995,-0.010437001,0.02421575,1741897837.884453
-0.017375,0.1265,-0.003125,0.000885,0.011184749,-0.0052642496,0.013125,0.081,0.155625,0.0057372497,-0.00646975,0.01127625,1741897837.899035
-0.015875,0.12375,-0.003875,0.00181575,0.01322925,-0.00531,0.009125,0.06375,0.1605,0.00697325,-0.00437925,0.0048979996,1741897837.913459
-0.011,0.11925,-0.007375,0.00198375,0.01396175,-0.0051269997,0.012,0.0545,0.158375,0.00782775,-0.0016175,-0.002533,1741897837.929039
-0.00875,0.119,-0.01075,0.0018615,0.014846751,-0.0046845004,0.01125,0.050875,0.151625,0.0037537501,0.00460825,-0.016570998,1741897837.942642
-0.00525,0.1205,-0.01875,0.0017852499,0.01501475,-0.00453175,0.016625,0.057875,0.139875,0.00045775,0.0073547503,-0.02256775,1741897837.9571872
-0.003375,0.12025,-0.0225,0.00216675,0.01510625,-0.00413525,0.021,0.05525,0.138125,-0.0023039998,0.01216125,-0.034011748,1741897837.974529
0.00125,0.115375,-0.0315,0.0025787498,0.01498425,-0.00381475,0.011625,0.0345,0.1445,-0.0021515,0.0138855,-0.03933725,1741897837.98888
0.004125,0.112,-0.037375,0.0029145,0.014648501,-0.00334175,0.00225,0.017875,0.151125,-0.00320425,0.01814275,-0.04756175,1741897838.001274
0.007125,0.11,-0.0445,0.0029907501,0.013275251,-0.001892,-0.007375,-0.003875,0.157375,-0.0048217503,0.0211945,-0.05052175,1741897838.016021
0.0135,0.10975,-0.061125,0.00276175,0.01210025,-0.00105275,-0.008625,-0.011625,0.152625,-0.0079345,0.026702998,-0.05612175,1741897838.031523
0.01575,0.11125,-0.0715,0.0027465,0.00823975,0.0007325,-0.006125,-0.031,0.1345,-0.009155249,0.028427,-0.05844125,1741897838.0455759
0.0155,0.111625,-0.092,0.00325,0.00520325,0.001709,-0.00075,-0.039625,0.12775,-0.011627249,0.030456498,-0.06121825,1741897838.060273
0.0145,0.109625,-0.097,0.00390625,-0.00343325,0.00328075,0.0055,-0.054625,0.124,-0.012496999,0.0312195,-0.0621185,1741897838.074976
0.011125,0.111,-0.096875,0.0029449998,-0.008865249,0.00384525,0.00375,-0.0635,0.121125,-0.01361075,0.03227225,-0.0630645,1741897838.0902941
0.009625,0.116125,-0.0955,0.0009155,-0.01469425,0.0043335,-0.00075,-0.079375,0.1105,-0.0142365,0.032470748,-0.062622,1741897838.104467
0.010375,0.11975,-0.094375,-0.004486,-0.026092501,0.0054780003,-0.00075,-0.085875,0.104,-0.01576225,0.031723,-0.0595855,1741897838.1192691
0.0135,0.118625,-0.0935,-0.00691225,-0.03132625,0.0061339997,0.005875,-0.0955,0.098125,-0.016128499,0.030883752,-0.0570985,1741897838.133986
0.011125,0.118875,-0.092375,-0.00883475,-0.040969748,0.0067445002,0.01125,-0.10075,0.097125,-0.016128499,0.0296325,-0.0519715,1741897838.1505961
-0.000625,0.121,-0.08775,-0.008072,-0.0452575,0.0065917503,0.017875,-0.114625,0.09,-0.015915,0.028946,-0.04954525,1741897838.163327
-0.007625,0.120875,-0.081625,-0.0046539996,-0.05230725,0.0069274995,0.0185,-0.121875,0.083,-0.0154725,0.02787775,-0.046981752,1741897838.177953
-0.019375,0.11675,-0.064875,-0.00317375,-0.05511475,0.0076599997,0.01875,-0.128375,0.075125,-0.013778751,0.0242005,-0.040237498,1741897838.19254
-0.0285,0.118125,-0.054625,-0.0031585,-0.06021125,0.009674,0.021375,-0.1345,0.061625,-0.012634249,0.021881001,-0.0359955,1741897838.210349
-0.049375,0.117875,-0.019875,-0.0048217503,-0.06204225,0.010559,0.023625,-0.13525,0.058,-0.01054375,0.017105,-0.0269165,1741897838.221937
-0.058625,0.11525,0.003625,-0.0075835,-0.0626525,0.011321999,0.027625,-0.13725,0.058625,-0.009445249,0.0148925,-0.02250675,1741897838.236638
-0.06775,0.114625,0.038625,-0.01330575,-0.05885325,0.012771499,0.029875,-0.139375,0.059375,-0.0058899997,0.010513251,-0.013854999,1741897838.2512262
-0.070875,0.12,0.048375,-0.014800999,-0.0547485,0.01322925,0.033375,-0.1435,0.05475,-0.003662,0.00801075,-0.009506251,1741897838.2663538
-0.076,0.12925,0.057625,-0.013564999,-0.042984,0.012130749,0.0345,-0.144375,0.051125,0.000229,0.00225825,-0.00027475,1741897838.280535
-0.08825,0.150125,0.07725,-0.010849,-0.03556825,0.0102235,0.036125,-0.141,0.049,0.001892,-0.0009155,0.00466925,1741897838.295156
-0.09375,0.157625,0.08575,-0.0035704998,-0.0186615,0.00463875,0.035875,-0.13925,0.051,0.0042572496,-0.0070495,0.014343251,1741897838.310177
-0.096,0.157875,0.0915,-0.00027475,-0.00941475,0.0016632499,0.03425,-0.139125,0.055375,0.005005,-0.00975025,0.019104,1741897838.324558
-0.092,0.154125,0.08825,0.00343325,0.0077210004,-0.00384525,0.032625,-0.136375,0.058,0.00691225,-0.014862,0.028366,1741897838.339127
-0.082,0.147625,0.079875,0.00413525,0.0149995005,-0.006668,0.026625,-0.12625,0.065375,0.008270251,-0.017395,0.03279125,1741897838.353834
-0.0775,0.142625,0.076125,0.0049895,0.021942249,-0.009201,0.02325,-0.1215,0.068125,0.01150525,-0.02241525,0.041381747,1741897838.370398
-0.072125,0.134375,0.066,0.0073547503,0.035476748,-0.01245125,0.017875,-0.113,0.073,0.013000499,-0.024947999,0.045303248,1741897838.383261
-0.06975,0.130125,0.057125,0.00782775,0.04164125,-0.01326,0.015,-0.10825,0.076375,0.0141755,-0.027359,0.048828,1741897838.397779
-0.067,0.124375,0.045625,0.00643925,0.05169675,-0.0135345,0.006125,-0.097875,0.084875,0.015090999,-0.03152475,0.054565497,1741897838.413074
-0.06075,0.116,0.0175,0.0051880004,0.05537425,-0.01301575,0.00025,-0.092625,0.089875,0.0149535,-0.03323375,0.05697625,1741897838.4268339
-0.057625,0.116875,0.004,0.0033570002,0.060135,-0.0115967505,-0.005875,-0.086625,0.094625,0.01445,-0.03604125,0.0615845,1741897838.441525
-0.05,0.12125,-0.01925,0.00289925,0.06150825,-0.011031999,-0.014875,-0.065375,0.10675,0.01440425,-0.03710925,0.06369025,1741897838.456287
-0.0465,0.12225,-0.0285,0.0021972498,0.062973,-0.0102235,-0.016625,-0.048875,0.115625,0.01576225,-0.0383605,0.0661315,1741897838.4709918
-0.03775,0.123625,-0.052125,0.00177,0.063324004,-0.00975025,-0.01775,-0.022625,0.13725,0.0170745,-0.03842175,0.065979,1741897838.4907799
-0.03175,0.125125,-0.06625,0.00137325,0.06333925,-0.00924675,-0.018875,-0.022,0.14275,0.017974751,-0.0366515,0.06422425,1741897838.500407
-0.019875,0.125625,-0.089125,0.0004425,0.061523497,-0.009140001,-0.015375,-0.01825,0.140375,0.01620475,-0.0348205,0.06304925,1741897838.515218
-0.01525,0.12425,-0.096625,-6.1000002e-05,0.059555,-0.009643501,-0.013625,0.00125,0.14925,0.00935375,-0.030716,0.05656425,1741897838.530592
-0.0105,0.12175,-0.102625,-0.00010675,0.05422975,-0.011123749,-0.005125,0.067875,0.184875,0.0068055,-0.027099501,0.050674498,1741897838.544266
0.000375,0.117375,-0.115625,0.00027475,0.05104075,-0.011810251,0.001,0.08925,0.194875,0.006668,-0.0189515,0.035049498,1741897838.558672
0.006,0.116125,-0.1225,0.00099175,0.04306025,-0.01248175,0.005875,0.08225,0.1855,0.008072,-0.0137635,0.02719125,1741897838.573241
0.017125,0.112375,-0.130125,0.001419,0.03822325,-0.012267999,0.009125,0.073125,0.1725,0.0074615004,-0.0049590003,0.012496999,1741897838.5904799
0.021875,0.110125,-0.131625,0.00225825,0.0271455,-0.0109709995,0.014,0.074,0.161875,0.0047912505,-0.0016785001,0.0054015,1741897838.60229
0.02925,0.103875,-0.1355,0.002655,0.0208435,-0.009933501,0.01425,0.08125,0.1665,0.00184625,0.001831,-0.00198375,1741897838.616755
0.030875,0.101625,-0.13675,0.0039215,0.006836,-0.00691225,0.013,0.083,0.170125,-0.00061025,0.00975025,-0.017746,1741897838.631273
0.028125,0.100875,-0.13725,0.004486,-0.00065625,-0.00511175,0.005875,0.062875,0.164375,-0.00059500005,0.0129700005,-0.024841249,1741897838.65079
0.023625,0.099875,-0.135,0.0044250004,-0.00845325,-0.00334175,0.0025,0.04875,0.1565,-0.001526,0.017700251,-0.036087003,1741897838.6602728
0.0185,0.097125,-0.1305,0.001953,-0.024063,0.000183,-0.003875,0.022625,0.140625,-0.00276175,0.019577,-0.040619,1741897838.674863
0.011,0.091875,-0.118875,0.000229,-0.03125,0.0021057501,-0.00575,0.013,0.135375,-0.0057372497,0.022918751,-0.04806525,1741897838.690668
0.008,0.090875,-0.112875,-0.0021972498,-0.04341125,0.00593575,-0.007125,-0.0015,0.132375,-0.0069885002,0.02439875,-0.051361,1741897838.704469
-0.002,0.095125,-0.10075,-0.0025025,-0.048278753,0.0075072497,-0.0075,-0.013375,0.1315,-0.008499251,0.026886,-0.056701753,1741897838.7191691
-0.00825,0.098375,-0.095625,-0.0020905002,-0.0561675,0.010009751,-0.006375,-0.045,0.126375,-0.00918575,0.027847249,-0.05853275,1741897838.73388
-0.01975,0.101,-0.085,-0.0021515,-0.059616,0.011169501,-0.00675,-0.059875,0.122625,-0.01115425,0.02931225,-0.0603485,1741897838.7507882
-0.02425,0.100125,-0.07925,-0.0038757501,-0.066208,0.013931249,-0.00675,-0.07725,0.113375,-0.012375,0.02981575,-0.0605315,1741897838.7633789
-0.03875,0.10125,-0.06175,-0.0049742498,-0.0691375,0.01548775,-0.0055,-0.082625,0.10775,-0.01351925,0.02961725,-0.0589295,1741897838.7781901
-0.046125,0.102875,-0.04675,-0.0057525,-0.07135,0.016967751,0.0005,-0.100375,0.098375,-0.01330575,0.029174749,-0.057006747,1741897838.792757
-0.0535,0.103375,-0.027875,-0.0079955,-0.0724945,0.019317752,0.0065,-0.111375,0.09475,-0.012436,0.02864075,-0.05198675,1741897838.810121
-0.06275,0.10275,0.001625,-0.009384249,-0.0711365,0.02041625,0.015125,-0.13475,0.083125,-0.01197825,0.028183,-0.04916375,1741897838.822012
-0.065625,0.10475,0.007125,-0.012329,-0.0667725,0.02247625,0.0175,-0.147125,0.07425,-0.01171875,0.027252251,-0.045898497,1741897838.836685
-0.079125,0.121125,0.0115,-0.013137749,-0.06431575,0.02323925,0.02025,-0.158875,0.0645,-0.0118407495,0.023101749,-0.03639225,1741897838.851899
-0.089625,0.13325,0.021875,-0.012207,-0.057800252,0.023040751,0.027,-0.16575,0.055875,-0.011749251,0.019989,-0.02993775,1741897838.865906
-0.10375,0.1525,0.06375,-0.011139,-0.0526275,0.02168275,0.029875,-0.1575,0.059625,-0.010101249,0.014068499,-0.016967751,1741897838.880536
-0.10075,0.15475,0.07775,-0.0089875,-0.037658747,0.017044,0.031875,-0.142,0.066375,-0.008316,0.01165775,-0.01145925,1741897838.8951502
-0.0865,0.15275,0.0845,-0.00833125,-0.02952575,0.014221249,0.032875,-0.1395,0.062875,-0.0026092501,0.0060577504,-0.0010375,1741897838.9137
-0.08475,0.155875,0.086,-0.00833125,-0.01431275,0.0080567505,0.035375,-0.1415,0.049375,0.00071725,0.0022277501,0.0043639997,1741897838.924473
-0.084375,0.165375,0.089625,-0.007904,-0.0065765,0.0048065,0.035375,-0.141875,0.043875,0.0052795,-0.00579825,0.015396,1741897838.938997
-0.08175,0.165375,0.086125,-0.0068665,0.001526,0.00131225,0.033375,-0.13075,0.042375,0.0062712496,-0.009430001,0.02050775,1741897838.953542
-0.078,0.161875,0.0775,-0.00390625,0.017501751,-0.006256,0.03075,-0.121375,0.0475,0.00737,-0.015747,0.0289765,1741897838.9708018
-0.07225,0.15225,0.05725,-0.002365,0.0246125,-0.0097045,0.026625,-0.10775,0.059,0.0079955,-0.01835625,0.032333247,1741897838.9826949
-0.071,0.147875,0.0495,-0.00030525,0.03701775,-0.0148315,0.02625,-0.103875,0.062875,0.0093385,-0.02301025,0.037613,1741897838.9972548
-0.06725,0.13575,0.032,9.15e-05,0.04237375,-0.01651,0.02475,-0.096125,0.068375,0.00991825,-0.02525325,0.039611753,1741897839.011799
-0.063875,0.13,0.020625,0.0003815,0.05119325,-0.018448,0.021625,-0.092625,0.071625,0.0103455,-0.027435249,0.04135125,1741897839.030139
-0.057125,0.12425,-0.003375,0.000412,0.05448925,-0.01893625,0.017375,-0.089125,0.074625,0.01095575,-0.03105175,0.0450135,1741897839.040834
-0.054125,0.124375,-0.013875,4.575e-05,0.05915825,-0.019592252,0.009,-0.08175,0.082,0.01115425,-0.032608002,0.046936,1741897839.055478
-0.049125,0.12175,-0.035,-0.0002595,0.06065375,-0.019714251,0.0055,-0.0765,0.087875,0.011734,-0.03562925,0.0502625,1741897839.070564
-0.046625,0.119,-0.04475,-0.00036625,0.061554,-0.019638,-0.002125,-0.05925,0.11,0.01239025,-0.03666675,0.051361,1741897839.084662
-0.039625,0.11325,-0.062375,0.0001525,0.0618745,-0.01896675,-0.005625,-0.046,0.126,0.014206001,-0.036148,0.05154425,1741897839.099297
-0.035375,0.1115,-0.071,0.0004425,0.06130975,-0.0183715,-0.006875,-0.03025,0.148,0.01463325,-0.034484748,0.05033875,1741897839.113874
-0.030625,0.111,-0.079875,0.00125125,0.05918875,-0.0168,-0.0055,-0.03475,0.1485,0.013000499,-0.029601999,0.047485247,1741897839.1312351
-0.020625,0.111625,-0.0965,0.0017395001,0.05764775,-0.01596075,-0.002625,-0.039875,0.137625,0.01042175,-0.02763375,0.046203498,1741897839.143313
-0.01625,0.11125,-0.103625,0.00245675,0.05302425,-0.01460275,-0.00475,-0.032125,0.138375,0.0038299998,-0.0249635,0.042465247,1741897839.15789
-0.009125,0.108875,-0.11375,0.00267025,0.049682498,-0.014038,-0.0085,0.009875,0.163,0.001526,-0.022491502,0.039810248,1741897839.172416
-0.0055,0.106625,-0.117,0.0029755002,0.04125975,-0.0129395,-0.00475,0.03275,0.1745,3.0500001e-05,-0.015167249,0.03158575,1741897839.1907651
0.0045,0.101,-0.122125,0.003006,0.0364075,-0.012191749,0.007375,0.05275,0.175125,0.00051875,-0.01194775,0.026275748,1741897839.201447
0.009125,0.100375,-0.12425,0.0027465,0.02572625,-0.0100707505,0.007125,0.054,0.172375,0.0014037499,-0.00953675,0.02050775,1741897839.215837
0.016625,0.1005,-0.127375,0.0027160002,0.0201875,-0.008667,0.005375,0.0565,0.172625,0.0022125002,-0.0028535,0.00770575,1741897839.23074
0.019125,0.1005,-0.1275,0.0028535,0.01454175,-0.0070495,0.004,0.060625,0.17725,0.00160225,0.0017395001,0.0010375,1741897839.244752
0.02,0.100125,-0.12625,0.00331125,0.0029755002,-0.00352475,0.00375,0.061125,0.177375,-0.00090025004,0.010742251,-0.0126495,1741897839.2592618
0.018875,0.096,-0.121625,0.0034637498,-0.00296025,-0.001709,0.00325,0.058625,0.16775,-0.0020752498,0.014679,-0.0196075,1741897839.2737489
0.017375,0.094125,-0.11975,0.0027465,-0.015167249,0.00175475,0.002625,0.052,0.15775,-0.00358575,0.02064525,-0.031952,1741897839.290775
0.0115,0.094,-0.115375,0.0019225,-0.02124025,0.00334175,-0.000625,0.0305,0.139125,-0.0044250004,0.02253725,-0.036758497,1741897839.30286
0.007625,0.09475,-0.11175,0.00036625,-0.03205875,0.00662225,-0.00275,0.0215,0.134875,-0.006363,0.02528375,-0.044403,1741897839.31746
0.001125,0.096,-0.101875,-0.000122000005,-0.03663625,0.008270251,-0.00525,0.0025,0.132125,-0.00720225,0.026550248,-0.0477295,1741897839.332085
-0.0025,0.096625,-0.096875,-0.00045775,-0.0407715,0.00982675,-0.0045,-0.009875,0.129375,-0.0087585,0.0288085,-0.053115748,1741897839.351766
-0.012,0.100625,-0.088375,-0.0008545,-0.048049998,0.01248175,-0.00325,-0.036375,0.121875,-0.009597749,0.02952575,-0.05496225,1741897839.361578
-0.017125,0.10275,-0.08475,-0.000946,-0.051239,0.0135955,-0.00475,-0.048875,0.11925,-0.01136775,0.02996825,-0.057189997,1741897839.376368
-0.022,0.1045,-0.081125,-0.001068,-0.056762747,0.015808,-0.00825,-0.067375,0.115,-0.01222225,0.029907249,-0.057617247,1741897839.393455
-0.030875,0.10675,-0.074375,-0.001419,-0.059311002,0.01693725,-0.008875,-0.0735,0.113125,-0.01272575,0.0298615,-0.05747975,1741897839.405848
-0.03875,0.108625,-0.068875,-0.00213625,-0.06387325,0.01879875,-0.005625,-0.084375,0.108875,-0.011917,0.029953,-0.05537425,1741897839.420577
-0.055,0.111875,-0.046125,-0.0025025,-0.065322995,0.019577,-0.00225,-0.092375,0.106625,-0.01077275,0.0299225,-0.05369575,1741897839.435384
-0.06175,0.113125,-0.030375,-0.00460825,-0.0651855,0.0206145,0.000875,-0.1015,0.103625,-0.008850001,0.02961725,-0.049804747,1741897839.450779
-0.06225,0.110625,-0.01075,-0.00564575,-0.0637665,0.02091975,0.006625,-0.113875,0.09325,-0.008651749,0.029296748,-0.0477295,1741897839.464564
-0.061,0.112,-0.009,-0.0049285004,-0.059951752,0.02149975,0.0095,-0.117375,0.086625,-0.00883475,0.028015248,-0.04270925,1741897839.479302
-0.068,0.1225,-0.002625,-0.00245675,-0.0576325,0.02171325,0.0155,-0.1225,0.0745,-0.0085602505,0.026886,-0.03952025,1741897839.493879
-0.0775,0.13,0.01425,0.00039675,-0.05496225,0.021606501,0.01875,-0.12625,0.07,-0.0072785,0.02363575,-0.03211975,1741897839.510664
-0.085875,0.133,0.037,0.00149525,-0.046997003,0.0196685,0.026375,-0.13925,0.06,-0.00668325,0.02162175,-0.028183,1741897839.5232608
-0.081875,0.125875,0.065125,-0.0013580001,-0.0418395,0.018463248,0.02925,-0.14475,0.056,-0.0057220003,0.0168305,-0.020034749,1741897839.5379012
-0.077375,0.127875,0.068125,-0.0090485,-0.0309905,0.015213001,0.032375,-0.147,0.05,-0.004837,0.014145001,-0.01554875,1741897839.5524428
-0.075625,0.14575,0.068625,-0.010894749,-0.0249175,0.012756251,0.033875,-0.142125,0.049,-0.0021819999,0.0080415,-0.0060882503,1741897839.570737
-0.0755,0.153125,0.070125,-0.00846875,-0.010559,0.0063325,0.033625,-0.132375,0.05225,-0.000534,0.004776,-0.0014037499,1741897839.581762
-0.072875,0.15325,0.0695,-0.005844,-0.00270075,0.0028535,0.03325,-0.12975,0.054375,0.0032195,-0.0016785001,0.00798025,1741897839.59631
-0.07125,0.14825,0.064875,-0.00355525,0.011901749,-0.0037537501,0.032125,-0.128125,0.05775,0.0046539996,-0.0047455,0.012267999,1741897839.610995
-0.0695,0.13875,0.05225,-0.00437925,0.0180665,-0.0068207504,0.0315,-0.127625,0.0585,0.0055695,-0.00744625,0.01620475,1741897839.6252742
-0.0685,0.1355,0.0455,-0.0056915004,0.02371225,-0.009658749,0.03075,-0.126125,0.059125,0.0067902496,-0.012313751,0.02339175,1741897839.639852
-0.0675,0.1335,0.036625,-0.007019,0.033966,-0.014434749,0.02625,-0.118375,0.061375,0.00744625,-0.014679,0.02696225,1741897839.654402
-0.067625,0.133875,0.014875,-0.0068665,0.03848275,-0.0163575,0.02375,-0.11225,0.06275,0.0093995,-0.0193635,0.03395075,1741897839.670974
-0.06725,0.132625,0.0055,-0.0065765,0.04582225,-0.01940925,0.019375,-0.103,0.07,0.010589501,-0.02168275,0.037201,1741897839.683573
-0.06125,0.125375,-0.0115,-0.00672925,0.04872125,-0.02053825,0.01675,-0.10075,0.076875,0.0125275,-0.0258025,0.042801,1741897839.698171
-0.0565,0.12275,-0.020375,-0.0064545004,0.053542998,-0.022293,0.012,-0.09725,0.089125,0.013092,-0.02742,0.0451355,1741897839.7127638
-0.049,0.12025,-0.03775,-0.0060425,0.05526725,-0.023071252,0.01,-0.093,0.092,0.01396175,-0.03022775,0.0489655,1741897839.731308
-0.047625,0.12,-0.04375,-0.0054475004,0.0570525,-0.02388,0.0045,-0.082375,0.094125,0.0144805005,-0.03164675,0.050583,1741897839.7418492
-0.04875,0.11625,-0.05175,-0.00541675,0.057418752,-0.023956249,0.000625,-0.07725,0.09675,0.015335,-0.03474425,0.0535735,1741897839.756473
-0.046875,0.1125,-0.05775,-0.0054932497,0.05729675,-0.02326975,-0.008375,-0.0615,0.109875,0.015442001,-0.03591925,0.054824747,1741897839.771144
-0.038375,0.110125,-0.074625,-0.0051574996,0.056701753,-0.022812,-0.009625,-0.04475,0.123,0.01560975,-0.0362855,0.055359002,1741897839.790281
-0.0335,0.1105,-0.08175,-0.0043639997,0.055786252,-0.02241525,-0.005375,-0.004375,0.15475,0.01628125,-0.03506475,0.05378725,1741897839.80046
-0.02925,0.110375,-0.086875,-0.001831,0.053542998,-0.021636998,-0.002375,0.002,0.158625,0.017135499,-0.032852247,0.05113225,1741897839.815008
-0.022,0.106,-0.0955,-0.00033575002,0.052185003,-0.021087749,0.003125,-0.003875,0.14725,0.0161895,-0.027709998,0.0455475,1741897839.831573
-0.019,0.102875,-0.099625,0.0024872501,0.04853825,-0.01921075,0.00325,0.009125,0.153,0.013198749,-0.025772,0.04234325,1741897839.844067
-0.01175,0.097375,-0.10825,0.0034484998,0.04600525,-0.017929,0.002875,0.032,0.16775,0.005066,-0.01905825,0.03224175,1741897839.8585758
-0.007875,0.095875,-0.112875,0.00413525,0.03907775,-0.015029999,0.008375,0.070125,0.1905,0.00270075,-0.013549751,0.025848499,1741897839.8731651
0.000375,0.094125,-0.1195,0.004074,0.0348815,-0.013503999,0.012625,0.075375,0.18625,0.0046845004,-0.00228875,0.0122985,1741897839.8876019
0.005,0.091625,-0.121875,0.0034942501,0.02563475,-0.010024999,0.018,0.06225,0.16125,0.0075835,0.00146475,0.00593575,1741897839.902036
0.01175,0.0895,-0.124875,0.00279225,0.0206605,-0.0081025,0.01575,0.050375,0.1545,0.0105742505,0.0058899997,-0.00543225,1741897839.9164631
0.014125,0.0895,-0.12525,0.0019225,0.015594499,-0.00614925,0.00725,0.03125,0.16,0.0084379995,0.008499251,-0.010849,1741897839.930889
0.016,0.089875,-0.1255,0.000824,0.0054015,-0.00225825,0.007375,0.029625,0.161125,-0.00013725001,0.015686,-0.022613501,1741897839.945386
0.018,0.090875,-0.12475,0.00070200005,0.00030525,-0.00030525,0.01125,0.026875,0.15075,-0.00440975,0.019317752,-0.029174749,1741897839.959908
0.01675,0.091875,-0.122,0.0013580001,-0.009552,0.00367725,0.010125,0.01875,0.142375,-0.007904,0.02253725,-0.035400502,1741897839.9744132
0.011875,0.094375,-0.116,0.0018005001,-0.01412975,0.0056,0.0065,0.006375,0.134375,-0.012741,0.02671825,-0.044815,1741897839.990861
0.009375,0.0955,-0.114625,0.00228875,-0.02285775,0.0090485,-0.00125,-0.017875,0.126125,-0.014267,0.02769475,-0.047699,1741897840.0036821
0.001875,0.100875,-0.115,0.002243,-0.027252251,0.010498,-0.001875,-0.02725,0.125375,-0.01542675,0.02857975,-0.050827,1741897840.018441
-0.00325,0.103,-0.113625,0.0016175,-0.03639225,0.01278675,0.00075,-0.05025,0.12775,-0.015304499,0.02864075,-0.05189525,1741897840.0330188
-0.013875,0.10125,-0.1065,0.00115975,-0.040969748,0.013702501,-0.000625,-0.065625,0.127625,-0.015625,0.0289155,-0.0538635,1741897840.05089
-0.01775,0.0995,-0.102875,0.00070200005,-0.04521175,0.01454175,-0.003875,-0.092625,0.115125,-0.016113251,0.029144252,-0.054245,1741897840.0624058
-0.020875,0.100375,-0.1,0.000412,-0.052124,0.0160675,-0.004375,-0.100375,0.10775,-0.016998248,0.02905275,-0.05293275,1741897840.077078
-0.02675,0.10625,-0.093125,0.0009765,-0.05473325,0.01667775,-0.004375,-0.1095,0.095125,-0.0169525,0.02870175,-0.051101748,1741897840.091883
-0.029875,0.107125,-0.088625,0.00352475,-0.05867,0.01779175,-0.00125,-0.112625,0.089,-0.01589975,0.027481,-0.04585275,1741897840.110122
-0.03575,0.10375,-0.07875,0.0049895,-0.0604095,0.0183715,0.01175,-0.119125,0.0805,-0.0154115,0.026519751,-0.04312125,1741897840.12121
-0.041375,0.1015,-0.073625,0.0067445002,-0.06404125,0.0198365,0.017625,-0.1185,0.079125,-0.01504525,0.025055,-0.038818248,1741897840.135801
-0.054,0.101625,-0.061125,0.0075072497,-0.06536875,0.02056875,0.025,-0.111625,0.077375,-0.014663749,0.0246735,-0.037155252,1741897840.150958
-0.062125,0.103625,-0.049,0.00708,-0.06637575,0.0219115,0.02525,-0.1125,0.076375,-0.01187125,0.022796748,-0.03230275,1741897840.165067
-0.076375,0.105875,-0.012,0.0049895,-0.06549075,0.0224,0.025125,-0.123,0.0705,-0.009674,0.02124025,-0.0288085,1741897840.179819
-0.075625,0.103875,0.003875,0.0015565,-0.06359875,0.0228425,0.0275,-0.1305,0.066125,-0.007431,0.019226,-0.0247955,1741897840.194398
-0.071625,0.102875,0.01275,-0.0049742498,-0.05818175,0.023056,0.034125,-0.139125,0.058625,-0.00419625,0.014328,-0.01617425,1741897840.211369
-0.070625,0.112125,0.016375,-0.00564575,-0.0550995,0.02259825,0.036375,-0.13925,0.05675,-0.00320425,0.0118407495,-0.012039251,1741897840.230685
-0.074375,0.118125,0.017125,0.000946,-0.046981752,0.0211945,0.037125,-0.137875,0.0555,-0.00096125,0.0065307496,-0.0033722501,1741897840.23839
-0.079,0.1205,0.022125,0.0054780003,-0.04240425,0.020782499,0.039,-0.13025,0.05125,0.00077825,0.00331125,0.00143425,1741897840.252861
-0.083,0.12125,0.033875,0.0070495,-0.034179747,0.020111,0.03825,-0.1265,0.051625,0.0044707498,-0.0041504996,0.01156625,1741897840.270821
-0.089375,0.129125,0.065375,0.002121,-0.02996825,0.019394,0.032375,-0.125375,0.058875,0.0059967497,-0.00744625,0.016632,1741897840.2819772
-0.08475,0.134375,0.07,-0.00511175,-0.025299,0.01776125,0.030625,-0.1285,0.06325,0.008377,-0.01272575,0.025772,1741897840.296614
-0.078375,0.139375,0.068125,-0.01445,-0.013275251,0.01136775,0.02675,-0.130125,0.07075,0.00918575,-0.015029999,0.02967825,1741897840.311174
-0.068625,0.14825,0.05425,-0.014099,-0.00590525,0.007431,0.0235,-0.125125,0.0735,0.0106965,-0.0190735,0.0368805,1741897840.3257082
-0.066875,0.151125,0.047375,-0.00935375,0.00868225,-0.00080875,0.01775,-0.109,0.079125,0.012054499,-0.020874001,0.0403595,1741897840.3401878
-0.067,0.14675,0.0345,-0.0074615004,0.015274,-0.00491325,0.016125,-0.102875,0.082,0.016265752,-0.024353001,0.04692075,1741897840.354712
-0.067875,0.141125,0.030125,-0.00747675,0.026092501,-0.0110625,0.013875,-0.09975,0.08875,0.018402,-0.02616875,0.049759,1741897840.37281
-0.068375,0.129375,0.0195,-0.00941475,0.03031925,-0.01310725,0.012125,-0.100875,0.092375,0.01985175,-0.02796925,0.05210875,1741897840.383712
-0.066375,0.1265,0.010125,-0.0139465,0.036911,-0.016739,0.010125,-0.1,0.09525,0.020141501,-0.030716,0.05581675,1741897840.3983328
-0.060875,0.128875,-0.012875,-0.01501475,0.039611753,-0.0187225,0.004375,-0.090625,0.097625,0.01956175,-0.03176875,0.05735775,1741897840.4154692
-0.05975,0.1315,-0.02225,-0.014923001,0.042099,-0.02076725,0.001125,-0.08425,0.098625,0.0186615,-0.033935502,0.0604705,1741897840.430314
-0.059375,0.126875,-0.03625,-0.012405501,0.04679875,-0.024536248,-0.005625,-0.0705,0.10375,0.0184785,-0.03518675,0.062088,1741897840.442097
-0.058,0.120125,-0.041875,-0.01095575,0.048782248,-0.02586375,-0.008875,-0.05925,0.111125,0.0189515,-0.03701775,0.0645295,1741897840.456783
-0.055625,0.113875,-0.047125,-0.009140001,0.05137625,-0.02690125,-0.01375,-0.0355,0.130125,0.0194855,-0.0365905,0.0650025,1741897840.471392
-0.04975,0.107125,-0.05575,-0.009002751,0.0519715,-0.0269165,-0.010625,-0.027,0.133875,0.01832575,-0.0345155,0.06343075,1741897840.4864168
-0.0465,0.105125,-0.061125,-0.009597749,0.05207825,-0.026947001,-0.002625,-0.014625,0.13375,0.01640325,-0.03395075,0.0612945,1741897840.500923
-0.042375,0.104375,-0.07325,-0.00962825,0.051773,-0.026840251,-0.001625,-0.003,0.138,0.0110015,-0.0358125,0.055893,1741897840.515525
-0.040125,0.103125,-0.0785,-0.00773625,0.05122375,-0.025970502,-0.00275,0.03375,0.169875,0.00833125,-0.03556825,0.0520325,1741897840.530828
-0.03225,0.095125,-0.08725,-0.0060425,0.05093375,-0.02519225,-0.002,0.043125,0.1765,0.0029907501,-0.029601999,0.04043575,1741897840.544599
-0.028,0.092375,-0.091875,-0.00263975,0.049621496,-0.023178,-0.00075,0.031125,0.159625,0.0012970001,-0.0251465,0.0346985,1741897840.5591848
-0.0205,0.091625,-0.10225,-0.001175,0.048446752,-0.0220795,0.0025,0.035875,0.152,0.0005645,-0.019897498,0.0295105,1741897840.5735822
-0.016375,0.09125,-0.1075,0.00024425,0.0469665,-0.020813,0.00875,0.084625,0.166125,-0.00131225,-0.00883475,0.01596075,1741897840.590705
-0.0125,0.09,-0.11225,0.00270075,0.0427705,-0.01763925,0.008875,0.100875,0.17875,-0.00193775,-0.00254825,0.00621025,1741897840.602612
-0.007125,0.08825,-0.1205,0.00331125,0.0398255,-0.015808,0.007875,0.097625,0.18225,-0.0004425,0.01206975,-0.015090999,1741897840.6172779
-0.00475,0.088375,-0.124125,0.0033570002,0.03230275,-0.012252751,0.0075,0.05775,0.161375,-9.15e-05,0.017883249,-0.02415475,1741897840.6319869
0.0025,0.08775,-0.12925,0.0033570002,0.028015248,-0.01062,0.0075,0.040625,0.149875,-0.00254825,0.02418525,-0.0375825,1741897840.65126
0.00575,0.088,-0.131375,0.00369275,0.01890575,-0.00744625,0.002375,0.02125,0.139,-0.00466925,0.0265045,-0.042572,1741897840.661102
0.00925,0.093875,-0.136125,0.00396725,0.014221249,-0.005844,0.0005,0.01625,0.136875,-0.009719751,0.03067025,-0.050705,1741897840.675646
0.011125,0.096375,-0.137625,0.005005,0.0047302498,-0.002472,-0.002625,0.00575,0.136875,-0.0113525,0.03186025,-0.054077253,1741897840.691251
0.013,0.09575,-0.134875,0.00593575,-0.00013725001,-0.0004425,-0.00525,-0.0055,0.135,-0.012191749,0.034027,-0.0598755,1741897840.710036
0.011875,0.09325,-0.130875,0.0068665,-0.00517275,0.00184625,-0.009,-0.036,0.125625,-0.0126495,0.034911998,-0.06204225,1741897840.719799
0.009625,0.091,-0.12725,0.00712575,-0.01579275,0.0060272496,-0.010125,-0.0475,0.121875,-0.0151215,0.03598025,-0.064621,1741897840.734596
0.002375,0.09375,-0.1225,0.00671375,-0.021087749,0.0075682504,-0.009,-0.056625,0.11225,-0.01664725,0.036132753,-0.06546025,1741897840.751164
-0.002,0.09775,-0.11975,0.0073547503,-0.03022775,0.009933501,-0.007625,-0.060125,0.106625,-0.01756275,0.0344695,-0.06549075,1741897840.7642188
-0.01075,0.10225,-0.110375,0.00846875,-0.033981252,0.01091,-0.005,-0.075125,0.102,-0.016983,0.0330505,-0.064437754,1741897840.779026
-0.014125,0.10125,-0.1045,0.010559,-0.040649503,0.012252751,-0.002375,-0.085625,0.101,-0.0157775,0.030914249,-0.061035253,1741897840.793772
-0.02075,0.099,-0.0925,0.01104725,-0.0437775,0.012557999,0.0045,-0.104375,0.09675,-0.01589975,0.03005975,-0.059326246,1741897840.811538
-0.025875,0.099,-0.086625,0.0112915,-0.04930125,0.012832751,0.00675,-0.111875,0.093125,-0.0164795,0.0293885,-0.057662997,1741897840.822997
-0.037,0.100875,-0.074875,0.011398249,-0.05148325,0.01322925,0.007875,-0.1175,0.089125,-0.01791375,0.028259251,-0.05384825,1741897840.837688
-0.0415,0.101625,-0.06975,0.0115967505,-0.053329498,0.0138245,0.00825,-0.12125,0.08125,-0.01826475,0.027481,-0.05159,1741897840.8523881
-0.046375,0.102375,-0.06325,0.011795,-0.056244,0.01504525,0.008625,-0.122375,0.0785,-0.017547501,0.025390498,-0.04559325,1741897840.867028
-0.05925,0.105375,-0.0395,0.011016751,-0.05720525,0.0153807495,0.01375,-0.129125,0.0735,-0.016159,0.023758,-0.0417785,1741897840.881871
-0.06525,0.106375,-0.0245,0.0068512503,-0.057235748,0.0158845,0.017,-0.13475,0.07225,-0.011810251,0.019638,-0.0332185,1741897840.896429
-0.069375,0.10475,0.001875,0.00485225,-0.0558015,0.01622,0.023375,-0.143875,0.067875,-0.0094604995,0.017608749,-0.028991751,1741897840.911094
-0.071125,0.106375,0.014625,0.00059500005,-0.051056,0.01631175,0.025625,-0.148375,0.0635,-0.0055847503,0.01310725,-0.020523,1741897840.929683
-0.07525,0.11875,0.040875,-0.00115975,-0.047530998,0.01567075,0.03,-0.14975,0.055625,-0.0042115003,0.010437001,-0.015808,1741897840.940502
-0.076125,0.126375,0.053375,-0.0033570002,-0.037506,0.013214,0.03325,-0.145625,0.05275,-0.00115975,0.00419625,-0.00543225,1741897840.955297
-0.071625,0.137125,0.071625,-0.0039215,-0.031265248,0.0116425,0.037375,-0.13525,0.05025,0.00109875,0.0007325,-0.000183,1741897840.970818
-0.0695,0.141375,0.077,-0.0043944996,-0.024688749,0.009811499,0.036875,-0.13275,0.051375,0.0057372497,-0.0062407497,0.009842,1741897840.984399
-0.06925,0.144875,0.080125,-0.00466925,-0.01095575,0.0054475004,0.03075,-0.132125,0.059125,0.0072480002,-0.00935375,0.014618,1741897840.998949
-0.0675,0.14625,0.074625,-0.00460825,-0.0038757501,0.003128,0.028125,-0.131375,0.062,0.008727999,-0.01445,0.023117,1741897841.013512
-0.065,0.1455,0.064875,-0.0047607496,0.009613,-0.00225825,0.023625,-0.12825,0.065125,0.009002751,-0.016723748,0.0267945,1741897841.03088
-0.060375,0.141875,0.042,-0.004776,0.0156555,-0.00520325,0.0215,-0.123625,0.06775,0.009262,-0.018890498,0.0302125,1741897841.0426838
-0.05875,0.139375,0.032625,-0.00378425,0.02613825,-0.00997925,0.016875,-0.11,0.07475,0.010879501,-0.0228425,0.0368195,1741897841.057207
-0.057,0.131,0.016,-0.003418,0.03047175,-0.01171875,0.0145,-0.103375,0.077875,0.0123595,-0.024780251,0.03993225,1741897841.07182
-0.056,0.125375,0.007,-0.00453175,0.037063498,-0.014038,0.012,-0.099125,0.080875,0.0153655,-0.02861025,0.045287997,1741897841.0907462
-0.0515,0.11725,-0.013375,-0.005539,0.03933725,-0.01469425,0.008625,-0.0975,0.086,0.01643375,-0.03031925,0.047638,1741897841.101179
-0.048625,0.115375,-0.0225,-0.00640875,0.04104625,-0.015075751,0.00675,-0.097125,0.089,0.016876249,-0.03329475,0.051498502,1741897841.1156979
-0.0465,0.11425,-0.030375,-0.007309,0.043258753,-0.0158385,0.00125,-0.090125,0.098,0.016265752,-0.034484748,0.052856497,1741897841.1310232
-0.042875,0.11225,-0.04475,-0.0072175004,0.044098,-0.0160675,-0.0025,-0.084875,0.104,0.01463325,-0.03572075,0.054977503,1741897841.145021
-0.04025,0.11,-0.050625,-0.0059510004,0.045608502,-0.015625,-0.008625,-0.073625,0.114375,0.01402275,-0.035888746,0.05612175,1741897841.159606
-0.033125,0.10625,-0.06225,-0.005066,0.04623425,-0.0150605,-0.01,-0.06675,0.117125,0.0137635,-0.0359955,0.058288503,1741897841.174297
-0.02925,0.105625,-0.069,-0.0033264998,0.04653925,-0.0139770005,-0.008875,-0.051,0.119875,0.014358499,-0.036255002,0.05906675,1741897841.190294
-0.02275,0.104875,-0.079375,-0.002472,0.046051,-0.013564999,-0.00925,-0.044125,0.12475,0.015564,-0.036743253,0.059021,1741897841.2038069
-0.019625,0.104,-0.083,-0.0004425,0.043991,-0.01272575,-0.015125,-0.0345,0.13925,0.0149535,-0.03575125,0.058426,1741897841.218581
-0.014375,0.103125,-0.087875,0.00048825,0.0424805,-0.01222225,-0.014125,-0.022875,0.14525,0.0097045,-0.03094475,0.055236753,1741897841.233314
-0.01275,0.103625,-0.089875,0.0016785001,0.0384675,-0.01098625,-0.002125,-0.0065,0.14625,0.0059967497,-0.028716998,0.0522155,1741897841.2505941
-0.00975,0.105875,-0.094,0.00216675,0.03601075,-0.0102235,0.002125,-0.003125,0.14275,0.00302125,-0.028305,0.04936225,1741897841.262553
-0.0085,0.1085,-0.096125,0.0028229998,0.033264253,-0.009552,0.004,0.004125,0.1345,-3.0500001e-05,-0.02934275,0.044464,1741897841.277295
-0.005625,0.112125,-0.100625,0.0058135,0.0274505,-0.008727999,0.006,0.009875,0.1335,-0.000946,-0.02996825,0.04208375,1741897841.2919
-0.003375,0.11325,-0.102375,0.0077972496,0.02452075,-0.008285499,0.00425,0.0195,0.138625,-0.00213625,-0.027237,0.036499,1741897841.307151
-0.00125,0.115625,-0.10525,0.0102845,0.01823425,-0.0077515002,-0.000875,0.042,0.152875,-0.0023039998,-0.02211,0.03123475,1741897841.3209941
0.00425,0.118875,-0.11,0.010559,0.01469425,-0.00794975,-0.000875,0.0525,0.16125,-0.00231925,-0.0112305,0.01649475,1741897841.3356018
0.007375,0.116875,-0.109625,0.01142875,0.0075377496,-0.00811775,0.0045,0.065625,0.169375,-0.00115975,-0.00546275,0.0086975,1741897841.354937
0.009625,0.11475,-0.10675,0.01210025,0.0038757501,-0.0075072497,0.006,0.0625,0.165625,0.00163275,0.0064545004,-0.00773625,1741897841.364918
0.0085,0.115875,-0.104625,0.014267,-0.0033264998,-0.0043335,0.006625,0.040625,0.14825,0.0018615,0.011306751,-0.01560975,1741897841.379337
0.0075,0.115125,-0.100375,0.015854,-0.0065917503,-0.00204475,0.00675,0.0325,0.142625,-0.00065625,0.01779175,-0.029007,1741897841.3940191
0.007125,0.115125,-0.098,0.017105,-0.0099945,0.00013725001,0.004,0.028125,0.145375,-0.0022735,0.020782499,-0.034835752,1741897841.411187
0.00275,0.115625,-0.092375,0.017105,-0.01826475,0.0026092501,0.002875,0.02575,0.1465,-0.00364675,0.027832001,-0.044983003,1741897841.4231942
-0.0005,0.11525,-0.08825,0.016159,-0.02297975,0.0029755002,0.00125,0.013375,0.141125,-0.00355525,0.029892,-0.04885875,1741897841.437811
-0.004125,0.1145,-0.083,0.01396175,-0.03259275,0.002411,-0.003125,0.00225,0.1385,-0.003418,0.03067025,-0.0542145,1741897841.452409
-0.011875,0.110875,-0.07175,0.01278675,-0.037063498,0.001648,-0.013125,-0.02175,0.13525,-0.0044555003,0.0316315,-0.05653375,1741897841.470718
-0.015625,0.108625,-0.066625,0.0106965,-0.04467775,0.00096125,-0.013375,-0.03175,0.13325,-0.006256,0.0333405,-0.05865475,1741897841.482133
-0.025625,0.101875,-0.05375,0.00962825,-0.047699,0.00148,-0.00575,-0.048,0.13075,-0.010498,0.036758497,-0.061554,1741897841.496929
-0.03225,0.10125,-0.04325,0.006836,-0.051880002,0.00367725,-0.002375,-0.054625,0.131125,-0.01222225,0.037704498,-0.062439,1741897841.511611
-0.045625,0.106875,-0.013375,0.00511175,-0.0526275,0.0046845004,-0.001375,-0.062375,0.130375,-0.014343251,0.038147,-0.06352225,1741897841.530804
-0.0495,0.108375,0.002875,0.00115975,-0.050231997,0.006256,-0.003125,-0.080125,0.117875,-0.0154115,0.03775025,-0.06352225,1741897841.541031
-0.048125,0.108125,0.02575,-0.00115975,-0.04745475,0.0069580004,-0.004125,-0.08875,0.110875,-0.018188499,0.03578175,-0.06166075,1741897841.5559711
-0.047,0.110125,0.0345,-0.0033722501,-0.044235248,0.007553,-0.005,-0.101875,0.100875,-0.01855475,0.034835752,-0.059203997,1741897841.570624
-0.04625,0.113,0.04075,-0.0055695,-0.037048247,0.0081025,-0.002625,-0.10725,0.096375,-0.0161895,0.03347775,-0.05216975,1741897841.589618
-0.048125,0.12075,0.05125,-0.00585925,-0.033615,0.008026,0.004375,-0.11525,0.08775,-0.01440425,0.032409754,-0.04824825,1741897841.600054
-0.052,0.126375,0.062625,-0.00538625,-0.02610775,0.0072480002,0.007375,-0.118125,0.08475,-0.01200875,0.029953,-0.041061502,1741897841.6146948
-0.05825,0.132875,0.089125,-0.0050202496,-0.020996,0.0064239996,0.01225,-0.122375,0.076375,-0.012146,0.028716998,-0.03810125,1741897841.633916
-0.058375,0.13425,0.095125,-0.0047912505,-0.008133001,0.0042115003,0.01475,-0.122875,0.072125,-0.0134735005,0.0252075,-0.032852247,1741897841.644156
-0.056,0.1365,0.085625,-0.0051269997,-0.00109875,0.0026854998,0.019,-0.11825,0.066375,-0.01358025,0.0230255,-0.030181998,1741897841.658819
-0.05325,0.135375,0.070375,-0.0070037497,0.01133725,-0.000824,0.02225,-0.116125,0.06425,-0.012039251,0.018615749,-0.024475,1741897841.673634
-0.0475,0.137125,0.044375,-0.0078735,0.01599125,-0.0023497501,0.0275,-0.117,0.05925,-0.0110015,0.01664725,-0.02153025,1741897841.690801
-0.047125,0.139,0.037375,-0.0080567505,0.020049999,-0.00381475,0.03025,-0.117625,0.055375,-0.00830075,0.0118407495,-0.01531975,1741897841.703051
-0.048375,0.13875,0.032625,-0.00672925,0.02737425,-0.00694275,0.0315,-0.119375,0.052125,-0.006012,0.00862125,-0.0116425,1741897841.717707
-0.050375,0.129375,0.02275,-0.00617975,0.03067025,-0.00823975,0.03075,-0.121125,0.053,-0.000229,0.0023039998,-0.00308225,1741897841.732327
-0.04875,0.122375,0.0155,-0.00662225,0.036209,-0.0089569995,0.03175,-0.125,0.057,0.002365,-0.00057975,0.0013885,1741897841.750189
-0.042875,0.116375,-0.001625,-0.00747675,0.038131747,-0.00862125,0.033125,-0.125125,0.0595,0.0043182503,-0.0034637498,0.0057220003,1741897841.761436
-0.041,0.119,-0.009375,-0.00846875,0.040756248,-0.008209251,0.0345,-0.122,0.06475,0.0062407497,-0.00868225,0.013564999,1741897841.775933
-0.03725,0.122875,-0.025,-0.008026,0.04190075,-0.008377,0.034125,-0.120125,0.06675,0.0067597497,-0.010818499,0.016983,1741897841.791949
-0.034875,0.122875,-0.032875,-0.0056,0.04373175,-0.009002751,0.033125,-0.11875,0.06825,0.008407501,-0.014785751,0.023254499,1741897841.8056672
-0.03,0.1195,-0.048,-0.00402825,0.04429625,-0.0091705,0.03,-0.11575,0.07025,0.00953675,-0.0168,0.02630625,1741897841.82012
-0.027625,0.117,-0.05425,-0.0014495,0.044326752,-0.008773751,0.027625,-0.113625,0.072125,0.0118407495,-0.02091975,0.032714747,1741897841.834621
-0.022375,0.111875,-0.06475,-0.00080875,0.04382325,-0.00830075,0.022,-0.110875,0.0785,0.012847999,-0.02288825,0.03598025,1741897841.850049
-0.0195,0.111125,-0.06975,-0.00051875,0.04296875,-0.0077972496,0.01875,-0.108625,0.08325,0.01431275,-0.026428249,0.0419465,1741897841.863604
-0.016375,0.110625,-0.075125,-0.000885,0.039794996,-0.00717175,0.011125,-0.102375,0.095375,0.014862,-0.027847249,0.04452525,1741897841.8782122
-0.01025,0.1085,-0.0855,-0.001419,0.037506,-0.0068207504,0.007125,-0.0995,0.100625,0.015808,-0.029571502,0.04925525,1741897841.8926961
-0.00775,0.108375,-0.090125,-0.0020752498,0.0317535,-0.0056915004,0.00425,-0.088375,0.109,0.01634225,-0.030181998,0.051361,1741897841.911082
-0.00225,0.1095,-0.098875,-0.00198375,0.028366,-0.0050355,0.004875,-0.0805,0.112125,0.017608749,-0.03097525,0.054657,1741897841.921938
0.001375,0.11,-0.10275,-0.00099175,0.02095025,-0.003662,0.00475,-0.072125,0.113,0.017929,-0.03117375,0.055786252,1741897841.936434
0.008625,0.110625,-0.108,-0.00030525,0.016998248,-0.0029449998,0.00275,-0.071,0.113,0.0177155,-0.0314025,0.05682375,1741897841.9512289
0.01125,0.110875,-0.109,0.00090025004,0.008484,-0.00148,-0.000375,-0.06925,0.114,0.0157165,-0.03189075,0.058776747,1741897841.965514
0.0145,0.10775,-0.10775,0.0012970001,0.0039215,-0.00054925,-0.00375,-0.05025,0.126625,0.014419501,-0.03173825,0.059433,1741897841.9802969
0.01425,0.106125,-0.1065,0.001648,-0.000763,0.000763,-0.001375,-0.028,0.140125,0.013153,-0.0290985,0.057724,1741897841.995114
0.009125,0.10875,-0.10425,0.0023497501,-0.0103455,0.004013,0.0035,0.003375,0.159375,0.0129700005,-0.02674875,0.054870497,1741897842.010784
0.00575,0.110625,-0.10325,0.0025025,-0.0151825,0.005249,0.006375,0.003,0.157875,0.01148975,-0.0209655,0.048782248,1741897842.0241148
0.002375,0.11075,-0.10225,0.0023497501,-0.02462775,0.006775,0.0155,-0.0035,0.13625,0.00991825,-0.01852425,0.0462495,1741897842.038618
-0.00525,0.110375,-0.099375,0.0019989999,-0.0292815,0.0072480002,0.0165,-0.003625,0.12775,0.0043182503,-0.01741025,0.039978,1741897842.0531971
-0.0095,0.110375,-0.096625,0.0012665,-0.037963748,0.0079345,0.011625,0.027375,0.14475,0.0013885,-0.01719675,0.0365905,1741897842.070422
-0.01775,0.109125,-0.08775,0.0013275,-0.041702252,0.00833125,0.013625,0.055375,0.16175,-0.00198375,-0.01062,0.025833251,1741897842.082151
-0.021,0.107625,-0.083,0.0021057501,-0.047622748,0.009506251,0.018375,0.068875,0.170125,-0.001831,-0.0058899997,0.01835625,1741897842.0966249
-0.027375,0.107125,-0.0745,0.002365,-0.050125,0.010147001,0.017375,0.05475,0.161,-0.000183,0.0027312501,0.004486,1741897842.1122591
-0.031375,0.10775,-0.071125,0.00225825,-0.052474998,0.01071175,0.0195,0.04175,0.14075,-0.0007325,0.00593575,-0.00175475,1741897842.126435
-0.03875,0.10675,-0.06225,0.0010375,-0.056656,0.011795,0.02,0.046,0.139875,-0.0023039998,0.00839225,-0.008194,1741897842.140243
-0.042875,0.106375,-0.05525,0.0002135,-0.058349498,0.01248175,0.0185,0.051625,0.142875,-0.00564575,0.01289375,-0.021881001,1741897842.154687
-0.048,0.106875,-0.046375,-0.00146475,-0.06027225,0.014053251,0.012375,0.050375,0.142875,-0.0064545004,0.015228249,-0.02848825,1741897842.171754
-0.059625,0.11025,-0.022125,-0.00292975,-0.060287498,0.0149535,0.00825,0.04425,0.140875,-0.0068969997,0.0194245,-0.03958125,1741897842.183948
-0.063625,0.112375,-0.00925,-0.0060272496,-0.05738825,0.017212,0.001125,0.0245,0.130375,-0.00691225,0.021453751,-0.044113252,1741897842.1984
-0.063,0.1145,-0.0025,-0.006836,-0.05496225,0.01820375,-0.0005,0.013,0.1245,-0.008270251,0.024780251,-0.05189525,1741897842.213023
-0.06325,0.11675,-0.00225,-0.0069580004,-0.0507965,0.018631,-0.00325,-0.00625,0.121,-0.009582501,0.02595525,-0.05508425,1741897842.230929
-0.073875,0.127625,0.017375,-0.0061950004,-0.048446752,0.018020751,-0.005125,-0.01675,0.12225,-0.012329,0.027526751,-0.05982975,1741897842.24257
-0.07925,0.132,0.033875,-0.00437925,-0.040268,0.01596075,-0.006,-0.03975,0.126,-0.0136565,0.028061,-0.061432,1741897842.257313
-0.08,0.1315,0.05775,-0.0041504996,-0.03445425,0.014846751,-0.004875,-0.050625,0.12675,-0.016143749,0.02870175,-0.06375125,1741897842.272025
-0.076625,0.12925,0.06125,-0.0048065,-0.028137252,0.013717749,-0.00425,-0.07075,0.12175,-0.017151,0.028534,-0.0645295,1741897842.286853
-0.073375,0.13,0.061875,-0.0075835,-0.016037,0.010727,-0.00475,-0.07925,0.116125,-0.017929,0.027984502,-0.0641175,1741897842.301594
-0.071625,0.13875,0.0615,-0.00846875,-0.00997925,0.008346501,-0.0045,-0.091625,0.1045,-0.01782225,0.027526751,-0.06269825,1741897842.31636
-0.071,0.142375,0.058,-0.007782,0.003296,0.0016175,-0.003,-0.096625,0.100625,-0.01744075,0.026428249,-0.05812075,1741897842.335326
-0.06725,0.13975,0.041,-0.006607,0.010009751,-0.002365,0.00325,-0.11025,0.095875,-0.01731875,0.02604675,-0.05517575,1741897842.34603
-0.0655,0.137125,0.032,-0.0030975002,0.022171,-0.0091095,0.00625,-0.118125,0.094625,-0.018402,0.02516175,-0.04898075,1741897842.360704
-0.064625,0.13475,0.018625,-0.0012665,0.0275115,-0.0115815,0.013875,-0.125875,0.093375,-0.019226,0.024536248,-0.046112,1741897842.37535
-0.065125,0.133125,0.011875,0.00143425,0.03654475,-0.01554875,0.016875,-0.126,0.093,-0.0196075,0.02371225,-0.043518003,1741897842.391256
-0.069,0.1305,-0.002875,0.0020295,0.03993225,-0.01693725,0.01775,-0.127,0.090875,-0.01799,0.02183525,-0.038452253,1741897842.4048069
-0.0695,0.121375,-0.009875,0.00184625,0.04281625,-0.018035999,0.018375,-0.131875,0.0805,-0.01608275,0.02076725,-0.03530875,1741897842.4194639
-0.063375,0.113125,-0.02675,-0.0002135,0.04544075,-0.017608749,0.021375,-0.1355,0.07275,-0.011139,0.017807,-0.027252251,1741897842.434025
-0.061125,0.122875,-0.039,-0.00090025004,0.045578,-0.017700251,0.030375,-0.141875,0.059625,-0.008590749,0.015594499,-0.02262875,1741897842.452676
-0.060375,0.1205,-0.05375,-0.0010375,0.0454255,-0.018463248,0.03375,-0.144,0.056375,-0.0041044997,0.010101249,-0.013122501,1741897842.46353
-0.04625,0.11775,-0.096625,-0.00064075,0.0436095,-0.01756275,0.036375,-0.143625,0.056375,-0.002243,0.0073547503,-0.008361749,1741897842.4782279
-0.038125,0.12,-0.10675,0.00393675,0.03901675,-0.015090999,0.036875,-0.140625,0.057125,0.0013580001,0.0020752498,0.00099175,1741897842.492578
-0.011875,0.10875,-0.10875,0.008377,0.037887502,-0.014557,0.037625,-0.13175,0.05875,0.0031127501,-0.000824,0.0056915004,1741897842.511349
-0.00075,0.113625,-0.099125,0.0177155,0.03701775,-0.014679,0.036875,-0.127625,0.059875,0.0062712496,-0.00646975,0.01481625,1741897842.521617
-0.010125,0.128875,-0.049,0.021988,0.038849,-0.01678475,0.034,-0.12425,0.063125,0.0076905,-0.00897225,0.018814,1741897842.536146
-0.017625,0.12725,-0.035,0.026825001,0.045410253,-0.020049999,0.032875,-0.1235,0.066375,0.0103455,-0.013351499,0.02548225,1741897842.551342
-0.012,0.102875,-0.047,0.02619925,0.04736325,-0.019927999,0.0285,-0.120125,0.074625,0.01148975,-0.015167249,0.0281525,1741897842.565817
0.002625,0.08725,-0.06175,0.02297975,0.046203498,-0.017455999,0.02425,-0.117875,0.078625,0.01248175,-0.016693002,0.03067025,1741897842.579657
0.01775,0.082,-0.070625,0.009140001,0.036132753,-0.0089569995,0.02025,-0.115,0.0815,0.014557,-0.0192565,0.0359955,1741897842.5942469
0.03,0.097125,-0.079625,0.0019225,0.0302125,-0.0057525,0.0145,-0.1105,0.085375,0.0157165,-0.0206145,0.039093,1741897842.611105
0.02875,0.1115,-0.08125,-0.00369275,0.021087749,-0.0036315,0.013375,-0.10975,0.08725,0.01782225,-0.0236665,0.04553225,1741897842.6234372
0.02875,0.117,-0.088125,-0.00263975,0.017624,-0.0039215,0.009125,-0.111,0.095625,0.0185395,-0.0251465,0.048462003,1741897842.638026
0.0285,0.1145,-0.090625,0.00137325,0.010009751,-0.00367725,0.00475,-0.10975,0.10125,0.0190735,-0.027298,0.053772,1741897842.652668
0.021,0.112,-0.08975,0.0029755002,0.00587475,-0.0029907501,-0.003875,-0.10075,0.106375,0.019027751,-0.028244,0.0562135,1741897842.6704571
0.015125,0.11375,-0.088125,0.004013,0.001648,-0.00193775,-0.007375,-0.095125,0.106,0.0186005,-0.03044125,0.06106575,1741897842.682016
0.00975,0.116875,-0.08675,0.0042115003,-0.0066374997,0.0005645,-0.01275,-0.087125,0.10475,0.018188499,-0.0315095,0.063446,1741897842.696707
0.00575,0.117625,-0.0875,0.00352475,-0.0106355,0.00177,-0.014625,-0.081,0.106875,0.016739,-0.03329475,0.0672455,1741897842.711304
0.005625,0.116625,-0.0885,0.00083925005,-0.01899725,0.0035095,-0.0185,-0.054,0.119125,0.01617425,-0.033966,0.06839,1741897842.726134
0.004375,0.11825,-0.089625,-0.00090025004,-0.023528999,0.0036315,-0.0185,-0.033375,0.128875,0.016296498,-0.033615,0.06855775,1741897842.740732
0.002375,0.1175,-0.0885,-0.002365,-0.032333247,0.00279225,-0.017125,-0.00675,0.145375,0.01646425,-0.03224175,0.067154,1741897842.755405
-0.00225,0.113375,-0.0825,-0.00190725,-0.036209,0.00267025,-0.013875,-0.007875,0.143125,0.014618,-0.02760325,0.06304925,1741897842.771874
-0.004625,0.11325,-0.078125,-0.00083925005,-0.043075502,0.0033875,0.002875,-0.007375,0.12225,0.0122985,-0.02598575,0.06033325,1741897842.7846222
-0.009625,0.111625,-0.06925,-0.00119025,-0.04628,0.004013,0.00475,-0.00075,0.117625,0.00976575,-0.0264435,0.057021998,1741897842.799177
-0.013,0.109625,-0.066,-0.0021819999,-0.04936225,0.0049742498,-0.001875,0.013125,0.127625,0.00590525,-0.030075,0.05099475,1741897842.813646
-0.017375,0.10825,-0.063,-0.0047455,-0.05517575,0.00785825,-0.00125,0.065375,0.163375,0.00517275,-0.02879325,0.047409,1741897842.8282309
-0.02875,0.1085,-0.05525,-0.00585925,-0.057785,0.00941475,0.0025,0.083625,0.17825,0.0061645,-0.02149975,0.035141,1741897842.842627
-0.03575,0.110125,-0.046375,-0.006668,-0.061523497,0.012329,0.00925,0.077875,0.174125,0.0066985004,-0.015213001,0.026291,1741897842.857066
-0.0475,0.10725,-0.023125,-0.00643925,-0.06181325,0.013717749,0.012,0.06775,0.162,0.0036010002,-0.0036162501,0.008209251,1741897842.871516
-0.051625,0.104875,-0.011625,-0.0055237496,-0.0592805,0.01690675,0.018,0.06325,0.14275,0.00077825,0.0009155,-0.000183,1741897842.886595
-0.060875,0.109,0.013,-0.0057677496,-0.056991503,0.01823425,0.018,0.064,0.141875,-0.00279225,0.0077210004,-0.016540501,1741897842.900617
-0.06525,0.117,0.024,-0.008224499,-0.050476003,0.01855475,0.012375,0.054625,0.149625,-0.00314325,0.0106355,-0.023620501,1741897842.915139
-0.073875,0.130875,0.035625,-0.009017999,-0.0459595,0.017608749,0.009125,0.0485,0.153875,-0.003006,0.01652525,-0.035202,1741897842.930142
-0.078375,0.132375,0.0415,-0.009201,-0.035949748,0.014724749,-0.0005,0.027875,0.151875,-0.0029145,0.01937875,-0.04031375,1741897842.944233
-0.0865,0.13925,0.057875,-0.00883475,-0.030181998,0.012680001,-0.00475,0.014875,0.1455,-0.003296,0.0218505,-0.04493725,1741897842.958821
-0.08875,0.143875,0.063625,-0.00798025,-0.02359,0.010086001,-0.00825,0.003375,0.138625,-0.0052795,0.024704,-0.0519715,1741897842.973464
-0.089,0.148375,0.06725,-0.0049895,-0.00883475,0.00419625,-0.01225,-0.009375,0.13125,-0.00646975,0.025940001,-0.05485525,1741897842.989985
-0.08225,0.15225,0.065375,-0.00354,-0.0013580001,0.001068,-0.013625,-0.016625,0.129625,-0.008788999,0.02882375,-0.059768748,1741897843.002849
-0.076625,0.150375,0.05925,-0.0020295,0.01245125,-0.00531,-0.012,-0.036,0.126125,-0.0101775,0.03019725,-0.061493002,1741897843.0175319
-0.069,0.14425,0.0465,-0.0016632499,0.0186005,-0.008270251,-0.009375,-0.04525,0.124125,-0.01345825,0.0319215,-0.06378175,1741897843.032296
-0.067625,0.141125,0.041125,-0.00061025,0.0301055,-0.0128785,-0.007875,-0.06225,0.1205,-0.0149535,0.03205875,-0.064361505,1741897843.050713
-0.065625,0.1345,0.029375,-4.575e-05,0.0353545,-0.01452625,-0.008375,-0.07,0.1175,-0.017212,0.031356752,-0.0641175,1741897843.061832
-0.0655,0.1315,0.02325,0.0003815,0.044342,-0.017120251,-0.005375,-0.08625,0.109,-0.018188499,0.03070075,-0.06327825,1741897843.076517
-0.065625,0.124875,0.012125,0.00016775,0.048049998,-0.0180665,-0.001,-0.093875,0.105625,-0.01976025,0.02905275,-0.06004325,1741897843.0913239
-0.065,0.12275,0.006375,-0.00013725001,0.051361,-0.0186615,0.00625,-0.10425,0.10075,-0.019897498,0.02848825,-0.05796825,1741897843.106699
-0.063375,0.121375,-0.001,-0.00051875,0.056762747,-0.019104,0.007125,-0.107625,0.098375,-0.0193635,0.027481,-0.0535735,1741897843.12061
-0.057625,0.120375,-0.01825,-0.00042725,0.05868525,-0.019134501,0.007375,-0.112625,0.0925,-0.0189515,0.026840251,-0.051086497,1741897843.1352189
-0.054875,0.12125,-0.025,-4.575e-05,0.061141998,-0.018982,0.009,-0.114375,0.08875,-0.018402,0.0254365,-0.0454255,1741897843.151339
-0.04925,0.122375,-0.036125,0.00029,0.06213375,-0.018615749,0.016125,-0.117625,0.0815,-0.018158002,0.024505502,-0.042419497,1741897843.1643672
-0.0455,0.121125,-0.04475,0.00239575,0.06390375,-0.01731875,0.020125,-0.12225,0.078875,-0.01763925,0.0232085,-0.039367747,1741897843.178998
-0.039875,0.1195,-0.060625,0.0037537501,0.06410225,-0.016570998,0.0275,-0.13175,0.07475,-0.01525875,0.020019501,-0.0331725,1741897843.1936939
-0.038125,0.12025,-0.0665,0.0053709997,0.06263725,-0.0152435,0.02975,-0.135125,0.070875,-0.013443,0.01849375,-0.0301665,1741897843.209962
-0.0325,0.12175,-0.076375,0.0052947504,0.0610505,-0.014938249,0.031125,-0.137,0.065625,-0.0093995,0.0151825,-0.02386475,1741897843.222969
-0.02925,0.120375,-0.08175,0.0049742498,0.0591125,-0.0149995005,0.033875,-0.136875,0.056625,-0.0072632497,0.013061499,-0.02009575,1741897843.237599
-0.025875,0.118875,-0.08825,0.0050812503,0.0546265,-0.0152435,0.03575,-0.136,0.05475,-0.0026245,0.0077667497,-0.011016751,1741897843.2522502
-0.019625,0.119125,-0.099875,0.00555425,0.052001998,-0.015274,0.039375,-0.1355,0.054375,-0.0005035,0.005005,-0.0061339997,1741897843.26738
-0.01575,0.1175,-0.10375,0.0065002497,0.045700002,-0.01531975,0.0405,-0.13525,0.0555,0.003128,-0.00096125,0.0030365,1741897843.28135
-0.005625,0.11175,-0.10825,0.0068665,0.041916,-0.01504525,0.037375,-0.1325,0.059125,0.00453175,-0.00411975,0.0073547503,1741897843.295941
0.000125,0.109375,-0.110625,0.00782775,0.033569247,-0.013626001,0.033875,-0.13,0.06125,0.0064850003,-0.009796251,0.01586925,1741897843.313919
0.012,0.1075,-0.1135,0.0088195,0.029266251,-0.012542751,0.0275,-0.1215,0.065625,0.0072632497,-0.012207,0.01988225,1741897843.3249128
0.01725,0.106,-0.11425,0.010391249,0.01988225,-0.010391249,0.02575,-0.119125,0.0675,0.0088195,-0.01640325,0.02708425,1741897843.3394718
0.02475,0.099625,-0.111,0.00991825,0.014328,-0.009323,0.024375,-0.117,0.073875,0.009582501,-0.018310498,0.030304002,1741897843.3539681
0.02675,0.09625,-0.108125,0.008545,0.00830075,-0.008026,0.02275,-0.11475,0.078,0.010604749,-0.0200805,0.0331115,1741897843.370938
0.02675,0.0955,-0.1045,0.0048217503,-0.004242,-0.00437925,0.014875,-0.108,0.086,0.01322925,-0.02342225,0.038131747,1741897843.382966
0.023125,0.096,-0.096125,0.0031585,-0.01020825,-0.00239575,0.010125,-0.10425,0.089875,0.014343251,-0.024932751,0.040863,1741897843.3974679
0.020625,0.096875,-0.093,0.0002595,-0.02076725,0.00112925,0.00625,-0.100625,0.093,0.01622,-0.0274505,0.046737753,1741897843.411977
0.015,0.10075,-0.090125,-0.00077825,-0.025268499,0.0025940002,0.0025,-0.09525,0.09675,0.01693725,-0.02857975,0.04957575,1741897843.430677
0.01175,0.10325,-0.088125,-0.0014495,-0.033081003,0.0049590003,0.000625,-0.093375,0.09975,0.017395,-0.030777,0.054245,1741897843.4409401
0.004,0.1055,-0.081,-0.0013580001,-0.0365295,0.00590525,-0.00575,-0.087375,0.108,0.01719675,-0.0317535,0.05606075,1741897843.455532
-0.000125,0.1065,-0.077125,-0.0013427499,-0.042861998,0.007782,-0.0085,-0.082125,0.111625,0.01617425,-0.032852247,0.0589905,1741897843.47052
-0.009125,0.112875,-0.072,-0.0016785001,-0.04597475,0.008636501,-0.0105,-0.06525,0.1165,0.015625,-0.03318775,0.060028,1741897843.484734
-0.013875,0.1165,-0.0705,-0.0023497501,-0.049209498,0.009384249,-0.010125,-0.05175,0.12075,0.01542675,-0.033554003,0.06100475,1741897843.4994612
-0.0185,0.119,-0.0685,-0.00413525,-0.055770747,0.01071175,-0.0095,-0.026625,0.13475,0.015808,-0.033203,0.06065375,1741897843.514101
-0.027,0.118625,-0.062125,-0.00494375,-0.058776747,0.011260999,-0.0095,-0.02425,0.137875,0.01554875,-0.031128,0.0586395,1741897843.5312798
-0.03125,0.116875,-0.058625,-0.0063325,-0.06393425,0.012191749,-0.0065,-0.029375,0.131875,0.01431275,-0.029953,0.05738825,1741897843.543335
-0.040875,0.116375,-0.051875,-0.006775,-0.065979,0.01266475,-0.00575,-0.022,0.1355,0.0119934995,-0.0290375,0.0557555,1741897843.5579689
-0.046625,0.117625,-0.045,-0.0069885002,-0.06852725,0.013717749,-0.00275,0.02,0.158875,0.007553,-0.024993999,0.05043025,1741897843.572439
-0.057875,0.120625,-0.018125,-0.0071105,-0.0683135,0.0142365,0.00225,0.03825,0.165,0.0064239996,-0.0219115,0.045715246,1741897843.590966
-0.057875,0.11725,-0.007875,-0.008316,-0.06463625,0.01579275,0.00575,0.048375,0.1655,0.006546,-0.016448999,0.034134,1741897843.6012979
-0.051875,0.1115,-0.003,-0.0084379995,-0.06222525,0.0169525,0.00925,0.045625,0.151,0.0073395,-0.01295475,0.028442498,1741897843.6157272
-0.050875,0.110625,-0.004625,-0.0068207504,-0.058273252,0.01841725,0.0115,0.04175,0.145125,0.0057525,-0.0069274995,0.017212,1741897843.63034
-0.056125,0.112875,-0.0005,-0.0053252503,-0.056778,0.01896675,0.01275,0.048375,0.153625,0.00340275,-0.0042115003,0.0110625,1741897843.644852
-0.061875,0.1155,0.007375,-0.0036162501,-0.055343498,0.01965325,0.013,0.0545,0.15875,-0.000534,0.0034790002,-0.003296,1741897843.659358
-0.07025,0.1195,0.02175,-0.0034790002,-0.05169675,0.02026375,0.016125,0.051375,0.152875,-0.0012055,0.0073547503,-0.01071175,1741897843.673874
-0.083,0.1255,0.058875,-0.0064850003,-0.04821775,0.019927999,0.015625,0.042125,0.14575,-0.00169375,0.01248175,-0.023178,1741897843.6910021
-0.0785,0.1235,0.065875,-0.013412501,-0.036728002,0.019104,0.012125,0.02175,0.13475,-0.0025940002,0.014328,-0.028061,1741897843.703029
-0.06425,0.129875,0.053,-0.015152001,-0.030334499,0.018585252,0.010875,0.013625,0.132125,-0.00396725,0.01596075,-0.032348752,1741897843.7174459
-0.06325,0.142875,0.044875,-0.013382,-0.018097,0.014557,0.008625,0.00625,0.13225,-0.0065002497,0.018859752,-0.03955075,1741897843.731953
-0.066375,0.164125,0.04375,-0.009842,-0.0115815,0.010879501,0.002625,-0.012375,0.135,-0.0072480002,0.0204925,-0.0424805,1741897843.7465549
-0.067625,0.16525,0.04775,-0.0030365,0.0023497501,0.00198375,0.001625,-0.022125,0.13475,-0.00842275,0.023758,-0.047104,1741897843.761261
-0.06575,0.150125,0.04875,-0.00228875,0.0089875,-0.002243,0.003375,-0.037,0.12725,-0.00897225,0.02513125,-0.04898075,1741897843.775721
-0.063375,0.14175,0.047,-0.00308225,0.015167249,-0.0056915004,0.00325,-0.044,0.1225,-0.0099945,0.02680975,-0.051712003,1741897843.794038
-0.06175,0.136125,0.043375,-0.00543225,0.026596,-0.01054375,0.001625,-0.05675,0.11475,-0.010559,0.027130252,-0.052368253,1741897843.804992
-0.062625,0.13675,0.02925,-0.006012,0.031784,-0.0124665005,0.00225,-0.061625,0.112,-0.011825499,0.02708425,-0.05239875,1741897843.819724
-0.065625,0.1395,0.02275,-0.00564575,0.04078675,-0.01628125,0.0055,-0.070875,0.11175,-0.012405501,0.026764,-0.0519715,1741897843.8367648
-0.071375,0.138125,0.01375,-0.0052337497,0.044754002,-0.018158002,0.00625,-0.07575,0.113,-0.013031,0.026535,-0.050277747,1741897843.851449
-0.070875,0.133,0.008125,-0.0041504996,0.051757753,-0.020691,0.007125,-0.084,0.108625,-0.013137749,0.026596,-0.0491485,1741897843.863578
-0.068,0.124625,-0.003125,-0.0034942501,0.0546875,-0.02130125,0.0085,-0.0855,0.1045,-0.013321,0.026184,-0.046584997,1741897843.8782358
-0.065875,0.122375,-0.008625,-0.0028687501,0.05894475,-0.02177425,0.009625,-0.087375,0.09875,-0.013183501,0.025711,-0.045043997,1741897843.8928409
-0.0605,0.120875,-0.019875,-0.0033264998,0.06010425,-0.02177425,0.010375,-0.0905,0.09675,-0.0128175,0.02516175,-0.0432435,1741897843.911026
-0.059,0.122625,-0.026375,-0.003952,0.060852002,-0.02159125,0.0135,-0.100625,0.092,-0.01200875,0.0239715,-0.039199747,1741897843.9220328
-0.05775,0.125625,-0.038,-0.00378425,0.0622405,-0.02085875,0.01575,-0.105375,0.089375,-0.0119934995,0.02323925,-0.037170503,1741897843.936717
-0.05725,0.125625,-0.044375,-0.0032195,0.06298825,-0.02064525,0.018,-0.109125,0.086375,-0.012267999,0.0211945,-0.03312675,1741897843.952287
-0.056,0.124625,-0.053,-0.00267025,0.06365975,-0.02088925,0.021875,-0.112,0.079875,-0.012146,0.01985175,-0.0309905,1741897843.9723468
-0.051125,0.1225,-0.075875,-0.0023039998,0.06327825,-0.02127075,0.023625,-0.111875,0.077375,-0.01062,0.0169525,-0.02610775,1741897843.980524
-0.0475,0.12225,-0.086375,0.00019825,0.0611115,-0.022171,0.026625,-0.112375,0.07275,-0.009369001,0.015564,-0.02333075,1741897843.9952111
-0.040125,0.118625,-0.095875,0.002533,0.059676997,-0.022613501,0.028375,-0.1135,0.069875,-0.0067445002,0.0125275,-0.0173645,1741897844.011286
-0.038,0.1155,-0.096,0.0076599997,0.0566405,-0.023117,0.033,-0.1165,0.0645,-0.00546275,0.010681249,-0.01425175,1741897844.0244539
-0.034625,0.110125,-0.09725,0.00953675,0.054870497,-0.023040751,0.035375,-0.1175,0.06325,-0.00292975,0.0064239996,-0.0080415,1741897844.039038
-0.029125,0.10525,-0.099875,0.011260999,0.0499115,-0.02182,0.03825,-0.11875,0.06275,-0.00160225,0.004242,-0.0050202496,1741897844.053752
-0.013375,0.097375,-0.103125,0.0111085,0.046463,-0.020523,0.038375,-0.118,0.06275,0.00115975,-0.0002595,0.00108325,1741897844.071856
-0.005875,0.09675,-0.103375,0.010559,0.0424805,-0.018920999,0.036875,-0.1145,0.064125,0.00228875,-0.00254825,0.00428775,1741897844.0827231
0.00025,0.096625,-0.103625,0.0089875,0.03347775,-0.015854,0.036625,-0.113125,0.06475,0.00390625,-0.0067597497,0.01065075,1741897844.0972202
0.00875,0.0965,-0.1035,0.00839225,0.028778,-0.014328,0.036,-0.114,0.06625,0.00463875,-0.008727999,0.013549751,1741897844.1117089
0.01275,0.094875,-0.103375,0.008377,0.019806,-0.010894749,0.035,-0.11475,0.06775,0.0054015,-0.010666001,0.016235251,1741897844.131029
0.019125,0.091375,-0.100875,0.008133001,0.01519775,-0.009216251,0.03375,-0.11425,0.07,0.0069274995,-0.014282251,0.021225,1741897844.140655
0.0215,0.089625,-0.0975,0.0059967497,0.0056915004,-0.0062865,0.02825,-0.109375,0.07575,0.0076599997,-0.0158385,0.023758,1741897844.1552489
0.023125,0.087375,-0.093125,0.0044707498,0.0012055,-0.0046234997,0.025625,-0.10625,0.07775,0.009323,-0.018615749,0.029022248,1741897844.1717088
0.02175,0.08975,-0.09225,0.00154125,-0.00717175,-0.0004425,0.022125,-0.101875,0.0815,0.01019275,-0.0199585,0.03170775,1741897844.1841888
0.018,0.09625,-0.088,0.000412,-0.01098625,0.00160225,0.02075,-0.100625,0.084125,0.011886501,-0.02262875,0.036941502,1741897844.198635
0.01675,0.098875,-0.085375,-0.000473,-0.014495751,0.00343325,0.017,-0.098875,0.090625,0.01260375,-0.023940999,0.03933725,1741897844.213161
0.015125,0.103,-0.08425,-0.001648,-0.020782499,0.006302,0.01425,-0.0975,0.09375,0.013427749,-0.0265045,0.04367075,1741897844.2277381
0.0135,0.105875,-0.086125,-0.00190725,-0.023834249,0.00741575,0.007125,-0.093125,0.098375,0.013488751,-0.02760325,0.045700002,1741897844.242165
0.01075,0.1085,-0.0875,-0.0013427499,-0.0300445,0.0089875,0.00325,-0.090125,0.0995,0.013351499,-0.02857975,0.04765325,1741897844.256632
0.003125,0.1085,-0.085125,-0.00051875,-0.03306575,0.009582501,-0.0055,-0.082375,0.103,0.012542751,-0.03079225,0.05148325,1741897844.273789
-0.001625,0.109125,-0.083,0.0009765,-0.03910825,0.01145925,-0.009,-0.075375,0.107,0.012024,-0.03182975,0.05331425,1741897844.285919
-0.010875,0.11425,-0.07875,0.0011445,-0.04234325,0.012496999,-0.011,-0.066,0.1125,0.0115205,-0.032837003,0.0561675,1741897844.30052
-0.01475,0.116375,-0.077,-1.5250001e-05,-0.04910275,0.013931249,-0.010125,-0.043625,0.123875,0.011764499,-0.032776,0.056900002,1741897844.315597
-0.021625,0.119,-0.073875,-0.0012055,-0.05255125,0.014206001,-0.008625,-0.032375,0.130125,0.01266475,-0.031845,0.056244,1741897844.3323488
-0.024875,0.1195,-0.072,-0.00343325,-0.059143003,0.01454175,-0.005625,-0.015625,0.14075,0.0127105,-0.03096,0.054931752,1741897844.344345
-0.033375,0.119125,-0.067,-0.003952,-0.06201175,0.014862,-0.003375,-0.009375,0.14375,0.010604749,-0.02807625,0.050415,1741897844.358965
-0.039,0.11875,-0.0635,-0.0041044997,-0.064544745,0.015304499,0.000375,-0.004625,0.145125,0.008606,-0.026092501,0.04783625,1741897844.3734772
-0.04625,0.11975,-0.058375,-0.00408925,-0.068359256,0.01593025,0.004125,0.000375,0.14275,0.00419625,-0.021942249,0.04255675,1741897844.3903959
-0.061,0.122,-0.04175,-0.0041810004,-0.06929025,0.015976,0.008,0.020125,0.14625,0.0023345,-0.020813,0.038925253,1741897844.402573
-0.066125,0.122125,-0.030875,-0.0054475004,-0.06877125,0.01617425,0.006125,0.028375,0.151875,0.0023497501,-0.016159,0.029724,1741897844.4169862
-0.066375,0.11825,-0.012875,-0.00691225,-0.067627,0.016388,0.009,0.038,0.157375,0.00283825,-0.012039251,0.023956249,1741897844.431523
-0.064625,0.11675,-0.008,-0.010009751,-0.064911,0.01664725,0.01375,0.04325,0.157125,0.00239575,-0.0079955,0.017608749,1741897844.446767
-0.066875,0.126125,0.007875,-0.0099639995,-0.06279,0.016388,0.01725,0.05075,0.1575,-0.00035100002,-0.0003815,0.0034637498,1741897844.460636
-0.074125,0.133,0.02625,-0.008651749,-0.05603025,0.014510999,0.021375,0.05375,0.153,-0.00125125,0.0038605002,-0.00411975,1741897844.475157
-0.081875,0.140875,0.07,-0.007904,-0.05072025,0.013275251,0.021125,0.04425,0.147,-0.0017395001,0.010238751,-0.017455999,1741897844.4908412
-0.079125,0.14025,0.084125,-0.0070495,-0.03714,0.010528499,0.016625,0.020625,0.136875,-0.0023497501,0.0123442495,-0.022521999,1741897844.504166
-0.071875,0.140875,0.095375,-0.0073547503,-0.0299225,0.0090637505,0.014375,0.0125,0.13525,-0.0047912505,0.016037,-0.030731251,1741897844.518674
-0.071,0.14725,0.0955,-0.007965,-0.02253725,0.0073395,0.00975,0.002375,0.138,-0.0057372497,0.017730748,-0.03424075,1741897844.533188
-0.071125,0.155,0.0925,-0.0067445002,-0.00611875,0.0020752498,0.006125,-0.001,0.139625,-0.0061645,0.020996,-0.04068,1741897844.5506911
-0.07025,0.16,0.076125,-0.0044707498,0.00267025,-0.0015565,-0.001625,-0.009875,0.13525,-0.00585925,0.02265925,-0.043578997,1741897844.562516
-0.06925,0.158375,0.067125,0.0001525,0.0187835,-0.009323,-0.004,-0.016875,0.12925,-0.0057677496,0.02557375,-0.04821775,1741897844.577267
-0.068625,0.1525,0.054,0.0020752498,0.025970502,-0.01257325,-0.006375,-0.032375,0.117875,-0.0063325,0.0266265,-0.04989625,1741897844.5920691
-0.067875,0.14525,0.047625,0.00453175,0.03872675,-0.0166015,-0.00575,-0.04,0.115,-0.008499251,0.027862499,-0.0520935,1741897844.610859
-0.065375,0.128625,0.0325,0.004547,0.0440215,-0.017425502,0.0005,-0.05225,0.117625,-0.009903,0.028167749,-0.052765,1741897844.621418
-0.064375,0.1235,0.022625,0.0022277501,0.051788248,-0.017654499,0.004125,-0.0585,0.12025,-0.0112,0.0283355,-0.05340575,1741897844.636061
-0.065,0.123125,0.00175,0.000473,0.054123,-0.0177155,0.00625,-0.074,0.117875,-0.0129700005,0.028305,-0.0542145,1741897844.651446
-0.066,0.12475,-0.005875,-0.00119025,0.055664003,-0.01805125,0.006125,-0.080125,0.11375,-0.01361075,0.028137252,-0.0539245,1741897844.666285
-0.067125,0.1265,-0.011875,-0.0021515,0.05844125,-0.01882925,0.00575,-0.084125,0.109625,-0.014389,0.027252251,-0.051651,1741897844.6801028
-0.06775,0.133375,-0.027125,-0.0009765,0.060180753,-0.019333,0.005375,-0.086625,0.101875,-0.014267,0.0266265,-0.0497895,1741897844.6945112
-0.066,0.136125,-0.038125,0.0043639997,0.06378175,-0.02111825,0.0065,-0.086625,0.098625,-0.01307675,0.0254975,-0.0452575,1741897844.712687
-0.059375,0.1375,-0.0605,0.0085602505,0.065384,-0.0220795,0.009,-0.0955,0.093,-0.01248175,0.02500925,-0.042785753,1741897844.7237198
-0.05475,0.13625,-0.06775,0.01835625,0.06781,-0.0230865,0.0115,-0.102875,0.09,-0.0123442495,0.023940999,-0.037902746,1741897844.738367
-0.044375,0.131375,-0.07525,0.023056,0.06864925,-0.022918751,0.018375,-0.11625,0.0845,-0.012802,0.02316275,-0.035675,1741897844.754997
-0.038875,0.128125,-0.078125,0.030304002,0.06906125,-0.0214385,0.020125,-0.119625,0.082125,-0.013351499,0.0203705,-0.0313415,1741897844.7675571
-0.027125,0.12325,-0.084375,0.032135,0.06817625,-0.020172002,0.020125,-0.11925,0.07675,-0.012847999,0.01855475,-0.028885,1741897844.782155
-0.020375,0.11975,-0.087625,0.03250125,0.0664825,-0.01876825,0.021,-0.117625,0.073375,-0.009842,0.0150605,-0.02278125,1741897844.796733
-0.00625,0.108875,-0.098125,0.029022248,0.06077575,-0.0153807495,0.025625,-0.114875,0.06825,-0.00798025,0.013488751,-0.01930225,1741897844.811336
0.0005,0.1065,-0.104125,0.025177,0.056274503,-0.013183501,0.029375,-0.112875,0.06625,-0.00453175,0.00991825,-0.01222225,1741897844.826737
0.007,0.10525,-0.108375,0.01519775,0.04458625,-0.00935375,0.035125,-0.109375,0.065,-0.00276175,0.007599,-0.008773751,1741897844.8406441
0.0185,0.107,-0.114625,0.0104065,0.038025003,-0.00811775,0.0365,-0.108625,0.0645,-0.0009765,0.00514225,-0.0054475004,1741897844.85525
0.02325,0.110625,-0.116875,0.0041504996,0.024353001,-0.0073395,0.03725,-0.108,0.063625,0.0020295,0.0003815,0.0007325,1741897844.870839
0.03075,0.112,-0.1145,0.00328075,0.017883249,-0.0076905,0.03675,-0.10625,0.063125,0.0030975002,-0.0021515,0.0035704998,1741897844.8841238
0.03225,0.10925,-0.111625,0.0049895,0.0065612504,-0.00788875,0.035125,-0.10425,0.065,0.00413525,-0.00715625,0.0090485,1741897844.898659
0.032625,0.10475,-0.101125,0.006073,0.00131225,-0.0072937496,0.031625,-0.10025,0.06875,0.00437925,-0.00924675,0.011673001,1741897844.913161
0.03175,0.10325,-0.095375,0.00643925,-0.00390625,-0.0063325,0.0305,-0.098875,0.07125,0.0052795,-0.012832751,0.01646425,1741897844.930878
0.0305,0.102,-0.0905,0.0053709997,-0.013992251,-0.0031889998,0.027375,-0.099,0.07875,0.006073,-0.01440425,0.01852425,1741897844.942144
0.02875,0.103125,-0.082375,0.0045012496,-0.018585252,-0.0011445,0.0255,-0.100875,0.08225,0.0079955,-0.016998248,0.02238475,1741897844.956633
0.027875,0.10475,-0.07975,0.0024872501,-0.026764,0.002472,0.020875,-0.10375,0.088,0.0088195,-0.01808175,0.02445975,1741897844.971155
0.0235,0.107875,-0.076,0.00119025,-0.030655,0.003769,0.018125,-0.103625,0.09,0.010009751,-0.020034749,0.029022248,1741897844.986561
0.01975,0.107125,-0.07425,-0.0025787498,-0.038452253,0.0056915004,0.014125,-0.099625,0.092625,0.010437001,-0.020934999,0.03149425,1741897845.000181
0.0085,0.110375,-0.06825,-0.0046845004,-0.042297248,0.00672925,0.01325,-0.09675,0.0935,0.01083375,-0.0218505,0.033981252,1741897845.0146198
0.00075,0.116375,-0.062875,-0.00798025,-0.04924,0.008346501,0.012125,-0.094625,0.09475,0.011550999,-0.02386475,0.038681,1741897845.030807
-0.013,0.123875,-0.056,-0.009506251,-0.052245997,0.008941749,0.007875,-0.092125,0.09825,0.011734,-0.0249175,0.040924,1741897845.043659
-0.01725,0.126125,-0.054375,-0.0110625,-0.055252,0.009582501,0.005625,-0.090875,0.1,0.01136775,-0.02705375,0.04493725,1741897845.058163
-0.023375,0.129,-0.051875,-0.0137635,-0.061355498,0.010253999,0.0035,-0.0835,0.104125,0.0110015,-0.028137252,0.04667675,1741897845.0726342
-0.0285,0.132,-0.046875,-0.0148315,-0.06419375,0.01019275,0.003,-0.075375,0.107,0.010879501,-0.02964775,0.049408,1741897845.0903082
-0.03475,0.134375,-0.03775,-0.01560975,-0.0674285,0.009491,0.00175,-0.0585,0.1145,0.0112,-0.030014,0.050231997,1741897845.1016572
-0.04325,0.13325,-0.016125,-0.015289251,-0.067214996,0.00924675,0.00075,-0.0545,0.117125,0.0113525,-0.0299225,0.0508575,1741897845.116145
-0.04375,0.1315,-0.01075,-0.014358499,-0.06451425,0.009277251,-0.000625,-0.053,0.117375,0.0106355,-0.029693501,0.0508575,1741897845.1307478
-0.042875,0.13,-0.014875,-0.014053251,-0.0631715,0.009384249,-0.000875,-0.048375,0.1185,0.00811775,-0.02905275,0.05024725,1741897845.149827
-0.04375,0.132,-0.0195,-0.0133667495,-0.06230175,0.00975025,-0.00175,-0.021875,0.13325,0.0070037497,-0.0281525,0.049118,1741897845.1600058
-0.054375,0.137125,-0.016625,-0.012680001,-0.06245425,0.009719751,-0.001625,-0.010125,0.141375,0.0062255003,-0.0265655,0.04724125,1741897845.174668
-0.059875,0.136375,-0.00525,-0.0099639995,-0.06106575,0.00953675,0.000375,-0.0045,0.14425,0.00511175,-0.0222015,0.0425415,1741897845.190667
-0.069125,0.130125,0.031,-0.009521499,-0.0590515,0.00953675,0.005125,-0.0015,0.142125,0.0041810004,-0.02023325,0.0402985,1741897845.203596
-0.06925,0.12725,0.04675,-0.009719751,-0.055908248,0.00962825,0.00875,0.007875,0.142125,0.001648,-0.0167695,0.0347595,1741897845.218067
-0.06775,0.127,0.05925,-0.010528499,-0.04667675,0.00947575,0.010125,0.03075,0.151375,3.0500001e-05,-0.015625,0.0306855,1741897845.2325382
-0.06425,0.130625,0.07125,-0.01065075,-0.040924,0.008850001,0.009625,0.03975,0.155875,-0.0017852499,-0.00991825,0.02114875,1741897845.2470882
-0.06275,0.13375,0.074,-0.009369001,-0.028259251,0.00668325,0.014125,0.045625,0.154875,-0.0021972498,-0.005844,0.0154725,1741897845.261621
-0.063,0.139875,0.084875,-0.00785825,-0.02142325,0.005249,0.015375,0.043,0.153125,-0.00384525,0.0009155,0.00328075,1741897845.276047
-0.062,0.14,0.087375,-0.0042572496,-0.0059967497,0.001953,0.012625,0.042,0.155,-0.0050965,0.003891,-0.002884,1741897845.295129
-0.05525,0.135,0.07575,-0.0027312501,0.0017852499,0.00024425,0.012125,0.043625,0.155625,-0.0070342496,0.010009751,-0.015274,1741897845.3051572
-0.05275,0.131375,0.066375,-0.000885,0.015442001,-0.0033875,0.01225,0.038375,0.151875,-0.00744625,0.0126495,-0.021179251,1741897845.3196318
-0.052125,0.12625,0.057375,-0.000412,0.02127075,-0.00485225,0.01175,0.03075,0.14725,-0.0075377496,0.014862,-0.026519751,1741897845.334103
-0.053375,0.12525,0.05725,-0.00019825,0.02677925,-0.0059510004,0.01075,0.021875,0.14325,-0.0075835,0.018692,-0.0355835,1741897845.350941
-0.054625,0.12375,0.05575,-0.00112925,0.037490748,-0.0073395,0.0045,0.0025,0.14175,-0.00782775,0.0205535,-0.03933725,1741897845.363189
-0.055125,0.120875,0.038375,-0.00201425,0.04243475,-0.00770575,0.001,-0.00675,0.141375,-0.008773751,0.02430725,-0.0450745,1741897845.377762
-0.05475,0.12125,0.02575,-0.00331125,0.050125,-0.008133001,-0.00225,-0.0235,0.135125,-0.009384249,0.02595525,-0.047104,1741897845.3990011
-0.056,0.125375,0.007625,-0.0035704998,0.05287175,-0.00845325,-0.00225,-0.030125,0.131,-0.010589501,0.02822875,-0.0497895,1741897845.4120278
-0.05775,0.127625,0.001625,-0.0036010002,0.05717475,-0.009521499,-0.000375,-0.043,0.125,-0.01095575,0.02876275,-0.05052175,1741897845.422038
-0.059375,0.129875,-0.01375,-0.00302125,0.0591735,-0.0099639995,0.0015,-0.04875,0.123125,-0.01121525,0.028747499,-0.051178,1741897845.43667
-0.058625,0.129,-0.0245,-0.00068675,0.0623475,-0.010024999,0.003875,-0.05575,0.1205,-0.011078,0.028656,-0.0513,1741897845.4513001
-0.05525,0.127125,-0.0425,0.0007325,0.063095,-0.00976575,0.003125,-0.05975,0.117875,-0.0103455,0.02861025,-0.05084225,1741897845.466632
-0.05275,0.126625,-0.047625,0.00228875,0.063384995,-0.00947575,0.00175,-0.071625,0.10775,-0.01033025,0.028564502,-0.05024725,1741897845.480672
-0.050375,0.126875,-0.05125,0.0059967497,0.063446,-0.009002751,0.0035,-0.0785,0.10275,-0.011734,0.02854925,-0.0483855,1741897845.495372
-0.04475,0.133,-0.062,0.0079955,0.06330875,-0.008926501,0.01,-0.08725,0.096625,-0.012542751,0.02838125,-0.0471345,1741897845.5103831
-0.040125,0.13525,-0.069875,0.011795,0.06230175,-0.00930775,0.011125,-0.0905,0.09425,-0.013061499,0.028,-0.045837503,1741897845.524676
-0.028625,0.133875,-0.085375,0.01326,0.061081,-0.0095672505,0.011125,-0.09675,0.087875,-0.012909001,0.0263825,-0.04255675,1741897845.5393028
-0.022875,0.13175,-0.089625,0.01454175,0.05679325,-0.00991825,0.01225,-0.10025,0.084125,-0.012329,0.02528375,-0.04040525,1741897845.5539079
-0.012125,0.124875,-0.094875,0.0141755,0.053833,-0.00985725,0.014625,-0.105,0.080375,-0.010940501,0.022766002,-0.03538525,1741897845.5708601
-0.007,0.1225,-0.097,0.012313751,0.046737753,-0.00924675,0.021125,-0.1165,0.074,-0.010162249,0.02139275,-0.032714747,1741897845.583149
0.0035,0.120375,-0.10275,0.011627249,0.04296875,-0.0089875,0.023125,-0.121375,0.069875,-0.00846875,0.01799,-0.027099501,1741897845.597756
0.00825,0.119,-0.1055,0.011245751,0.039154,-0.0088805,0.025875,-0.12625,0.06175,-0.00723275,0.01573175,-0.023773251,1741897845.612353
0.01275,0.116375,-0.106875,0.011169501,0.03117375,-0.00839225,0.0275,-0.12675,0.058375,-0.0038605002,0.0104674995,-0.01573175,1741897845.631607
0.02075,0.108625,-0.107125,0.010742251,0.02677925,-0.0077667497,0.0315,-0.127625,0.054125,-0.00216675,0.0076905,-0.01136775,1741897845.641564
0.025,0.106875,-0.106,0.00773625,0.01634225,-0.0057525,0.033875,-0.12725,0.053375,0.00061025,0.0021515,-0.00279225,1741897845.6560671
0.031375,0.102125,-0.10125,0.0052642496,0.0104065,-0.0045625,0.037625,-0.12625,0.055375,0.0019685,-0.000763,0.001114,1741897845.6708622
0.0315,0.102375,-0.098,0.00109875,-0.0019225,-0.001709,0.037375,-0.125875,0.05825,0.00419625,-0.0065612504,0.00880425,1741897845.685199
0.02675,0.10425,-0.09175,9.15e-05,-0.00770575,-0.00019825,0.03425,-0.12275,0.063625,0.00505075,-0.009017999,0.0127105,1741897845.699647
0.023,0.10425,-0.090125,-0.001419,-0.0178985,0.00292975,0.03175,-0.12075,0.066,0.0070342496,-0.013503999,0.02050775,1741897845.714207
0.01525,0.10775,-0.08775,-0.0024414998,-0.022491502,0.00437925,0.026875,-0.117625,0.069,0.0081025,-0.01573175,0.024414,1741897845.7330592
0.011,0.10925,-0.0855,-0.0034637498,-0.02687075,0.0055237496,0.025375,-0.114875,0.070625,0.009079001,-0.0179595,0.028259251,1741897845.743157
0.006625,0.109125,-0.083125,-0.0050202496,-0.0351105,0.0072937496,0.024,-0.111375,0.0735,0.0110625,-0.022216748,0.035202,1741897845.757729
-0.002625,0.110375,-0.07725,-0.0055085,-0.038940497,0.0081025,0.01825,-0.105375,0.08175,0.01222225,-0.024231002,0.0382385,1741897845.7748501
-0.007375,0.112625,-0.07425,-0.0057525,-0.04544075,0.009430001,0.014,-0.10325,0.08525,0.01412975,-0.02790825,0.0438385,1741897845.790744
-0.0165,0.11675,-0.0705,-0.0057220003,-0.048111,0.0099945,0.005625,-0.0975,0.091,0.014587499,-0.029541,0.04647825,1741897845.8013928
-0.01975,0.118125,-0.069125,-0.0057525,-0.052826,0.01145925,0.00175,-0.093625,0.094,0.014709501,-0.032486,0.05134575,1741897845.8159192
-0.027125,0.121625,-0.065375,-0.006012,-0.055313,0.012176501,-0.004125,-0.08375,0.10225,0.014495751,-0.03370675,0.053466752,1741897845.8309062
-0.0315,0.122875,-0.061875,-0.0067902496,-0.06054675,0.0124665005,-0.0065,-0.0775,0.107125,0.014007499,-0.035263002,0.056717,1741897845.845087
-0.0405,0.121125,-0.055,-0.00694275,-0.06286625,0.012329,-0.009625,-0.06175,0.117375,0.01396175,-0.035766497,0.05773925,1741897845.859791
-0.0445,0.12,-0.05125,-0.00688175,-0.06478875,0.012329,-0.00975,-0.049375,0.124375,0.01474,-0.035888746,0.05844125,1741897845.8743858
-0.053375,0.120625,-0.037875,-0.00631725,-0.06694025,0.01307675,-0.008125,-0.028625,0.13675,0.015213001,-0.035492,0.057922248,1741897845.8910341
-0.058,0.121875,-0.0315,-0.0059205,-0.06707775,0.013717749,-0.006875,-0.02525,0.140125,0.0151825,-0.03479,0.0569305,1741897845.903693
-0.061625,0.121125,-0.027,-0.00491325,-0.06587225,0.0152435,-0.00575,-0.0235,0.141375,0.01272575,-0.03237925,0.054062,1741897845.918402
-0.067375,0.117625,-0.016,-0.00469975,-0.06495675,0.01599125,-0.005625,-0.01275,0.147,0.0102235,-0.030639749,0.05216975,1741897845.933013
-0.0715,0.117875,-0.00675,-0.00520325,-0.0624695,0.016845752,-0.00525,0.004875,0.15725,0.0044555003,-0.024887,0.04585275,1741897845.9501429
-0.07725,0.12175,0.010625,-0.0050202496,-0.06033325,0.01693725,0.005875,0.041375,0.16875,0.00251775,-0.0214385,0.04167175,1741897845.9620101
-0.0765,0.123625,0.014375,-0.00399775,-0.054809503,0.01652525,0.008125,0.050375,0.169125,0.0016175,-0.01605225,0.0313415,1741897845.976745
-0.07825,0.130375,0.031,-0.0036010002,-0.051818747,0.0158845,0.01,0.048625,0.15625,0.00204475,-0.012207,0.02548225,1741897845.991551
-0.081625,0.13425,0.04575,-0.0033875,-0.043578997,0.01345825,0.012375,0.046125,0.149625,0.0015565,-0.00570675,0.013992251,1741897846.005585
-0.0785,0.136875,0.060125,-0.0029449998,-0.037841752,0.012130749,0.013125,0.049875,0.152375,0.00054925,-0.0028687501,0.008072,1741897846.020109
-0.074,0.13675,0.058625,-0.0021972498,-0.031723,0.01065075,0.012375,0.053,0.157125,-0.00177,0.00437925,-0.00505075,1741897846.034672
-0.070125,0.136125,0.055625,-0.00035100002,-0.019927999,0.0072785,0.012625,0.045375,0.154375,-0.00254825,0.007843,-0.0115205,1741897846.050187
-0.066,0.139125,0.0525,0.000473,-0.0143737495,0.0056,0.01125,0.037,0.14825,-0.0038757501,0.012771499,-0.0225525,1741897846.063649
-0.064375,0.140375,0.052375,0.0013885,-0.003296,0.00175475,0.007875,0.023125,0.137125,-0.0047150003,0.014679,-0.027252251,1741897846.078203
-0.057875,0.134875,0.0445,0.00109875,0.00238025,-0.00042725,0.00625,0.018625,0.13475,-0.00541675,0.016327,-0.03149425,1741897846.0926678
-0.05375,0.12975,0.036375,0.00042725,0.013198749,-0.00413525,0.00425,0.016,0.1345,-0.00570675,0.019134501,-0.039032,1741897846.1104078
-0.0465,0.122875,0.019375,0.00045775,0.017807,-0.00538625,-0.00075,0.00775,0.136125,-0.0052795,0.020599252,-0.04255675,1741897846.1220071
-0.044375,0.122375,0.0125,0.00070200005,0.024993999,-0.0072632497,-0.003375,-0.00025,0.136375,-0.00460825,0.02389525,-0.0487365,1741897846.1367848
-0.044125,0.12125,0.007125,0.00054925,0.027740499,-0.00811775,-0.006,-0.022375,0.1305,-0.0047607496,0.025528,-0.05122375,1741897846.151444
-0.04425,0.11875,0.006375,-1.5250001e-05,0.030181998,-0.0088805,-0.00525,-0.03175,0.12725,-0.00646975,0.028137252,-0.05514525,1741897846.166636
-0.043,0.115125,0.003875,-0.00238025,0.034179747,-0.0094604995,-0.002625,-0.044875,0.122875,-0.007599,0.0290375,-0.056594748,1741897846.181001
-0.03975,0.11175,-0.005,-0.003952,0.03556825,-0.0093385,-0.001625,-0.049875,0.120875,-0.00912475,0.02961725,-0.058319,1741897846.195758
-0.038375,0.11275,-0.011625,-0.0066374997,0.037368752,-0.00874325,-0.002625,-0.06225,0.1175,-0.0093385,0.0296325,-0.05844125,1741897846.212606
-0.036375,0.12,-0.022625,-0.00708,0.03800975,-0.00846875,-0.003625,-0.071125,0.114375,-0.009430001,0.02949525,-0.056778,1741897846.225182
-0.03575,0.122125,-0.024875,-0.006546,0.039245497,-0.008788999,-0.0015,-0.090375,0.10675,-0.00991825,0.02940375,-0.05526725,1741897846.2399201
-0.03425,0.1215,-0.028375,-0.0063477503,0.039810248,-0.009155249,0.00075,-0.0985,0.10325,-0.011550999,0.02908325,-0.051101748,1741897846.254503
-0.03375,0.121125,-0.031,-0.0063934997,0.0405425,-0.009552,0.005625,-0.109375,0.0975,-0.0122985,0.02882375,-0.048706003,1741897846.2690828
-0.03325,0.12125,-0.03525,-0.0064239996,0.040710498,-0.009582501,0.007625,-0.113125,0.0945,-0.01324475,0.027893,-0.043762248,1741897846.283655
-0.033875,0.121875,-0.036375,-0.006302,0.040863,-0.009674,0.01125,-0.120125,0.08675,-0.013153,0.02687075,-0.040985,1741897846.2984269
-0.03375,0.12275,-0.038,-0.0052795,0.041275002,-0.0100555,0.012375,-0.123125,0.082875,-0.01260375,0.02548225,-0.037917998,1741897846.313094
-0.030625,0.125,-0.0425,-0.00444025,0.04141225,-0.010238751,0.016625,-0.12775,0.0745,-0.0100707505,0.02215575,-0.03094475,1741897846.3307462
-0.028,0.124875,-0.0455,-0.00251775,0.0413055,-0.010528499,0.0195,-0.12975,0.070625,-0.00846875,0.02034,-0.027252251,1741897846.3425071
-0.023375,0.1235,-0.0505,-0.0015565,0.04104625,-0.010666001,0.022125,-0.1315,0.066625,-0.005783,0.01681525,-0.0198365,1741897846.357308
-0.021375,0.12275,-0.0535,0.00010675,0.0401765,-0.0110015,0.02725,-0.13225,0.0585,-0.00463875,0.014679,-0.016021749,1741897846.37198
-0.01675,0.12025,-0.05925,0.00093075,0.0395965,-0.01115425,0.02925,-0.1315,0.0555,-0.0019685,0.00918575,-0.00794975,1741897846.391665
-0.013125,0.118,-0.0635,0.00245675,0.03807075,-0.011245751,0.03125,-0.128625,0.05425,-0.000534,0.0062712496,-0.0037995,1741897846.401283
-0.006,0.115375,-0.07375,0.00325,0.036911,-0.0110625,0.0315,-0.126875,0.055625,0.0021515,0.0007325,0.0044707498,1741897846.415793
-0.00325,0.114875,-0.078,0.0041504996,0.035476748,-0.010818499,0.03225,-0.124,0.057875,0.0034637498,-0.00201425,0.008484,1741897846.430571
0.00175,0.1125,-0.083125,0.0062407497,0.03170775,-0.00997925,0.031625,-0.123,0.05925,0.005783,-0.007599,0.016128499,1741897846.4449642
0.00375,0.1115,-0.084625,0.0070037497,0.0292815,-0.009292499,0.027125,-0.120625,0.06225,0.006836,-0.0102235,0.0196685,1741897846.459598
0.005125,0.11075,-0.085875,0.0073395,0.02297975,-0.0075682504,0.0245,-0.1185,0.065375,0.008926501,-0.0149995005,0.0263215,1741897846.474255
0.00825,0.1075,-0.088375,0.006668,0.0190735,-0.0065917503,0.019625,-0.112,0.07375,0.009842,-0.016967751,0.02948,1741897846.4906619
0.01025,0.105875,-0.08875,0.004013,0.010024999,-0.00428775,0.01875,-0.108125,0.0775,0.0112305,-0.020034749,0.0352325,1741897846.503417
0.01175,0.10475,-0.08925,0.0026854998,0.0052947504,-0.00302125,0.017,-0.101625,0.084875,0.011856,-0.021453751,0.037887502,1741897846.5178938
0.010875,0.104875,-0.0895,0.001831,-0.00367725,-4.575e-05,0.01525,-0.09925,0.08775,0.01251225,-0.02288825,0.0404815,1741897846.532386
0.007125,0.106,-0.088875,0.002121,-0.00782775,0.00149525,0.011125,-0.094625,0.091,0.01374825,-0.025879,0.045516998,1741897846.550314
0.00525,0.105625,-0.088,0.0024872501,-0.01593025,0.0038605002,0.008125,-0.092,0.092125,0.014206001,-0.02742,0.047805753,1741897846.561671
0.002375,0.103,-0.086125,0.0021819999,-0.019989,0.0047455,0.0045,-0.089375,0.094,0.014267,-0.030609248,0.05189525,1741897846.5761752
0.0005,0.102,-0.084875,0.00148,-0.02409375,0.00561525,-0.0035,-0.081375,0.098375,0.013839751,-0.03205875,0.053833,1741897846.5909572
-0.00225,0.1015,-0.08225,-0.00033575002,-0.0321655,0.00770575,-0.006875,-0.07425,0.102625,0.013000499,-0.03453075,0.0571595,1741897846.6101649
-0.008375,0.10225,-0.07525,-0.00090025004,-0.03578175,0.008926501,-0.01,-0.053125,0.11575,0.0129395,-0.035202,0.058258,1741897846.6204212
-0.0115,0.103125,-0.072875,-0.00187675,-0.042221002,0.01127625,-0.0095,-0.04425,0.121875,0.01307675,-0.03508,0.0588685,1741897846.635138
-0.019125,0.1055,-0.069,-0.00263975,-0.0452575,0.012329,-0.00825,-0.039,0.126625,0.012695249,-0.034546003,0.0583955,1741897846.650862
-0.023625,0.1065,-0.06625,-0.0043335,-0.0505065,0.014282251,-0.008125,-0.038625,0.125875,0.010757499,-0.0332795,0.056549,1741897846.6643798
-0.03275,0.110125,-0.05975,-0.0049590003,-0.052658,0.015152001,-0.00925,-0.0185,0.1355,0.009369001,-0.032486,0.05513,1741897846.679104
-0.03725,0.111375,-0.056375,-0.0056304997,-0.05587775,0.01651,-0.0085,0.00275,0.149375,0.0067902496,-0.028244,0.0502625,1741897846.6938062
-0.048875,0.11425,-0.04575,-0.00587475,-0.057006747,0.01719675,0.007125,0.043625,0.169,0.0059967497,-0.025421249,0.04653925,1741897846.712291
-0.05575,0.116125,-0.036375,-0.0069580004,-0.05747975,0.01867675,0.01075,0.05,0.17025,0.0052185003,-0.020752002,0.03683475,1741897846.722899
-0.0625,0.117875,-0.022625,-0.00788875,-0.056778,0.01940925,0.01375,0.023875,0.142125,0.0049742498,-0.017395,0.032043498,1741897846.737417
-0.062625,0.119875,-0.019625,-0.008270251,-0.055724997,0.020049999,0.015625,0.012125,0.129375,0.0045625,-0.015533499,0.028183,1741897846.7543979
-0.063,0.122375,-0.01775,-0.00570675,-0.05284125,0.0202485,0.009375,0.019875,0.138375,0.00367725,-0.01454175,0.0213165,1741897846.770305
-0.067375,0.12725,-0.00825,-0.003418,-0.05122375,0.019577,0.00625,0.028625,0.14875,0.0031585,-0.012207,0.0164795,1741897846.7810109
-0.070625,0.129,0.003375,0.00096125,-0.046554502,0.0175935,0.005,0.034125,0.154125,0.00169375,-0.00411975,0.00378425,1741897846.795476
-0.0795,0.135625,0.04075,0.0010375,-0.043045,0.016418502,0.01125,0.037,0.149625,0.00071725,0.000229,-0.003128,1741897846.811075
-0.078625,0.135625,0.0545,-0.003952,-0.03329475,0.01390075,0.015375,0.03575,0.145375,-0.00062550005,0.0074004997,-0.01576225,1741897846.8245928
-0.069,0.135125,0.0585,-0.00662225,-0.027298,0.01248175,0.0175,0.0285,0.14175,-0.000824,0.0101775,-0.021209748,1741897846.8391192
-0.06575,0.1385,0.05275,-0.008499251,-0.01440425,0.007904,0.0165,0.02375,0.142375,-0.0002595,0.015152001,-0.0305175,1741897846.853945
-0.06475,0.149875,0.040625,-0.00697325,-0.008072,0.0048979996,0.009375,0.005875,0.140625,0.000122000005,0.017334,-0.03459175,1741897846.8707972
-0.064375,0.152625,0.034625,-0.00416575,-0.0018615,0.001419,0.003875,-0.00625,0.137625,-0.00068675,0.0204925,-0.04125975,1741897846.8832378
-0.063625,0.1505,0.029,0.0007325,0.00997925,-0.0065002497,0.001375,-0.01925,0.135375,-0.0023497501,0.022521999,-0.04408275,1741897846.897897
-0.059,0.13375,0.02075,0.00169375,0.015289251,-0.009719751,0.005875,-0.019625,0.1355,-0.00546275,0.027771,-0.04933175,1741897846.912618
-0.056625,0.12525,0.019125,0.00119025,0.02412425,-0.0129700005,0.012625,-0.028875,0.131625,-0.00543225,0.029601999,-0.05159,1741897846.930683
-0.05625,0.118125,0.016375,3.0500001e-05,0.02772525,-0.013702501,0.00925,-0.039,0.128125,-0.0043335,0.030609248,-0.054580748,1741897846.942026
-0.057375,0.117875,0.013625,-0.003296,0.033889752,-0.0149535,0.000375,-0.056625,0.118625,-0.0048674997,0.030853251,-0.0550995,1741897846.9567518
-0.05875,0.118875,0.00225,-0.0050355,0.03654475,-0.015579251,0.000875,-0.06125,0.11275,-0.0062407497,0.0309905,-0.055069,1741897846.9714198
-0.058625,0.12,-0.005625,-0.0076142503,0.04100025,-0.016876249,0.003375,-0.064125,0.10825,-0.008941749,0.02964775,-0.053710997,1741897846.990308
-0.058125,0.1205,-0.018125,-0.00811775,0.0428925,-0.017624,0.0065,-0.071,0.1055,-0.00930775,0.0286255,-0.052245997,1741897847.000979
-0.05775,0.119625,-0.02225,-0.008270251,0.044616748,-0.018463248,0.0075,-0.075125,0.106,-0.00976575,0.027237,-0.0487975,1741897847.015669
-0.05525,0.118375,-0.030625,-0.0074920002,0.0475005,-0.01976025,0.008,-0.081125,0.1085,-0.0100707505,0.027069,-0.04730225,1741897847.030487
-0.05275,0.117125,-0.035375,-0.0062255003,0.048766997,-0.019897498,0.006875,-0.084625,0.1075,-0.010513251,0.02702325,-0.04451,1741897847.0499709
-0.051125,0.11675,-0.039125,-0.00242625,0.050903253,-0.019317752,0.004375,-0.094875,0.097625,-0.01095575,0.026947001,-0.043045,1741897847.059801
-0.0495,0.11575,-0.043125,-0.00057975,0.051788248,-0.0189515,0.005125,-0.1005,0.091125,-0.01257325,0.0263825,-0.040039003,1741897847.074386
-0.048,0.113625,-0.04625,0.00061025,0.052673247,-0.017929,0.007875,-0.11025,0.083375,-0.013702501,0.025848499,-0.038513247,1741897847.090029
-0.042625,0.110375,-0.055125,0.000122000005,0.05255125,-0.017303498,0.0085,-0.111375,0.08175,-0.014053251,0.02363575,-0.034668,1741897847.103816
-0.039,0.110125,-0.06175,-0.00115975,0.051712003,-0.01658625,0.01,-0.112125,0.076625,-0.01257325,0.021942249,-0.031997748,1741897847.118423
-0.032625,0.11175,-0.07475,-0.00108325,0.051056,-0.0166015,0.01175,-0.11375,0.072875,-0.00811775,0.018158002,-0.025360001,1741897847.1329842
-0.030625,0.11275,-0.079375,0.001068,0.04925525,-0.01693725,0.01775,-0.121875,0.064,-0.0061645,0.016296498,-0.02159125,1741897847.15115
-0.02525,0.110625,-0.087125,0.00302125,0.04812625,-0.0168305,0.021625,-0.125625,0.059375,-0.0037079998,0.01127625,-0.013992251,1741897847.162411
-0.022625,0.1085,-0.08975,0.0067597497,0.04505925,-0.01582325,0.02575,-0.129625,0.054625,-0.00279225,0.0080567505,-0.010253999,1741897847.177048
-0.017125,0.104125,-0.0915,0.0076905,0.042846747,-0.01501475,0.025,-0.129875,0.055125,-0.00108325,0.00201425,-0.00245675,1741897847.192599
-0.01375,0.102125,-0.090875,0.0077515002,0.0401765,-0.014068499,0.024,-0.125125,0.059375,-0.00016775,-0.00067150005,0.0016785001,1741897847.206393
-0.010125,0.100875,-0.09125,0.00570675,0.033935502,-0.011856,0.02425,-0.121625,0.061625,0.000946,-0.0031585,0.0058287503,1741897847.2211552
-0.001125,0.101,-0.095,0.00440975,0.03038025,-0.01054375,0.02475,-0.119,0.067125,0.0036010002,-0.007782,0.01368725,1741897847.235786
0.00325,0.102,-0.097,0.002655,0.02250675,-0.00798025,0.02375,-0.119625,0.07075,0.00494375,-0.010024999,0.0173645,1741897847.250277
0.008875,0.103125,-0.09725,0.002243,0.0183715,-0.006775,0.02225,-0.12025,0.07375,0.00723275,-0.0139770005,0.02427675,1741897847.264825
0.010125,0.1025,-0.09575,0.0020752498,0.010024999,-0.0044250004,0.019,-0.1195,0.074625,0.00823975,-0.01586925,0.027587999,1741897847.2795022
0.010875,0.100875,-0.09225,0.0020599999,0.0058287503,-0.0031889998,0.016875,-0.11775,0.075375,0.0099945,-0.01997375,0.03408825,1741897847.294059
0.0105,0.100125,-0.09125,0.00177,-0.0024414998,-0.000122000005,0.010125,-0.10975,0.081625,0.01065075,-0.021988,0.037277248,1741897847.310702
0.007125,0.100875,-0.089,0.0015565,-0.00646975,0.00177,0.00675,-0.105375,0.0865,0.011673001,-0.025299,0.04322825,1741897847.323322
0.00475,0.101875,-0.08825,0.00125125,-0.01042175,0.0036315,0.001875,-0.100375,0.09375,0.012207,-0.02674875,0.0460205,1741897847.337826
0.00275,0.10275,-0.087875,0.0003815,-0.0179595,0.00671375,-0.000125,-0.097875,0.09625,0.01295475,-0.029541,0.0508575,1741897847.352849
-0.00175,0.102625,-0.087125,0.0002595,-0.021484248,0.0080567505,-0.00375,-0.087125,0.100375,0.013122501,-0.0309905,0.05281075,1741897847.37099
-0.004375,0.102875,-0.08625,0.00077825,-0.028137252,0.010391249,-0.006125,-0.079,0.103,0.013916001,-0.0333405,0.05656425,1741897847.381685
-0.010875,0.104375,-0.083125,0.00096125,-0.031356752,0.0112915,-0.009125,-0.053625,0.115125,0.014785751,-0.03404225,0.058258,1741897847.3964539
-0.014375,0.105125,-0.081375,0.00090025004,-0.037414502,0.012741,-0.007375,-0.035,0.1265,0.01605225,-0.03430175,0.059494,1741897847.4110022
-0.02025,0.106125,-0.07825,0.00065625,-0.040237498,0.0134735005,0.00075,0.00375,0.151375,0.0196685,-0.03274525,0.05896,1741897847.4256
-0.022875,0.10625,-0.07625,0.0002135,-0.045471247,0.015075751,0.00725,0.0125,0.15775,0.0213165,-0.0308075,0.05641175,1741897847.440285
-0.029125,0.10825,-0.072125,0.00013725001,-0.047821,0.015854,0.013,0.010625,0.159875,0.0201875,-0.02510075,0.04853825,1741897847.454685
-0.0325,0.109625,-0.07025,9.15e-05,-0.050003,0.01646425,0.01775,-0.004375,0.154375,0.016296498,-0.02182,0.044403,1741897847.470721
-0.039875,0.111375,-0.06525,0.00013725001,-0.053650003,0.017273001,0.018875,-0.009,0.146125,0.00668325,-0.016388,0.03756725,1741897847.483851
-0.043625,0.112,-0.0605,0.00013725001,-0.05502325,0.01747125,0.022125,-0.007875,0.129375,0.0030975002,-0.015564,0.034958,1741897847.498299
-0.047125,0.11225,-0.05475,-0.0007325,-0.056656,0.01763925,0.0195,-0.001125,0.12825,0.00048825,-0.0154115,0.030487,1741897847.512901
-0.050875,0.113125,-0.048375,-0.00149525,-0.05688475,0.0177765,0.016,0.010375,0.129625,0.0019685,-0.01419075,0.0275115,1741897847.5311959
-0.05175,0.114125,-0.04825,-0.00184625,-0.056778,0.018219,0.016625,0.015,0.130875,0.00712575,-0.01142875,0.019439751,1741897847.54169
-0.056,0.117625,-0.04525,-0.001114,-0.05661,0.01829525,0.013625,0.0155,0.137,0.00817875,-0.009369001,0.01419075,1741897847.556226
-0.060125,0.12,-0.039375,0.00169375,-0.055770747,0.01808175,0.013875,0.01975,0.142,0.0046539996,-0.0028074998,0.002411,1741897847.5707781
-0.068,0.122125,-0.023125,0.003769,-0.05464175,0.018020751,0.020625,0.033125,0.146625,0.0019685,0.0013580001,-0.0043944996,1741897847.58972
-0.07325,0.12325,-0.010125,0.00437925,-0.051788248,0.017746,0.023,0.032375,0.14375,0.00064075,0.0052337497,-0.011260999,1741897847.599654
-0.08025,0.12925,0.02,0.00193775,-0.049743753,0.01734925,0.02125,0.02475,0.139625,0.00064075,0.0104674995,-0.02345275,1741897847.6143382
-0.077875,0.132125,0.02875,-0.0011445,-0.0468445,0.01678475,0.009625,0.003,0.138125,-0.0005035,0.0128175,-0.02882375,1741897847.6307158
-0.07425,0.1345,0.033875,-0.00428775,-0.0385895,0.014267,0.014,-0.002375,0.1385,-0.0051574996,0.0196075,-0.038345248,1741897847.643784
-0.07075,0.13725,0.04075,-0.00328075,-0.03341675,0.012054499,0.024875,-0.00725,0.140125,-0.00747675,0.02316275,-0.0428925,1741897847.658428
-0.073,0.14025,0.048,0.0019225,-0.021698,0.0063934997,0.020625,-0.01625,0.141625,-0.01091,0.0290375,-0.05154425,1741897847.673214
-0.078625,0.142125,0.064875,0.0039825,-0.0149995005,0.0033722501,0.0045,-0.049625,0.134125,-0.011917,0.0313415,-0.054245,1741897847.688725
-0.078125,0.138625,0.066375,0.00355525,-0.001068,-0.0020599999,0.001625,-0.05875,0.128875,-0.015442001,0.03477475,-0.05653375,1741897847.7027981
-0.0705,0.131625,0.053625,0.00177,0.005539,-0.004547,0.01175,-0.05275,0.122375,-0.018035999,0.035888746,-0.057312,1741897847.71746
-0.06675,0.12975,0.044875,-0.0012817499,0.017578252,-0.009002751,0.015875,-0.050875,0.120375,-0.02041625,0.0348205,-0.05812075,1741897847.734569
-0.0645,0.127375,0.031375,-0.0016785001,0.023117,-0.010940501,0.012375,-0.059125,0.119375,-0.019744748,0.03309625,-0.0577545,1741897847.750585
-0.065375,0.127125,0.026375,-0.0014495,0.028366,-0.012771499,0.00975,-0.06875,0.115875,-0.018158002,0.030578502,-0.05505375,1741897847.761405
-0.0665,0.126,0.02175,-0.0012055,0.0375365,-0.016021749,0.00875,-0.086875,0.105125,-0.018737748,0.0296325,-0.053039502,1741897847.776026
-0.067375,0.11875,0.0105,-0.0019225,0.041320752,-0.017105,0.0085,-0.090125,0.101,-0.020111,0.027771,-0.0487365,1741897847.791005
-0.06675,0.115375,0.003375,-0.0048979996,0.0469665,-0.018020751,0.003375,-0.090125,0.095625,-0.019775499,0.0270385,-0.047180247,1741897847.80542
-0.065125,0.114875,-0.012375,-0.0077667497,0.0503235,-0.018448,0.000375,-0.09175,0.093375,-0.01849375,0.0263825,-0.045807,1741897847.820052
-0.06375,0.1185,-0.023875,-0.00862125,0.05140675,-0.0187835,-0.00175,-0.1075,0.088875,-0.01402275,0.02510075,-0.0405885,1741897847.834715
-0.061875,0.1195,-0.0295,-0.0081635,0.05355825,-0.01940925,-0.0005,-0.11625,0.08475,-0.01193225,0.0243225,-0.03648375,1741897847.851857
-0.05725,0.119625,-0.04075,-0.00708,0.054596,-0.019516,0.001625,-0.122375,0.078375,-0.009521499,0.021484248,-0.0283355,1741897847.8641658
-0.054875,0.1185,-0.046875,-0.004303,0.0564575,-0.019348249,0.008875,-0.12875,0.0645,-0.0087585,0.01914975,-0.02474975,1741897847.878927
-0.049,0.115875,-0.06,-0.00276175,0.05708325,-0.019027751,0.01275,-0.12975,0.06,-0.0076142503,0.014068499,-0.017547501,1741897847.8935091
-0.046375,0.115125,-0.064875,4.575e-05,0.057006747,-0.018463248,0.01975,-0.126125,0.0525,-0.0070342496,0.0115205,-0.01351925,1741897847.910825
-0.043125,0.1145,-0.069,0.001068,0.05641175,-0.01832575,0.022625,-0.122875,0.051125,-0.00411975,0.0054015,-0.0052947504,1741897847.9228601
-0.04125,0.1135,-0.072,0.00163275,0.0556335,-0.018310498,0.025375,-0.121875,0.054125,-0.0018005001,0.00213625,-0.0012665,1741897847.9374511
-0.038,0.111625,-0.078,0.0019989999,0.05343625,-0.017929,0.026625,-0.124125,0.05675,0.00289925,-0.00419625,0.00672925,1741897847.951896
-0.0295,0.110375,-0.093375,0.0022125002,0.05172725,-0.01753225,0.026,-0.126,0.0625,0.0045625,-0.0070647504,0.0106355,1741897847.971029
-0.02575,0.11025,-0.1,0.00367725,0.04724125,-0.016693002,0.025625,-0.124375,0.064625,0.0064545004,-0.0116425,0.01791375,1741897847.981051
-0.018375,0.108125,-0.10775,0.0049895,0.044662498,-0.0162505,0.024125,-0.116375,0.0675,0.007309,-0.0137635,0.0214385,1741897847.995605
-0.014625,0.10625,-0.109125,0.007782,0.038879503,-0.015213001,0.02125,-0.1125,0.07075,0.009552,-0.01791375,0.02848825,1741897848.010234
-0.003875,0.099875,-0.1115,0.009017999,0.03550725,-0.014297499,0.015375,-0.108625,0.079125,0.01071175,-0.0197295,0.0319215,1741897848.024823
0.002,0.097375,-0.112875,0.009231499,0.027160749,-0.01171875,0.013625,-0.106625,0.083125,0.011749251,-0.0214385,0.035202,1741897848.0394292
