L-AccX,L-AccY,L-AccZ,L-GyrX,L-GyrY,L-GyrZ,R-AccX,R-AccY,R-AccZ,R-GyrX,R-GyrY,R-GyrZ,timestamp
0.02475,0.10425,0.07375,-0.0173645,-0.02427675,0.0273285,-0.008875,-0.094,0.079375,0.0003815,-0.002243,-0.0008545,1741897902.859212
0.027625,0.125375,0.085,-0.017303498,-0.0240325,0.02664175,-0.013625,-0.100875,0.082875,-1.5250001e-05,-0.002243,-0.00137325,1741897902.870423
0.034,0.127125,0.0895,-0.01782225,-0.02149975,0.02412425,-0.018125,-0.10225,0.08925,0.0011445,-0.00225825,-0.001007,1741897902.885107
0.03825,0.125125,0.0965,-0.01924125,-0.02015675,0.022995,-0.02125,-0.10425,0.0955,0.0056304997,-0.0019685,0.00062550005,1741897902.899752
0.039125,0.124,0.08925,-0.020599252,-0.01914975,0.021636998,-0.022,-0.12075,0.094125,0.00770575,-0.0017395001,0.0017242499,1741897902.917152
0.040125,0.1275,0.075875,-0.022064252,-0.01661675,0.016418502,-0.02125,-0.13425,0.0895,0.00791925,-0.001526,0.00453175,1741897902.932426
0.027625,0.14,0.071625,-0.022049,-0.015029999,0.013183501,-0.04,-0.17125,0.089375,0.0055847503,-0.00109875,0.0069580004,1741897902.943857
0.016625,0.160125,0.086875,-0.01852425,-0.011260999,0.006302,-0.064625,-0.19225,0.09625,0.00105275,0.00169375,0.017395,1741897902.958464
0.021125,0.191375,0.10625,-0.01339725,-0.0074004997,0.0005645,-0.11275,-0.22275,0.117375,-0.000473,0.0049895,0.024887,1741897902.973289
0.03325,0.18375,0.104125,0.00024425,0.00146475,-0.0106965,-0.1165,-0.228375,0.1195,-0.0063325,0.01681525,0.040222254,1741897902.992574
0.0425,0.15525,0.097,0.0049895,0.004547,-0.01446525,-0.07975,-0.199625,0.095375,-0.0090637505,0.022491502,0.0467835,1741897903.003094
0.038125,0.145875,0.097625,0.008316,0.0088805,-0.0199585,-0.0605,-0.180875,0.087625,-0.012557999,0.029373249,0.056900002,1741897903.0177221
0.026875,0.13075,0.106375,0.008270251,0.0110625,-0.02227775,-0.035375,-0.139375,0.082875,-0.015075751,0.0321655,0.06039425,1741897903.032372
0.026875,0.124125,0.1045,0.0088195,0.013443,-0.024505502,-0.028125,-0.116125,0.07875,-0.021179251,0.039306752,0.064026,1741897903.04771
0.033625,0.116875,0.09375,0.0138855,0.01763925,-0.02920525,-0.011,-0.06525,0.057,-0.022369498,0.04240425,0.064453006,1741897903.061874
0.04925,0.10375,0.069,0.017044,0.019333,-0.03114325,-0.002125,-0.042375,0.045,-0.017974751,0.044098,0.06279,1741897903.077186
0.0485,0.102,0.065,0.02171325,0.02253725,-0.03492725,0.015,-0.00075,0.02025,-0.01289375,0.04296875,0.06027225,1741897903.091084
0.0505,0.037875,0.055125,0.022033751,0.022995,-0.035293497,0.02325,0.015,0.008625,0.0002135,0.037384,0.051361,1741897903.1054778
0.0525,0.0225,0.054875,0.02034,0.02023325,-0.02851875,0.041125,0.054625,-0.01,0.0061950004,0.03273,0.04550175,1741897903.1199949
0.053,0.05925,0.048625,0.0194855,0.01728825,-0.026657,0.0565,0.07925,-0.015125,0.01083375,0.02598575,0.037323,1741897903.134636
0.05675,0.0635,0.042,0.01820375,0.014038,-0.026184,0.073875,0.099625,-0.0195,0.0152435,0.008133001,0.015152001,1741897903.151606
0.0615,0.051625,0.03775,0.014557,0.0078125,-0.023819,0.0925,0.115875,-0.025875,0.015976,-0.00065625,0.003418,1741897903.163649
0.0645,0.012875,0.039125,0.01171875,0.0042115003,-0.0196685,0.089125,0.106,-0.02525,0.016922,-0.0119630005,-0.0178375,1741897903.178209
0.06425,0.00375,0.04075,0.0050812503,-0.0028535,-0.0075225,0.0635,0.05425,-0.009,0.01640325,-0.01475525,-0.02636725,1741897903.1929011
0.06725,-0.003375,0.039125,0.001953,-0.0055085,-0.001419,0.047625,0.021,0.005625,0.01206975,-0.018859752,-0.0390015,1741897903.2117062
0.070375,-0.002125,0.039125,-0.00059500005,-0.0075835,0.0047150003,0.023125,-0.04425,0.03925,0.0085755,-0.021759002,-0.043396,1741897903.222197
0.07175,0.015125,0.04575,-0.0036315,-0.01033025,0.016113251,0.0175,-0.075375,0.049875,0.0065765,-0.0309905,-0.0486145,1741897903.2368782
0.068625,0.024375,0.05275,-0.00428775,-0.011123749,0.02050775,0.014375,-0.103125,0.07475,0.013183501,-0.0358125,-0.04824825,1741897903.251461
0.062875,0.035625,0.061875,-0.0057525,-0.0122375,0.0266875,0.00925,-0.12025,0.092125,0.030456498,-0.039917,-0.04768375,1741897903.2670982
0.047875,0.069125,0.082,-0.0069274995,-0.012802,0.02873225,-0.005375,-0.18175,0.10275,0.0360565,-0.03933725,-0.043762248,1741897903.280992
0.0415,0.087,0.08825,-0.010253999,-0.01351925,0.030914249,-0.001875,-0.192,0.08975,0.036026,-0.03274525,-0.030075,1741897903.295786
0.036375,0.114875,0.097125,-0.011764499,-0.012985251,0.03038025,0.02125,-0.17925,0.064125,0.031692497,-0.02919,-0.02503975,1741897903.312788
0.036,0.12325,0.09725,-0.013702501,-0.010818499,0.02607725,0.01925,-0.18975,0.061375,0.0224,-0.02351375,-0.01838675,1741897903.324901
0.041,0.116,0.095375,-0.0151215,-0.0093385,0.0248565,0.0085,-0.233125,0.076875,0.016540501,-0.0203095,-0.013031,1741897903.339571
0.03975,0.119125,0.095875,-0.01867675,-0.00785825,0.02333075,0.00725,-0.2345,0.091875,0.009842,-0.01681525,-0.006775,1741897903.355082
0.04075,0.107875,0.076375,-0.018188499,-0.0074004997,0.021331752,0.008125,-0.21975,0.10525,-0.001236,-0.008484,0.0045777503,1741897903.368874
0.041,0.111,0.061625,-0.01573175,-0.0070342496,0.01908875,0.0165,-0.185625,0.11475,-0.0037537501,-0.0041810004,0.008941749,1741897903.383528
0.03875,0.126,0.0515,-0.01020825,-0.008072,0.01266475,0.017375,-0.18375,0.11,-0.0054475004,0.0026245,0.01655575,1741897903.398123
0.027625,0.168375,0.055625,-0.00845325,-0.00845325,0.007782,0.000625,-0.191625,0.1035,-0.00668325,0.0050202496,0.021087749,1741897903.412682
0.025,0.175125,0.065125,-0.005005,-0.006607,-0.0030365,-0.007875,-0.186375,0.104125,-0.01248175,0.011169501,0.030578502,1741897903.431498
0.030625,0.15475,0.088,-0.00369275,-0.004486,-0.00708,0.000875,-0.145875,0.09275,-0.01681525,0.015228249,0.033798248,1741897903.44208
0.035,0.1435,0.09775,-0.0037385002,0.00051875,-0.01187125,0.011625,-0.125125,0.08175,-0.025711,0.022461,0.035949748,1741897903.456589
0.039,0.1395,0.100625,-0.0033570002,0.00325,-0.01367175,0.022,-0.097875,0.06,-0.029327499,0.024658252,0.036193747,1741897903.472032
0.042125,0.14,0.09325,-0.00163275,0.00593575,-0.01589975,0.022375,-0.0865,0.054625,-0.0348205,0.026825001,0.0360565,1741897903.485642
0.044375,0.136125,0.088625,0.0050812503,0.011123749,-0.022049,0.018875,-0.072,0.052625,-0.03666675,0.028,0.035614,1741897903.500127
0.041875,0.10675,0.0875,0.009017999,0.013733,-0.02503975,0.01875,-0.066,0.054,-0.0382385,0.033905,0.03459175,1741897903.514579
0.042375,0.093,0.084125,0.014297499,0.017654499,-0.029022248,0.02425,-0.058125,0.0455,-0.03860475,0.037201,0.03408825,1741897903.5314932
0.05125,0.08225,0.071375,0.01548775,0.018890498,-0.03047175,0.03475,-0.043875,0.035375,-0.03854375,0.038025003,0.0328065,1741897903.543582
0.054125,0.079125,0.07,0.017608749,0.02009575,-0.03227225,0.0475,-0.029125,0.027875,-0.034027,0.03158575,0.025528,1741897903.558109
0.054625,0.072,0.06475,0.018707251,0.0192565,-0.03193675,0.063875,-0.015375,0.02275,-0.02832025,0.026733499,0.02177425,1741897903.57259
0.059,0.0645,0.056625,0.0213775,0.01501475,-0.029449498,0.069125,-0.014,0.021875,-0.0153502505,0.015457249,0.0150605,1741897903.591191
0.069375,0.045875,0.03925,0.0201875,0.012054499,-0.02737425,0.071125,-0.0155,0.02625,-0.009231499,0.009811499,0.01210025,1741897903.602697
0.072,0.039,0.034625,0.016693002,0.008727999,-0.024505502,0.0715,-0.013125,0.027375,0.0013580001,0.0026245,0.006012,1741897903.617194
0.073,0.03325,0.03325,0.0080567505,0.001953,-0.017455999,0.08125,0.000375,0.02125,0.0053252503,-0.0003815,0.00169375,1741897903.632185
0.073,0.0205,0.03525,0.0048065,-0.00115975,-0.0137635,0.08525,0.008125,0.021625,0.0129700005,-0.00798025,-0.00918575,1741897903.6463091
0.07225,0.011375,0.037,0.001068,-0.00611875,-0.00564575,0.08575,0.01525,0.030625,0.01628125,-0.0115967505,-0.01513675,1741897903.6608481
0.072125,-0.002875,0.0425,0.00039675,-0.0077972496,-0.000763,0.084625,0.014,0.032125,0.020874001,-0.0175935,-0.027252251,1741897903.675485
0.072625,-0.000125,0.04575,-0.00027475,-0.009719751,0.009658749,0.078625,0.005875,0.032625,0.02186575,-0.01997375,-0.03370675,1741897903.691777
0.07125,0.015125,0.048375,-0.00064075,-0.010391249,0.01425175,0.071625,-0.002375,0.0365,0.02159125,-0.023407,-0.04704275,1741897903.704701
0.069875,0.0185,0.04775,-0.0012055,-0.0112305,0.01814275,0.049,-0.028125,0.051,0.02114875,-0.0244445,-0.053238,1741897903.7193081
0.068,0.019125,0.04875,-0.0044707498,-0.0136565,0.024780251,0.033875,-0.05,0.061875,0.021103,-0.025390498,-0.0591125,1741897903.733912
0.054,0.040125,0.068125,-0.00747675,-0.01496875,0.0280305,-0.002875,-0.125375,0.080125,0.022934001,-0.02796925,-0.06216425,1741897903.751559
0.042375,0.062125,0.0805,-0.0139770005,-0.01664725,0.03268425,-0.009375,-0.158375,0.07025,0.026245002,-0.03009025,-0.054123,1741897903.7633579
0.029625,0.09175,0.0925,-0.01728825,-0.017028749,0.03367625,0.0025,-0.151625,0.066375,0.036239497,-0.037384,-0.03125,1741897903.777972
0.02775,0.117,0.101625,-0.02142325,-0.012054499,0.030426001,0.0275,-0.063375,0.069875,0.039627,-0.037384,-0.03111275,1741897903.792628
0.02525,0.15775,0.105375,-0.019027751,-0.0081025,0.024353001,0.011625,-0.09875,0.06775,0.043457,-0.03224175,-0.0396575,1741897903.8072479
0.03375,0.135625,0.0955,-0.01661675,-0.00770575,0.020584,-0.04925,-0.22025,0.071875,0.041916,-0.02978525,-0.035202,1741897903.8219771
0.049875,0.104125,0.075375,-0.0119630005,-0.010376001,0.023819,-0.069,-0.252875,0.069125,0.02746575,-0.02168275,-0.01921075,1741897903.83669
0.049625,0.098625,0.070625,-0.011673001,-0.0104674995,0.024658252,-0.064875,-0.259875,0.053625,0.01794425,-0.0156555,-0.012085,1741897903.8561542
0.044875,0.092875,0.0675,-0.015442001,-0.01136775,0.021469,-0.05025,-0.25525,0.0535,0.00148,-0.004776,0.00065625,1741897903.86621
0.03075,0.109625,0.059625,-0.01734925,-0.0122985,0.01927175,-0.016375,-0.239625,0.07025,-0.0041810004,-0.00083925005,0.0074920002,1741897903.88098
0.027625,0.127,0.053,-0.016998248,-0.01326,0.01307675,-0.0055,-0.22425,0.081375,-0.01048275,0.0052947504,0.0203095,1741897903.895595
0.028875,0.14575,0.046375,-0.014709501,-0.012909001,0.009384249,-0.00225,-0.19925,0.092875,-0.012680001,0.008316,0.025589,1741897903.911959
0.028,0.14825,0.053,-0.0102235,-0.0115205,0.0028535,-0.005375,-0.18725,0.09175,-0.017547501,0.013839751,0.0343475,1741897903.924883
0.0235,0.14425,0.079,-0.008499251,-0.010086001,0.000229,-0.01225,-0.1625,0.08475,-0.020355249,0.016632,0.037490748,1741897903.939487
0.024125,0.136,0.088625,-0.0070495,-0.0080415,-0.001892,-0.010125,-0.145125,0.078,-0.02633675,0.02253725,0.04141225,1741897903.954172
0.02575,0.1245,0.094125,-0.00691225,-0.003891,-0.00354,0.002375,-0.10725,0.066375,-0.029541,0.025299,0.041992247,1741897903.9722629
0.02225,0.117,0.09425,-0.008224499,-0.0023039998,-0.0031585,0.005625,-0.094875,0.06325,-0.032714747,0.027771,0.04176325,1741897903.9832802
0.018125,0.125375,0.091625,-0.009811499,0.000412,-0.0031585,0.008875,-0.07925,0.052125,-0.038849,0.03182975,0.040512,1741897903.99777
0.017625,0.142875,0.08425,-0.00823975,0.0019225,-0.0045625,0.014,-0.069,0.04675,-0.04144275,0.03329475,0.03964225,1741897904.012288
0.021625,0.143625,0.0785,-0.0015565,0.0050965,-0.010299751,0.019875,-0.058625,0.041875,-0.04388425,0.03518675,0.0364685,1741897904.027374
0.026875,0.119125,0.076125,0.00131225,0.00646975,-0.01295475,0.032125,-0.037875,0.03075,-0.043151747,0.035263002,0.034317,1741897904.041339
0.026875,0.10025,0.0855,0.00283825,0.007965,-0.014618,0.038625,-0.02775,0.026,-0.037674,0.032943748,0.02943425,1741897904.055789
0.0285,0.040625,0.101,0.004303,0.013778751,-0.01301575,0.051125,-0.0095,0.019375,-0.03259275,0.0305175,0.026825001,1741897904.072449
0.022875,0.076875,0.08975,0.0052642496,0.01655575,-0.00845325,0.055,-0.004625,0.01725,-0.01896675,0.023346001,0.021453751,1741897904.08477
0.027,0.11825,0.071125,0.0091095,0.01864625,-0.007782,0.058375,-0.00125,0.01175,-0.01193225,0.018509,0.0183715,1741897904.099303
0.0555,0.10325,0.024375,0.012252751,0.0183715,-0.010513251,0.060125,-0.000125,0.008625,9.15e-05,0.008133001,0.010528499,1741897904.113699
0.058375,0.097125,0.02875,0.012039251,0.015289251,-0.012085,0.0665,0.0015,0.0075,0.00463875,0.0033875,0.0056915004,1741897904.1323369
0.041375,0.135375,0.0595,0.0122985,0.01396175,-0.013717749,0.07,0.004,0.01075,0.008026,-0.000534,0.00059500005,1741897904.142473
0.045125,0.142125,0.062125,0.016983,0.013564999,-0.02149975,0.074,0.0075,0.015375,0.01260375,-0.00747675,-0.01095575,1741897904.15698
0.0635,0.099375,0.049625,0.0187225,0.0136565,-0.02445975,0.078,0.00475,0.020875,0.014785751,-0.011260999,-0.01728825,1741897904.17254
0.06575,0.076375,0.045,0.0188445,0.0128785,-0.02449025,0.075625,0.000125,0.021625,0.01982125,-0.017883249,-0.02886975,1741897904.186124
0.065375,0.0635,0.042875,0.013183501,0.007843,-0.018219,0.06925,-0.000125,0.02525,0.022369498,-0.02006525,-0.034362752,1741897904.200653
0.063875,0.057375,0.048,0.009506251,0.0051880004,-0.01525875,0.065375,-0.0015,0.028,0.0270385,-0.0230255,-0.045639,1741897904.215297
0.06425,0.053125,0.05,0.0051880004,0.0020905002,-0.01156625,0.051125,-0.0335,0.037125,0.02838125,-0.025268499,-0.050536998,1741897904.232279
0.063125,0.041625,0.05,0.0046234997,0.00125125,-0.009521499,0.039625,-0.06275,0.045875,0.028534,-0.03167725,-0.056381248,1741897904.24443
0.06175,0.039125,0.049125,0.0045777503,-0.00035100002,-0.0050355,0.02,-0.11025,0.063875,0.0306855,-0.0360565,-0.05400075,1741897904.259157
0.061875,0.03575,0.04775,0.00466925,-0.00131225,-0.0028074998,0.0135,-0.093125,0.075375,0.04025275,-0.04078675,-0.04927075,1741897904.27387
0.06325,0.03575,0.049375,0.0045012496,-0.0024872501,-0.00024425,-0.005875,-0.1235,0.078625,0.04393,-0.0390015,-0.050705,1741897904.293186
0.063875,0.040125,0.051875,0.0028535,-0.00517275,0.00621025,-0.018,-0.16725,0.077,0.04644775,-0.034606997,-0.044983003,1741897904.3032691
0.061,0.06175,0.05825,0.001526,-0.006363,0.0093385,-0.030375,-0.20425,0.056,0.04585275,-0.03273,-0.03810125,1741897904.318037
0.058875,0.066375,0.0605,-0.0013885,-0.008590749,0.0139465,-0.02375,-0.192,0.032625,0.04388425,-0.0296325,-0.0321655,1741897904.335003
0.060375,0.057,0.056125,-0.002655,-0.009674,0.016235251,-0.038125,-0.231875,0.029,0.0330505,-0.02253725,-0.0245515,1741897904.3474529
0.061625,0.056,0.054375,-0.0050355,-0.011810251,0.020904498,-0.051375,-0.25875,0.045625,0.025238002,-0.01867675,-0.019394,1741897904.3621929
0.048125,0.08175,0.069875,-0.00579825,-0.0125885,0.0224,-0.061875,-0.2805,0.06175,0.0054475004,-0.008941749,-0.0046234997,1741897904.376967
0.036625,0.098875,0.07975,-0.0060272496,-0.012847999,0.022766002,-0.0555,-0.273375,0.075625,-0.0067445002,-0.0023039998,0.00381475,1741897904.392722
0.029125,0.111625,0.086625,-0.00381475,-0.010666001,0.020172002,-0.0405,-0.2505,0.0785,-0.026764,0.010849,0.01794425,1741897904.406325
0.020375,0.12375,0.111875,-0.001068,-0.0073242504,0.016876249,-0.01975,-0.21475,0.08275,-0.033325247,0.01605225,0.023193251,1741897904.420907
0.017625,0.11175,0.115125,-0.00019825,-0.001709,0.01367175,-0.018125,-0.201375,0.082125,-0.04202275,0.023681749,0.032043498,1741897904.4355478
0.02575,0.118125,0.096875,-0.00251775,-0.0014495,0.015976,-0.0165,-0.168,0.08,-0.044555753,0.026672252,0.03585825,1741897904.453453
0.03125,0.12575,0.08775,-0.0060882503,-0.0020752498,0.01605225,-0.0125,-0.14925,0.07775,-0.04644775,0.0315095,0.04122925,1741897904.464885
0.03,0.123125,0.07775,-0.00694275,-0.00177,0.013503999,0.001875,-0.113625,0.06825,-0.045639,0.033203,0.04258725,1741897904.479379
0.031875,0.110125,0.069625,-0.006775,-0.00143425,0.01071175,0.0085,-0.098375,0.063375,-0.04040525,0.03427125,0.04312125,1741897904.4937952
0.032625,0.1065,0.06575,-0.0058287503,-0.00071725,0.007904,0.010625,-0.080125,0.054875,-0.036376998,0.033905,0.043075502,1741897904.5123782
0.02825,0.1145,0.065875,-0.00514225,-0.0003815,0.0066374997,0.012625,-0.068,0.0475,-0.0275115,0.0318145,0.04243475,1741897904.522805
0.02775,0.113625,0.066,-0.0026854998,0.0005645,0.00364675,0.027125,-0.042375,0.030625,-0.02330025,0.030151252,0.041153,1741897904.537376
0.0295,0.11725,0.06725,-0.00160225,0.001007,0.0023039998,0.035,-0.033125,0.022875,-0.0193635,0.028289748,0.0392915,1741897904.55179
0.031,0.118,0.066875,-0.00027475,0.00160225,-0.000473,0.041,-0.025375,0.016,-0.012771499,0.0239715,0.034179747,1741897904.566313
0.0335,0.110125,0.068125,-0.00019825,0.00177,-0.00154125,0.046375,-0.01125,0.012125,-0.009597749,0.02171325,0.0312805,1741897904.5807931
0.0355,0.103875,0.068875,-0.00080875,0.0020295,-0.00242625,0.04725,-0.005,0.015125,-0.00030525,0.01814275,0.02604675,1741897904.595319
0.0425,0.09475,0.0655,-0.0012970001,0.00204475,-0.0023039998,0.052875,0.0065,0.0135,0.0054015,0.0154725,0.023285,1741897904.611469
0.044625,0.09425,0.06375,-0.00187675,0.00184625,-0.00193775,0.05725,0.01075,0.009375,0.0149535,0.00564575,0.01452625,1741897904.623904
0.044,0.095375,0.062875,-0.00242625,0.0009765,-0.0011445,0.065375,0.013125,0.005875,0.017044,0.00030525,0.008407501,1741897904.638315
0.03925,0.09275,0.0625,-0.0021819999,0.000534,-0.000946,0.071375,0.017625,0.005,0.01651,-0.008377,-0.0061339997,1741897904.652784
0.03775,0.0895,0.0625,-0.00198375,-0.00042725,-0.00070200005,0.083625,0.033125,0.004,0.016983,-0.012313751,-0.013793999,1741897904.6712809
0.0385,0.088875,0.0615,-0.0022125002,-0.00096125,-0.000534,0.08575,0.037,0.0065,0.01908875,-0.016159,-0.021209748,1741897904.682289
0.04,0.091125,0.061,-0.00267025,-0.0017852499,3.0500001e-05,0.084125,0.033375,0.008875,0.025055,-0.0225525,-0.035202,1741897904.6962938
0.04,0.094125,0.06225,-0.002777,-0.0020599999,0.000412,0.074,0.007625,0.010875,0.02705375,-0.024932751,-0.041687,1741897904.712592
0.0385,0.094625,0.0635,-0.00283825,-0.00228875,0.000824,0.06625,-0.010125,0.01275,0.0279235,-0.02793875,-0.0535735,1741897904.725426
0.0365,0.095,0.064625,-0.003128,-0.0028074998,0.00143425,0.032375,-0.058625,0.028625,0.027481,-0.0289765,-0.058426,1741897904.7400131
0.034125,0.09575,0.064625,-0.00343325,-0.00317375,0.0016785001,0.006875,-0.0935,0.044375,0.026428249,-0.03149425,-0.0623475,1741897904.7546282
0.0345,0.095875,0.06375,-0.0045165,-0.0041504996,0.0023039998,-0.038,-0.155,0.076,0.02819825,-0.032669,-0.06039425,1741897904.773812
0.036,0.096,0.062125,-0.0052795,-0.004593,0.0027160002,-0.048875,-0.18025,0.075125,0.036193747,-0.031128,-0.051651,1741897904.786019
0.035625,0.096375,0.06175,-0.0066985004,-0.0052185003,0.0036315,-0.031125,-0.1805,0.040625,0.04129025,-0.02952575,-0.04544075,1741897904.8006809
0.033875,0.098125,0.061875,-0.007019,-0.0054015,0.0040435,-0.031,-0.17975,0.0335,0.046569753,-0.0266265,-0.035705503,1741897904.815447
0.03225,0.09975,0.062125,-0.0070647504,-0.0055695,0.00437925,-0.0495,-0.230625,0.030375,0.04493725,-0.02436825,-0.03044125,1741897904.835136
0.0305,0.101,0.062875,-0.0065917503,-0.00561525,0.0047455,-0.046375,-0.2625,0.0275,0.02879325,-0.01817325,-0.01501475,1741897904.844981
0.02825,0.100875,0.064125,-0.0060882503,-0.00546275,0.00485225,-0.035375,-0.29075,0.03075,0.01367175,-0.0138702495,-0.0065917503,1741897904.859676
0.028375,0.101375,0.0635,-0.0053709997,-0.00517275,0.00517275,-0.027625,-0.273375,0.037125,-0.01832575,-0.004242,0.00712575,1741897904.874443
0.028625,0.105875,0.063375,-0.0053405,-0.005066,0.0053252503,-0.007,-0.2205,0.06125,-0.03025825,0.00029,0.011673001,1741897904.8925078
0.02775,0.107375,0.06475,-0.0051880004,-0.0045012496,0.00531,-0.003125,-0.19975,0.074125,-0.0430145,0.007553,0.0194855,1741897904.9037151
0.02425,0.109,0.068125,-0.0048217503,-0.00399775,0.0052795,-0.00475,-0.1665,0.089625,-0.044754002,0.0100707505,0.02371225,1741897904.9184241
0.021875,0.110625,0.06925,-0.004303,-0.0033875,0.0052185003,-0.002625,-0.1495,0.09025,-0.0429535,0.013992251,0.031066999,1741897904.93312
0.019875,0.111625,0.067875,-0.0030365,-0.0020599999,0.0048217503,0.003875,-0.12525,0.088875,-0.04055775,0.0159455,0.033691503,1741897904.95204
0.0205,0.11125,0.066375,-0.00254825,-0.001526,0.004593,0.00475,-0.1195,0.090625,-0.036026,0.0219115,0.037262,1741897904.962128
0.021375,0.111,0.065,-0.0022735,-0.00090025004,0.0041044997,0.00675,-0.106375,0.091375,-0.0351105,0.0262145,0.03828425,1741897904.9766378
0.0215,0.112,0.064,-0.0023497501,-0.00077825,0.00378425,0.008875,-0.099875,0.087625,-0.03509525,0.03050225,0.038818248,1741897904.992409
0.020625,0.113875,0.064,-0.0021972498,-0.00036625,0.0029449998,0.011125,-0.092625,0.07925,-0.03518675,0.0359955,0.03939825,1741897905.005644
0.0195,0.11675,0.063125,-0.0017242499,1.5250001e-05,0.0024872501,0.019125,-0.0715,0.05775,-0.0335235,0.036911,0.03945925,1741897905.0202339
0.020125,0.11575,0.062,-0.0004425,0.00093075,0.00175475,0.024,-0.058375,0.050625,-0.02699275,0.0359345,0.037277248,1741897905.034783
0.02325,0.11225,0.06075,-3.0500001e-05,0.00125125,0.00154125,0.03825,-0.042125,0.04325,-0.024505502,0.0335235,0.033493,1741897905.051907
0.02525,0.11175,0.0605,0.000229,0.00149525,0.00137325,0.0435,-0.04275,0.0425,-0.02244575,0.027176,0.026672252,1741897905.063817
0.02725,0.111,0.060125,0.00090025004,0.00175475,0.001175,0.043375,-0.045875,0.0475,-0.02153025,0.0250245,0.0248565,1741897905.0783732
0.03025,0.10775,0.061375,0.0013580001,0.0017395001,0.00119025,0.044375,-0.039625,0.044625,-0.0160065,0.0244445,0.0230255,1741897905.0928152
0.030375,0.108625,0.064375,0.0023345,0.00187675,0.0012207499,0.063625,-0.017625,0.02875,-0.01251225,0.02371225,0.021179251,1741897905.1119292
0.0295,0.1175,0.0695,0.0030365,0.0022277501,0.000946,0.072875,-0.010875,0.0245,-0.00378425,0.016967751,0.014206001,1741897905.1218078
0.030125,0.121875,0.069375,0.00520325,0.0032347501,-0.00029,0.081625,-0.005375,0.023125,0.001114,0.01210025,0.010086001,1741897905.1362822
0.03325,0.121,0.068875,0.0064850003,0.00378425,-0.0009765,0.08475,-0.0045,0.023,0.004837,0.0070342496,0.0057372497,1741897905.15268
0.035125,0.114875,0.06975,0.00770575,0.0043182503,-0.00149525,0.08875,-0.000125,0.0195,0.009445249,-0.0028535,-0.0042725,1741897905.165292
0.037375,0.106875,0.07075,0.009643501,0.0053252503,-0.00157175,0.09225,0.010875,0.016375,0.0128785,-0.00794975,-0.010391249,1741897905.1798131
0.038625,0.10225,0.070375,0.01019275,0.00564575,-0.0012207499,0.087625,0.008875,0.0215,0.022094749,-0.016388,-0.02339175,1741897905.1943328
0.037375,0.10625,0.069125,0.010513251,0.00587475,-0.00115975,0.07775,0.006125,0.027125,0.02510075,-0.019455,-0.02981575,1741897905.2115111
0.03525,0.110875,0.06725,0.01083375,0.00587475,-0.001587,0.073375,0.00525,0.027625,0.0269165,-0.0237275,-0.042694,1741897905.223295
0.033875,0.11,0.06775,0.0114135,0.00585925,-0.0021057501,0.047875,-0.02675,0.0425,0.02604675,-0.024643,-0.048522998,1741897905.2378812
0.030625,0.10925,0.06775,0.013214,0.00593575,-0.0027465,0.0295,-0.058125,0.054,0.019195499,-0.025055,-0.05912775,1741897905.252505
0.03,0.105875,0.067125,0.01419075,0.00596625,-0.0028074998,0.008375,-0.106375,0.07225,0.01554875,-0.0253295,-0.06478875,1741897905.267123
0.030375,0.10075,0.067625,0.0149535,0.0059967497,-0.0021972498,0.00225,-0.118875,0.074,0.0162505,-0.025115998,-0.06570425,1741897905.2817202
0.030625,0.094875,0.07075,0.014282251,0.00593575,-0.00175475,-0.001875,-0.1545,0.060125,0.02336125,-0.024993999,-0.060668997,1741897905.296444
0.02975,0.09425,0.072375,0.012405501,0.0057677496,-0.001419,0.0005,-0.185625,0.049,0.041626,-0.0335235,-0.033249002,1741897905.313785
0.02925,0.0945,0.07275,0.011734,0.0057372497,-0.0016175,-0.01575,-0.135625,0.077625,0.04727175,-0.0392915,-0.0194855,1741897905.325814
0.029875,0.094625,0.070875,0.01033025,0.00543225,-0.0022125002,-0.030375,-0.142875,0.0685,0.04685975,-0.0385285,-0.018097,1741897905.340516
0.029125,0.093,0.0685,0.009811499,0.00517275,-0.0020752498,-0.042125,-0.184375,0.050625,0.038940497,-0.02674875,-0.01820375,1741897905.356378
0.02675,0.090625,0.068875,0.009506251,0.0050355,-0.0016785001,-0.029,-0.223875,0.01625,0.031952,-0.02085875,-0.0123595,1741897905.371634
0.025375,0.090125,0.070125,0.008727999,0.0048217503,-0.00105275,-0.016625,-0.221375,0.012,0.0154725,-0.013046251,-0.0018005001,1741897905.3846989
0.024125,0.093625,0.07425,0.0080415,0.00463875,-0.0012055,-0.01425,-0.23625,0.044625,0.007187,-0.009658749,0.0027160002,1741897905.399324
0.02275,0.095375,0.07675,0.00688175,0.0043944996,-0.00181575,-0.01125,-0.23275,0.0685,-0.00842275,-0.0014495,0.013992251,1741897905.4140701
0.022,0.09475,0.0795,0.00671375,0.0044250004,-0.00201425,0.006875,-0.194,0.0925,-0.0142365,0.002777,0.01890575,1741897905.431479
0.023875,0.094,0.079,0.00637825,0.00440975,-0.0020599999,0.0105,-0.181,0.09325,-0.020111,0.009491,0.02604675,1741897905.443048
0.0295,0.092125,0.076375,0.0060577504,0.0042725,-0.0019989999,0.003875,-0.166875,0.082625,-0.0213775,0.012054499,0.029296748,1741897905.45756
0.031125,0.09175,0.07625,0.0055695,0.004074,-0.00193775,0.001125,-0.157,0.076125,-0.02442925,0.0167695,0.0346375,1741897905.4721658
0.031,0.092125,0.077,0.0044555003,0.00367725,-0.00213625,0.003375,-0.133,0.065375,-0.026825001,0.01918025,0.03645325,1741897905.486547
0.029625,0.092125,0.078,0.00444025,0.0036010002,-0.00239575,0.00575,-0.122625,0.0615,-0.03329475,0.02433775,0.038681,1741897905.5011141
0.03025,0.091125,0.078,0.0054015,0.0034790002,-0.0027465,0.011,-0.101875,0.0565,-0.03654475,0.0273285,0.039382998,1741897905.515605
0.032,0.09025,0.077,0.005844,0.00334175,-0.0027465,0.01275,-0.095125,0.05425,-0.039276,0.03070075,0.04002375,1741897905.531562
0.032375,0.089625,0.076875,0.00614925,0.0029145,-0.0025634998,0.014,-0.0905,0.0515,-0.042831503,0.0372925,0.04243475,1741897905.5446138
0.031875,0.0845,0.078625,0.0059510004,0.002655,-0.002411,0.018625,-0.078,0.041625,-0.04341125,0.0395965,0.044632,1741897905.559125
0.0315,0.081,0.078625,0.00543225,0.002411,-0.00213625,0.0245,-0.06325,0.034625,-0.04025275,0.038955748,0.0446015,1741897905.5736132
0.03125,0.078625,0.077875,0.0035095,0.00190725,-0.0011445,0.040375,-0.039,0.023875,-0.035903998,0.036239497,0.0404815,1741897905.591149
0.03075,0.079375,0.075125,0.00245675,0.00154125,-0.00064075,0.048625,-0.026125,0.020125,-0.02180475,0.02970875,0.033508252,1741897905.60271
0.030875,0.080125,0.073875,0.00102225,0.00062550005,-1.5250001e-05,0.061375,-0.008875,0.01425,-0.01351925,0.026000999,0.0305175,1741897905.617274
0.03125,0.078,0.07125,0.00057975,7.625e-05,0.00033575002,0.064125,-0.005,0.011125,0.0011445,0.017807,0.02357475,1741897905.632211
0.031,0.0755,0.069625,-0.00024425,-0.0013580001,0.001587,0.073375,0.004,0.004,0.004547,0.013153,0.018097,1741897905.646142
0.03025,0.06975,0.06575,-0.001007,-0.00238025,0.00245675,0.07975,0.004,-0.00025,0.001236,0.00231925,0.00270075,1741897905.660511
0.029875,0.066875,0.064375,-0.0021515,-0.0036010002,0.00343325,0.082375,-0.00525,0.006375,-0.00096125,-0.0033264998,-0.00428775,1741897905.675195
0.02975,0.0645,0.063,-0.0051574996,-0.0064545004,0.0057220003,0.079375,-0.00425,0.01375,0.00030525,-0.0067597497,-0.009094249,1741897905.691639
0.030125,0.06825,0.062125,-0.0068969997,-0.00811775,0.0070342496,0.08025,0.00325,0.013,0.007599,-0.008712751,-0.0172425,1741897905.704459
0.02875,0.07425,0.0635,-0.0106965,-0.01150525,0.009094249,0.0815,0.01375,0.011375,0.011825499,-0.0114440005,-0.0227355,1741897905.719085
0.0225,0.0825,0.069875,-0.012619001,-0.012847999,0.009903,0.07675,0.0115,0.01675,0.019134501,-0.02064525,-0.035797,1741897905.733545
0.018375,0.0895,0.072625,-0.01651,-0.0148925,0.011306751,0.054875,-0.01825,0.036625,0.01950075,-0.02490225,-0.042389,1741897905.752408
0.012875,0.09575,0.068875,-0.018402,-0.01560975,0.011673001,0.045125,-0.038125,0.045875,0.014618,-0.030746501,-0.053894002,1741897905.76286
0.011125,0.094,0.068125,-0.0220185,-0.016845752,0.0128785,0.027625,-0.08325,0.06575,0.01239025,-0.032714747,-0.05882275,1741897905.777477
0.006375,0.08975,0.0705,-0.023758,-0.017501751,0.013778751,0.015125,-0.11475,0.076875,0.018020751,-0.0332795,-0.062393248,1741897905.7940679
0.003625,0.0955,0.068375,-0.02548225,-0.018310498,0.014648501,-0.0015,-0.195875,0.076625,0.02418525,-0.032516498,-0.05537425,1741897905.806782
0.00125,0.106875,0.062875,-0.029129,-0.01979075,0.01380925,0.006875,-0.1905,0.083375,0.0273895,-0.044159,-0.0319215,1741897905.821416
-0.0005,0.126625,0.0535,-0.029601999,-0.019927999,0.011688249,0.01775,-0.1125,0.094875,0.034073003,-0.04512025,-0.02598575,1741897905.8360388
0.0005,0.128625,0.053125,-0.025406,-0.0187225,0.00643925,0.019625,-0.098,0.060375,0.050827,-0.033615,-0.0281525,1741897905.853183
0.003375,0.1325,0.055125,-0.02171325,-0.017730748,0.0043639997,-0.012875,-0.158375,0.032875,0.054123,-0.03005975,-0.02763375,1741897905.865377
0.004875,0.13875,0.058625,-0.01452625,-0.015579251,0.0013275,-0.0265,-0.191625,0.040375,0.05473325,-0.028747499,-0.0229645,1741897905.8800168
0.00925,0.14175,0.06875,-0.011535751,-0.01431275,0.00029,-0.035125,-0.25675,0.044375,0.04379275,-0.02427675,-0.009201,1741897905.894708
0.01125,0.136125,0.075375,-0.00767525,-0.011535751,-0.00036625,-0.028625,-0.263125,0.039375,0.02964775,-0.0186005,-0.0027312501,1741897905.912725
0.013125,0.122,0.086875,-0.007187,-0.01013175,-0.0002595,-0.01775,-0.248,0.040375,-0.0037079998,-0.00511175,0.0062255003,1741897905.924193
0.01275,0.122125,0.090375,-0.0079955,-0.0072937496,-0.0007325,0.004125,-0.197,0.05975,-0.016021749,0.000946,0.009369001,1741897905.938796
0.009125,0.138125,0.09875,-0.0080567505,-0.0056,-0.0020599999,0.011125,-0.178125,0.068875,-0.027771,0.0088805,0.0157165,1741897905.953364
0.005625,0.14775,0.1035,-0.0052795,-0.00102225,-0.006073,0.009375,-0.160125,0.0765,-0.029296748,0.01115425,0.01940925,1741897905.9716768
-0.003875,0.16525,0.10525,-0.0021972498,0.00201425,-0.008209251,0.007375,-0.1505,0.07675,-0.03138725,0.016128499,0.026596,1741897905.982444
-0.007625,0.16875,0.102625,0.00160225,0.0054780003,-0.010437001,0.012625,-0.125625,0.075,-0.032897998,0.019226,0.029144252,1741897905.997042
-0.01225,0.169875,0.103125,0.00897225,0.0127105,-0.01586925,0.01675,-0.11675,0.072875,-0.0361785,0.025528,0.03190625,1741897906.012602
-0.0225,0.1645,0.1085,0.0115205,0.016540501,-0.019348249,0.02175,-0.102375,0.065875,-0.0375825,0.02854925,0.03300475,1741897906.026189
-0.021125,0.158875,0.104625,0.01548775,0.0243225,-0.025711,0.022625,-0.095125,0.061875,-0.03872675,0.03515625,0.035965,1741897906.040724
-0.004875,0.1525,0.085,0.01731875,0.027526751,-0.02819825,0.020625,-0.0815,0.05725,-0.037048247,0.03710925,0.0366975,1741897906.055277
0.000625,0.147375,0.0785,0.020401,0.0324555,-0.03297425,0.025375,-0.076125,0.053125,-0.03149425,0.03775025,0.035553,1741897906.071862
0.007125,0.127375,0.06875,0.02253725,0.03462225,-0.034973253,0.039,-0.06325,0.047125,-0.02961725,0.03742975,0.03408825,1741897906.084432
0.01225,0.113625,0.061375,0.0278015,0.0378265,-0.03712475,0.047375,-0.05575,0.04175,-0.027984502,0.0365295,0.03186025,1741897906.099034
0.02325,0.086,0.044875,0.029541,0.0382385,-0.037277248,0.0575,-0.043875,0.035,-0.022033751,0.031311,0.02586375,1741897906.1135528
0.0285,0.073875,0.03875,0.030029248,0.0376435,-0.03695675,0.073625,-0.027125,0.022875,-0.017883249,0.02711475,0.0223235,1741897906.131932
0.0335,0.06525,0.03375,0.026825001,0.03347775,-0.035141,0.078875,-0.02525,0.017125,-0.0137635,0.01579275,0.013427749,1741897906.142601
0.0455,0.049625,0.02525,0.02386475,0.030334499,-0.033661,0.0685,-0.042375,0.02775,-0.009658749,0.01104725,0.01095575,1741897906.157102
0.053125,0.04125,0.0215,0.016876249,0.02323925,-0.02940375,0.067125,-0.039375,0.0255,0.002121,0.00764475,0.009582501,1741897906.171563
0.066375,0.030625,0.015125,0.01322925,0.019317752,-0.02664175,0.0805,-0.01175,0.016875,0.0055847503,0.00520325,0.0068665,1741897906.186072
0.070375,0.027375,0.012,0.00668325,0.011383001,-0.020462,0.087625,0.002375,0.014625,0.0103455,-0.0033875,-0.00494375,1741897906.2005498
0.07625,0.0165,0.01,0.00399775,0.0075377496,-0.016998248,0.083375,0.00375,0.016875,0.013321,-0.00845325,-0.01216125,1741897906.215148
0.07825,0.01075,0.011625,0.001709,0.0038757501,-0.013137749,0.078,0.00025,0.018,0.01766975,-0.01719675,-0.0270385,1741897906.232358
0.079375,0.00775,0.013875,-0.0013580001,-0.002533,-0.0043182503,0.073875,-0.001875,0.0225,0.01811225,-0.0207215,-0.035293497,1741897906.2443311
0.0795,0.008,0.015875,-0.0020905002,-0.0053405,0.0002135,0.0705,-0.007125,0.029,0.017685,-0.023940999,-0.043747,1741897906.2588642
0.078875,0.01125,0.01825,-0.003006,-0.01077275,0.009094249,0.04625,-0.04425,0.048125,0.015289251,-0.0295105,-0.05752575,1741897906.27363
0.071125,0.02375,0.032375,-0.00364675,-0.01324475,0.01316825,0.021,-0.07825,0.061,0.01425175,-0.0316315,-0.06207275,1741897906.288247
0.0635,0.03175,0.04125,-0.00621025,-0.017181499,0.020218,-0.0015,-0.112875,0.07625,0.0184785,-0.03395075,-0.067520246,1741897906.302906
0.047125,0.055875,0.05675,-0.0081635,-0.01852425,0.02316275,-0.00075,-0.153125,0.06175,0.02613825,-0.032196,-0.0583955,1741897906.317652
0.04225,0.07025,0.061375,-0.013153,-0.0200805,0.026855499,0.017375,-0.131375,0.041375,0.037231497,-0.04214475,-0.033264253,1741897906.333168
0.0415,0.09125,0.066875,-0.0157165,-0.020599252,0.027404752,-0.00725,-0.116125,0.073375,0.040664747,-0.04786675,-0.031845,1741897906.351831
0.041125,0.10225,0.074,-0.018020751,-0.02098075,0.0272065,-0.03375,-0.152375,0.0745,0.049942,-0.0421905,-0.0289155,1741897906.361709
0.04025,0.112625,0.082,-0.02114875,-0.020477248,0.023925751,-0.0435,-0.196875,0.037875,0.04948425,-0.035797,-0.0212555,1741897906.379882
0.048375,0.10525,0.082,-0.0216675,-0.019516,0.021881001,-0.031375,-0.194875,0.014875,0.038513247,-0.0230865,-0.00747675,1741897906.39385
0.05475,0.0975,0.072,-0.020782499,-0.0180665,0.021209748,-0.015,-0.204375,-0.00075,0.0329895,-0.019622749,-0.00643925,1741897906.406049
0.055,0.102,0.058625,-0.01994325,-0.018127501,0.0214385,-0.01475,-0.218125,0.011875,0.020218,-0.01579275,-0.0012665,1741897906.420751
0.04925,0.10975,0.05875,-0.01893625,-0.018692,0.0202485,-0.008875,-0.22,0.041625,0.010513251,-0.011901749,0.00384525,1741897906.435344
0.032,0.148625,0.0735,-0.01805125,-0.01826475,0.018341,-0.001375,-0.206625,0.05,-0.0104065,-0.001709,0.012405501,1741897906.452306
0.02625,0.172,0.08425,-0.0160675,-0.016983,0.01504525,0.00775,-0.181125,0.06325,-0.01918025,0.0029449998,0.0153807495,1741897906.464472
0.023875,0.187875,0.095125,-0.008788999,-0.0106965,0.0065917503,0.00475,-0.172875,0.068625,-0.0329895,0.0111085,0.0209655,1741897906.4790468
0.025875,0.19,0.11325,-0.0043944996,-0.00570675,0.0026854998,-0.004375,-0.153625,0.071,-0.03816225,0.014800999,0.024047751,1741897906.4936278
0.02725,0.18225,0.117875,0.00369275,0.00488275,-0.0041504996,-0.003875,-0.140625,0.068375,-0.04202275,0.018158002,0.0269165,1741897906.51233
0.033125,0.164375,0.1085,0.00691225,0.00924675,-0.00770575,-0.00025,-0.12975,0.066375,-0.04667675,0.023498502,0.03056325,1741897906.522966
0.038625,0.1555,0.102625,0.011795,0.015167249,-0.014510999,0.012375,-0.1145,0.064625,-0.04824825,0.025787251,0.031372,1741897906.537463
0.04325,0.151875,0.099875,0.014068499,0.01722725,-0.017578252,0.01675,-0.11,0.06575,-0.049942,0.031021,0.0319215,1741897906.552039
0.043125,0.150625,0.099,0.01667775,0.019226,-0.02064525,0.01825,-0.096875,0.07025,-0.05030825,0.034911998,0.032135,1741897906.566551
0.041375,0.127625,0.099625,0.02265925,0.02452075,-0.02592475,0.019625,-0.0905,0.07125,-0.0486755,0.04243475,0.0331115,1741897906.581293
0.041375,0.112,0.09575,0.025589,0.02772525,-0.02731325,0.024875,-0.072125,0.06375,-0.044967752,0.04388425,0.03359975,1741897906.5958788
0.044125,0.099,0.08675,0.029892,0.032714747,-0.028305,0.032125,-0.061125,0.05575,-0.035553,0.040161252,0.029266251,1741897906.611679
0.052,0.082625,0.06525,0.03050225,0.03373725,-0.028594999,0.05,-0.058625,0.04,-0.032776,0.0353545,0.026062,1741897906.625225
0.05325,0.07625,0.056625,0.02964775,0.03312675,-0.028946,0.056375,-0.057375,0.037,-0.027984502,0.0246735,0.0230865,1741897906.639787
0.0535,0.061625,0.043,0.028686501,0.0318145,-0.028656,0.053,-0.05625,0.042375,-0.02348325,0.0229035,0.02297975,1741897906.65435
0.05375,0.0525,0.038375,0.02452075,0.027526751,-0.02626025,0.054625,-0.0495,0.0375,-0.012619001,0.023346001,0.02285775,1741897906.671906
0.057,0.036375,0.02725,0.021484248,0.024505502,-0.0239105,0.065125,-0.033125,0.030125,-0.0081635,0.02088925,0.02165225,1741897906.683359
0.059125,0.03025,0.021875,0.017746,0.020874001,-0.021026501,0.068625,-0.021625,0.030625,-0.0043335,0.0172425,0.01968375,1741897906.697803
0.060875,0.021875,0.01675,0.00883475,0.012207,-0.0149995005,0.0715,-0.0115,0.03075,0.000763,0.0091705,0.011901749,1741897906.712311
0.064125,0.00175,0.006625,0.0047302498,0.007599,-0.011398249,0.080875,0.000875,0.02175,0.00320425,0.0049590003,0.0068207504,1741897906.7266638
0.066,-0.003375,0.001375,-0.00102225,-0.0011445,-0.00216675,0.085625,0.0055,0.015,0.0103455,-0.00469975,-0.00416575,1741897906.74124
0.070125,-0.0035,-0.003625,-0.0025940002,-0.0050812503,0.00254825,0.087,0.009,0.0135,0.014648501,-0.009887749,-0.009887749,1741897906.755879
0.072125,-0.002375,-0.003,-0.00538625,-0.01295475,0.0112305,0.083875,0.00525,0.017125,0.02359,-0.01817325,-0.021606501,1741897906.77405
0.0665,0.0045,0.005375,-0.00697325,-0.016998248,0.0155030005,0.074625,-0.003625,0.025875,0.027252251,-0.02079775,-0.027679501,1741897906.785135
0.059375,0.007125,0.0125,-0.009796251,-0.0239105,0.02421575,0.068125,-0.007,0.033125,0.03019725,-0.0247955,-0.041031,1741897906.7997031
0.0415,0.0245,0.034375,-0.01194775,-0.026672252,0.02848825,0.049,-0.03,0.05125,0.02970875,-0.0270385,-0.04765325,1741897906.817003
0.02925,0.0475,0.049875,-0.014587499,-0.028885,0.032074,0.035875,-0.0525,0.0605,0.0273895,-0.032409754,-0.06044,1741897906.831499
0.016125,0.076125,0.06525,-0.018585252,-0.030731251,0.03506475,0.009,-0.104875,0.0775,0.02781675,-0.03536975,-0.068344004,1741897906.843807
0.004125,0.11925,0.082,-0.0194855,-0.03044125,0.03421025,0.003875,-0.11575,0.081,0.03158575,-0.037735,-0.071762,1741897906.858436
0.00975,0.123875,0.0825,-0.02098075,-0.0292815,0.030365,-0.0035,-0.15575,0.078375,0.034256,-0.037796002,-0.0676575,1741897906.8731542
0.03025,0.108,0.077125,-0.022934001,-0.029022248,0.029022248,-0.013,-0.2445,0.07825,0.0382995,-0.03819275,-0.05906675,1741897906.8919911
0.0345,0.103375,0.071375,-0.03025825,-0.02978525,0.0298005,-0.024125,-0.181375,0.093125,0.060806252,-0.0443115,-0.0078735,1741897906.9026592
0.031125,0.12075,0.06125,-0.0346985,-0.030075,0.02919,-0.03075,-0.143625,0.046125,0.06295775,-0.038498,0.0023345,1741897906.917363
0.027625,0.131625,0.060125,-0.03807075,-0.02961725,0.0267945,-0.042375,-0.1565,0.006125,0.061141998,-0.025879,-0.005005,1741897906.932041
0.025375,0.14675,0.063375,-0.037277248,-0.02648925,0.019622749,-0.040375,-0.23375,-0.0245,0.061523497,-0.02548225,-0.00354,1741897906.952002
0.024,0.2005,0.081875,-0.032424998,-0.0238495,0.01531975,-0.0275,-0.272,-0.02375,0.03904725,-0.02105725,0.011764499,1741897906.961538
0.02525,0.221125,0.095625,-0.0154115,-0.0160675,0.00561525,-0.011,-0.27325,0.00275,0.014800999,-0.01330575,0.019622749,1741897906.976162
0.033125,0.20825,0.115875,-0.0054015,-0.0109709995,0.001526,-0.005875,-0.236,0.021125,-0.029571502,0.0055085,0.0316315,1741897906.9928682
0.03725,0.186375,0.121,0.008148249,-0.00083925005,-0.003769,0.008,-0.166375,0.042875,-0.042724498,0.01324475,0.036789,1741897907.005365
0.032875,0.155125,0.123125,0.00982675,0.00317375,-0.0060882503,0.013875,-0.138625,0.0455,-0.055313,0.02430725,0.045227002,1741897907.019851
0.0255,0.155375,0.123625,0.00962825,0.010147001,-0.012771499,0.018625,-0.094375,0.049,-0.05717475,0.02822875,0.048049998,1741897907.0344079
0.018875,0.174,0.121375,0.01187125,0.0141755,-0.016998248,0.022625,-0.07625,0.051,-0.056686502,0.031036502,0.046112,1741897907.0522869
0.020375,0.177375,0.115875,0.016418502,0.018615749,-0.02130125,0.032875,-0.071,0.057625,-0.054596,0.03053275,0.04319775,1741897907.0634959
0.02225,0.17225,0.10775,0.0290375,0.027740499,-0.02810675,0.036875,-0.071,0.0585,-0.046173,0.030548,0.042724498,1741897907.078101
0.022375,0.13725,0.098625,0.034546003,0.03205875,-0.03025825,0.051875,-0.044125,0.053125,-0.041931253,0.0298615,0.0417175,1741897907.0927281
0.0225,0.1185,0.09425,0.03996275,0.03862,-0.032424998,0.055375,-0.040875,0.047625,-0.0378265,0.0283965,0.038390998,1741897907.111329
0.032375,0.0925,0.072625,0.039444,0.039855998,-0.0330505,0.064125,-0.02325,0.035375,-0.029739501,0.024353001,0.0290985,1741897907.121846
0.038375,0.084,0.061375,0.033203,0.03840625,-0.034179747,0.066875,-0.0215,0.028125,-0.028305,0.0213165,0.022369498,1741897907.136511
0.048125,0.064875,0.042125,0.02905275,0.036209,-0.03445425,0.06775,-0.02575,0.026625,-0.026977502,0.009887749,0.01083375,1741897907.152151
0.05225,0.054,0.03375,0.0253295,0.03344725,-0.03395075,0.056625,-0.03125,0.04375,-0.0207215,0.0058899997,0.00891125,1741897907.1655731
0.055,0.04375,0.026875,0.018753,0.027282748,-0.031158501,0.05875,-0.01825,0.0355,-0.0029449998,0.003769,0.0061339997,1741897907.180026
0.05325,0.02875,0.0175,0.016021749,0.02409375,-0.029373249,0.075125,0.0,0.019375,0.00193775,0.000473,0.0011445,1741897907.19439
0.053,0.020375,0.014,0.01239025,0.017547501,-0.024826,0.078125,-0.000125,0.0175,0.008651749,-0.009292499,-0.01194775,1741897907.211953
0.05975,0.00075,0.009375,0.01121525,0.01419075,-0.02124025,0.075625,-0.002625,0.020125,0.011749251,-0.013702501,-0.018509,1741897907.223661
0.06325,-0.0065,0.0095,0.00737,0.0070647504,-0.0117035,0.071625,-0.00575,0.02675,0.014389,-0.019622749,-0.033249002,1741897907.238249
0.07,-0.017125,0.010375,0.0041810004,0.00317375,-0.00665275,0.05575,-0.0275,0.050375,0.0136565,-0.021560749,-0.041336,1741897907.2534232
0.07325,-0.02,0.012375,9.15e-05,-0.001068,-0.00160225,0.046875,-0.045875,0.058,0.014618,-0.0256195,-0.05581675,1741897907.267734
0.07375,-0.014625,0.0175,-0.009323,-0.0095672505,0.009201,0.035875,-0.077625,0.064,0.018448,-0.027359,-0.06216425,1741897907.28224
0.073,-0.01025,0.0185,-0.013046251,-0.013183501,0.014724749,0.0385,-0.082125,0.064375,0.0233155,-0.02746575,-0.0655365,1741897907.297046
0.0725,-0.008375,0.018625,-0.01737975,-0.01911925,0.025299,0.023625,-0.1255,0.0595,0.03500375,-0.024780251,-0.0539855,1741897907.3120399
0.072875,-0.007875,0.01975,-0.01855475,-0.02165225,0.03047175,0.0105,-0.145875,0.06075,0.040451,-0.02722175,-0.04312125,1741897907.326303
0.07075,0.00125,0.02525,-0.021362249,-0.0264435,0.04031375,-0.0115,-0.163625,0.081875,0.038085997,-0.04110725,-0.0292815,1741897907.341192
0.048625,0.055,0.054875,-0.02262875,-0.02804575,0.044098,-0.0385,-0.16725,0.10375,0.03787225,-0.04104625,-0.025787251,1741897907.355962
0.028875,0.095,0.074625,-0.022643998,-0.02766425,0.0464325,-0.032375,-0.173375,0.081625,0.03857425,-0.024582,-0.016998248,1741897907.3723562
0.002625,0.153,0.090375,-0.0211945,-0.02586375,0.04447925,-0.01625,-0.185125,0.015625,0.03857425,-0.017868,-0.01222225,1741897907.3854752
0.005625,0.154,0.08975,-0.01911925,-0.023758,0.0414735,-0.020125,-0.19925,0.002875,0.037857,-0.0156555,-0.00535575,1741897907.400416
0.014875,0.140375,0.086625,-0.01708975,-0.0209655,0.037155252,-0.02975,-0.23525,0.0225,0.03323375,-0.014328,-0.00030525,1741897907.4151602
0.019,0.135,0.070875,-0.01968375,-0.02168275,0.03601075,-0.025125,-0.245375,0.03175,0.0072480002,-0.00305175,0.011825499,1741897907.4322188
0.009875,0.143625,0.06425,-0.03108225,-0.0242005,0.029693501,0.000375,-0.216125,0.038,-0.009323,0.00408925,0.016983,1741897907.444448
-0.010875,0.166375,0.060375,-0.036087003,-0.024063,0.024947999,0.008625,-0.189,0.042625,-0.0345,0.0153502505,0.023834249,1741897907.458965
-0.011875,0.1965,0.068,-0.036026,-0.019348249,0.012741,0.008375,-0.15375,0.05575,-0.041869998,0.01924125,0.02601625,1741897907.473564
0.014,0.25725,0.089125,-0.0289765,-0.01475525,0.0039825,0.005,-0.1425,0.059625,-0.049743753,0.025238002,0.030243,1741897907.491822
0.035125,0.25275,0.0925,-0.0054932497,-0.00444025,-0.01187125,0.014375,-0.100625,0.063375,-0.051071253,0.02772525,0.0315095,1741897907.5029252
0.06075,0.197125,0.108375,0.0057525,-0.000122000005,-0.01678475,0.019375,-0.0885,0.06825,-0.049423248,0.033554003,0.031952,1741897907.517545
0.058375,0.168,0.119,0.0138702495,0.0035095,-0.020049999,0.021,-0.085375,0.0705,-0.046981752,0.0384675,0.033783,1741897907.532303
0.048125,0.14575,0.124875,0.019577,0.0102235,-0.02436825,0.023625,-0.077125,0.063375,-0.04158025,0.046692003,0.0373535,1741897907.552035
0.02975,0.125875,0.117125,0.01921075,0.013839751,-0.026092501,0.0425,-0.056375,0.04025,-0.039322,0.044662498,0.034027,1741897907.561344
0.03025,0.123625,0.107,0.020218,0.02082825,-0.028778,0.05175,-0.054125,0.032,-0.039169252,0.03933725,0.028167749,1741897907.5758631
0.035,0.1275,0.087875,0.02230825,0.0237275,-0.030075,0.05525,-0.05625,0.031625,-0.03860475,0.02648925,0.019348249,1741897907.591916
0.037625,0.123,0.077875,0.02838125,0.02879325,-0.032409754,0.050625,-0.051375,0.039125,-0.0335235,0.02326975,0.01808175,1741897907.604952
0.047125,0.09,0.055,0.031433,0.0308685,-0.032409754,0.051375,-0.046625,0.035375,-0.0193635,0.02241525,0.0168305,1741897907.6195571
0.0495,0.078625,0.046875,0.0329895,0.03202825,-0.03179925,0.06125,-0.036125,0.025625,-0.01266475,0.0204315,0.0155030005,1741897907.634263
0.045,0.06375,0.044625,0.02993775,0.032043498,-0.031188998,0.06625,-0.029375,0.02275,-0.00051875,0.0114135,0.0104065,1741897907.651631
0.040875,0.0615,0.046,0.02693175,0.03167725,-0.031158501,0.07675,-0.017875,0.015875,0.00402825,0.0057677496,0.0062407497,1741897907.6634681
0.03975,0.059625,0.042875,0.022369498,0.02996825,-0.0317535,0.08025,-0.01525,0.012875,0.00935375,-0.0059510004,-0.004593,1741897907.678305
0.046,0.046375,0.028875,0.0207215,0.028122,-0.03211975,0.0795,-0.014125,0.017875,0.01156625,-0.0117035,-0.010162249,1741897907.693124
0.0505,0.041875,0.02275,0.016159,0.021942249,-0.031128,0.076375,-0.014875,0.023375,0.018188499,-0.02130125,-0.0203095,1741897907.708252
0.057125,0.037375,0.012625,0.0141145,0.018127501,-0.029907249,0.067375,-0.021625,0.0375,0.021484248,-0.0246735,-0.0253295,1741897907.7225652
0.06225,0.02925,0.00925,0.0081635,0.00852975,-0.02436825,0.060875,-0.03225,0.045375,0.023528999,-0.028366,-0.03562925,1741897907.737338
0.071375,0.01275,0.008,0.003662,0.0027312501,-0.020218,0.048,-0.049875,0.052875,0.02288825,-0.02934275,-0.041183498,1741897907.754862
0.0745,0.00675,0.00975,-0.00096125,-0.0031585,-0.0156555,0.04425,-0.055125,0.053125,0.02452075,-0.03108225,-0.055908248,1741897907.766561
0.078,-0.002125,0.01325,-0.00991825,-0.013717749,-0.00505075,0.037,-0.068875,0.060625,0.027557248,-0.031570498,-0.0589905,1741897907.781166
0.0855,-0.019375,0.024875,-0.01310725,-0.01779175,0.0013275,0.020625,-0.08725,0.06575,0.031433,-0.031967252,-0.057189997,1741897907.796723
0.087125,-0.02125,0.02975,-0.01753225,-0.02326975,0.014923001,-0.024,-0.185875,0.06675,0.038925253,-0.034851003,-0.04925525,1741897907.812397
0.080875,-0.010375,0.03925,-0.019622749,-0.02503975,0.02159125,-0.027625,-0.217,0.069875,0.044098,-0.0382995,-0.03572075,1741897907.8254342
0.07275,0.004625,0.047375,-0.0223235,-0.026886,0.0328675,-0.02075,-0.157625,0.088875,0.05104075,-0.04148875,-0.0100707505,1741897907.840211
0.0515,0.0425,0.0685,-0.022094749,-0.02711475,0.036941502,-0.018125,-0.1205,0.062375,0.047622748,-0.033691503,-0.01554875,1741897907.854934
0.041,0.064375,0.079625,-0.021514999,-0.0269165,0.0401305,-0.020875,-0.152875,0.03925,0.04151925,-0.02070625,-0.02082825,1741897907.8722901
0.027625,0.107875,0.0955,-0.0220795,-0.0254365,0.043716498,-0.0355,-0.215875,-0.00425,0.036255002,-0.01719675,-0.017746,1741897907.884594
0.028125,0.12025,0.09775,-0.022934001,-0.02374275,0.04331975,-0.039,-0.225625,-0.019375,0.02073675,-0.01463325,-0.0052795,1741897907.899359
0.0325,0.130125,0.097875,-0.02519225,-0.020141501,0.03904725,-0.034125,-0.22475,-0.0015,0.011688249,-0.0128632495,0.0008545,1741897907.914203
0.04475,0.123375,0.09225,-0.027237,-0.019012501,0.035797,-0.025,-0.217125,0.018125,-0.0068665,-0.005066,0.0106355,1741897907.932353
0.04725,0.10425,0.07825,-0.02911375,-0.01756275,0.03215025,-0.006,-0.196,0.039875,-0.016632,-1.5250001e-05,0.014328,1741897907.94369
0.033875,0.105625,0.05,-0.029449498,-0.017746,0.03161625,-0.00325,-0.182875,0.047875,-0.03459175,0.009445249,0.0204925,1741897907.958349
0.024,0.124375,0.04,-0.030243,-0.019104,0.0265045,-0.004875,-0.153625,0.060875,-0.041396998,0.013793999,0.023117,1741897907.973094
0.0065,0.192125,0.04125,-0.02923575,-0.019027751,0.021103,-0.006375,-0.141,0.0675,-0.04969775,0.0216675,0.02746575,1741897907.9921138
0.00375,0.22475,0.053625,-0.025314251,-0.017624,0.0139465,-0.00075,-0.115375,0.07975,-0.05122375,0.02516175,0.0289155,1741897908.002497
0.007875,0.234625,0.065875,-0.008926501,-0.0106355,-0.0014495,0.005625,-0.105,0.08075,-0.050293,0.03297425,0.031158501,1741897908.017066
0.025,0.1955,0.082375,-0.00062550005,-0.00637825,-0.0068207504,0.0195,-0.088,0.076375,-0.0490265,0.036941502,0.03179925,1741897908.03211
0.032125,0.17125,0.086875,0.0067902496,0.0002595,-0.012191749,0.021875,-0.088875,0.073125,-0.045272753,0.042358503,0.03353875,1741897908.046366
0.035125,0.15675,0.092,0.0060577504,0.0025025,-0.013793999,0.023625,-0.075125,0.056,-0.042236254,0.04281625,0.034546003,1741897908.0609941
0.035125,0.16275,0.093125,0.0041810004,0.0066374997,-0.01937875,0.03425,-0.06125,0.044125,-0.0385285,0.040039003,0.032486,1741897908.0754602
0.036375,0.162875,0.0885,0.0057372497,0.009079001,-0.023346001,0.052875,-0.051375,0.038125,-0.032776,0.02781675,0.02323925,1741897908.0923579
0.037,0.15325,0.08475,0.009017999,0.011612001,-0.02719125,0.053375,-0.051375,0.0435,-0.029251,0.022216748,0.020752002,1741897908.104715
0.03775,0.138375,0.0795,0.01628125,0.01589975,-0.0331725,0.049375,-0.053375,0.0485,-0.017547501,0.01896675,0.019744748,1741897908.119318
0.037375,0.112375,0.07,0.018692,0.017303498,-0.035263002,0.05225,-0.049625,0.039875,-0.011734,0.0196685,0.0196075,1741897908.134084
0.0375,0.103625,0.06675,0.021789499,0.0196685,-0.038757253,0.057625,-0.0445,0.035,-0.00411975,0.0166015,0.017028749,1741897908.152229
0.043625,0.082625,0.058,0.023834249,0.02076725,-0.03993225,0.067625,-0.02775,0.03075,-0.0022277501,0.013183501,0.0139770005,1741897908.162961
0.047625,0.074,0.05375,0.0266265,0.0211335,-0.03974925,0.073375,-0.020625,0.0275,0.000412,0.0049590003,0.0048065,1741897908.177491
0.05725,0.051125,0.043125,0.02563475,0.02006525,-0.03854375,0.083625,-0.008,0.020625,0.00302125,0.00029,-0.000412,1741897908.193027
0.06175,0.0385,0.037875,0.022705,0.018280001,-0.03660575,0.084375,-0.00425,0.022,0.0102845,-0.009948749,-0.01133725,1741897908.2065501
0.065375,0.028875,0.03425,0.01239025,0.0127105,-0.0306855,0.07975,-0.002875,0.03425,0.01380925,-0.01474,-0.01670825,1741897908.2211509
0.071625,0.02125,0.0325,0.0071409997,0.0093385,-0.027359,0.0765,-0.0035,0.036875,0.019455,-0.02174375,-0.0272675,1741897908.2359529
0.07375,0.019625,0.03325,0.00033575002,0.002884,-0.02064525,0.063375,-0.012125,0.038375,0.0220185,-0.02417,-0.03250125,1741897908.2557209
0.07725,0.01775,0.034375,-0.00064075,0.0002135,-0.01678475,0.048,-0.029375,0.045,0.02449025,-0.02601625,-0.037323,1741897908.265163
0.079625,0.013,0.03375,0.0005645,-0.0037079998,-0.0072175004,0.01,-0.081125,0.06325,0.02708425,-0.02766425,-0.04464725,1741897908.279815
0.08575,-0.007125,0.028125,0.0010375,-0.0053405,-0.001526,-0.000625,-0.0985,0.0675,0.0263215,-0.027542,-0.04815675,1741897908.2946172
0.088625,-0.012125,0.026625,0.00054925,-0.00720225,0.0045777503,-0.000625,-0.1065,0.069375,0.02359,-0.0275115,-0.05947875,1741897908.312023
0.0895,-0.012125,0.0265,-0.00358575,-0.01136775,0.01643375,-0.001875,-0.120875,0.078375,0.02351375,-0.02737425,-0.0614165,1741897908.324262
0.082,-0.005125,0.02975,-0.0067445002,-0.013641249,0.02183525,-0.009375,-0.146625,0.07975,0.0327605,-0.030075,-0.051513746,1741897908.3389912
0.072875,0.007125,0.039125,-0.0122375,-0.017852752,0.0313415,-0.023625,-0.2245,0.0765,0.043258753,-0.03373725,-0.032897998,1741897908.353659
0.047,0.04925,0.0655,-0.013488751,-0.01937875,0.0346375,-0.0195,-0.160375,0.094125,0.050048754,-0.0346375,-0.00320425,1741897908.3722508
0.036375,0.064375,0.0715,-0.01367175,-0.021636998,0.03866575,-0.025875,-0.117625,0.05025,0.044143748,-0.0262145,-0.010528499,1741897908.38336
0.027125,0.077125,0.07225,-0.013290499,-0.02165225,0.039794996,-0.034625,-0.155875,0.020125,0.037384,-0.0178375,-0.016998248,1741897908.398205
0.027625,0.080125,0.070125,-0.0148315,-0.0198365,0.040466253,-0.04725,-0.2175,0.0005,0.033370998,-0.017181499,-0.0111085,1741897908.4128299
0.02525,0.0995,0.072875,-0.016861,-0.01927175,0.04049675,-0.044375,-0.224625,-0.00125,0.01734925,-0.01260375,0.0030365,1741897908.432471
0.018625,0.12325,0.076,-0.0190735,-0.018859752,0.0398865,-0.02425,-0.22025,0.009125,0.006073,-0.008636501,0.00798025,1741897908.442206
0.017375,0.1455,0.05675,-0.02130125,-0.016418502,0.034973253,-0.016,-0.207625,0.022125,-0.01519775,0.00036625,0.0139465,1741897908.456843
0.022375,0.141375,0.04225,-0.020446751,-0.014785751,0.03250125,-0.013625,-0.184375,0.055875,-0.023498502,0.00488275,0.0166625,1741897908.472373
0.0245,0.137625,0.0405,-0.020446751,-0.01367175,0.02949525,-0.013375,-0.17225,0.065875,-0.03524775,0.01367175,0.02351375,1741897908.486184
0.019125,0.1565,0.06575,-0.021576,-0.0129395,0.026702998,-0.0075,-0.14375,0.068375,-0.03958125,0.01747125,0.026596,1741897908.5008209
0.016125,0.1815,0.080375,-0.01808175,-0.008209251,0.01617425,-0.0025,-0.13,0.068125,-0.045654252,0.023468,0.0301665,1741897908.515581
0.01825,0.20875,0.090375,-0.0125275,-0.00466925,0.0100555,0.01175,-0.105,0.07075,-0.046997003,0.025848499,0.0306245,1741897908.532307
0.02375,0.200375,0.08775,0.0020905002,0.0022277501,0.00112925,0.0155,-0.0995,0.0735,-0.04707325,0.027771,0.03041075,1741897908.544738
0.033125,0.166125,0.08175,0.0077515002,0.0047302498,-0.00187675,0.01675,-0.0875,0.071375,-0.04505925,0.030365,0.02958675,1741897908.559256
0.032125,0.153,0.081125,0.010437001,0.006302,-0.0045625,0.0225,-0.077875,0.065125,-0.043258753,0.031005751,0.028885,1741897908.573751
0.027375,0.14825,0.08325,0.009658749,0.008072,-0.0101775,0.029125,-0.072125,0.060125,-0.035049498,0.029373249,0.027542,1741897908.591615
0.017125,0.162875,0.091625,0.0095672505,0.009552,-0.013412501,0.035,-0.06725,0.05225,-0.030136,0.027893,0.0267945,1741897908.6031659
0.01875,0.16825,0.0895,0.014648501,0.01474,-0.0201875,0.038875,-0.063625,0.047375,-0.023819,0.02363575,0.024353001,1741897908.617749
0.03175,0.157,0.079375,0.0187225,0.017746,-0.02268975,0.049875,-0.052125,0.040375,-0.02177425,0.021576,0.0230255,1741897908.632303
0.034875,0.145875,0.07575,0.024292,0.02265925,-0.02658075,0.052875,-0.048125,0.038375,-0.01681525,0.019012501,0.02026375,1741897908.652041
0.032875,0.116875,0.074125,0.024810748,0.02433775,-0.028594999,0.054,-0.04325,0.039,-0.01402275,0.0187835,0.01893625,1741897908.6614988
0.0325,0.103375,0.072875,0.02424625,0.025512751,-0.0305175,0.055625,-0.0395,0.039,-0.00941475,0.0186615,0.0155030005,1741897908.67626
0.034125,0.0935,0.06975,0.02224725,0.026122998,-0.0335235,0.0645,-0.029,0.034625,-0.00712575,0.01608275,0.012176501,1741897908.692876
0.043,0.076125,0.05725,0.02165225,0.02557375,-0.03445425,0.071375,-0.02175,0.030625,-0.00016775,0.005249,0.0024872501,1741897908.705338
0.04875,0.066,0.049125,0.02159125,0.0230255,-0.03430175,0.0815,-0.014,0.022,0.004593,-0.0013275,-0.00263975,1741897908.720088
0.057125,0.04725,0.03575,0.0211945,0.021225,-0.03329475,0.08075,-0.014875,0.02275,0.01490775,-0.013336251,-0.011856,1741897908.735255
0.058875,0.0385,0.032375,0.01835625,0.01652525,-0.0298615,0.073375,-0.018875,0.03075,0.0193635,-0.01766975,-0.01634225,1741897908.74928
0.062125,0.021125,0.032125,0.0157775,0.0134735005,-0.02696225,0.067,-0.0215,0.03725,0.02345275,-0.02085875,-0.02095025,1741897908.763961
0.0625,0.0175,0.03375,0.0126495,0.010238751,-0.023254499,0.056125,-0.03025,0.047125,0.028534,-0.02459725,-0.031540003,1741897908.778552
0.063125,0.016,0.0345,0.0071105,0.0036315,-0.01481625,0.02775,-0.064125,0.063,0.028259251,-0.025314251,-0.03742975,1741897908.793268
0.06625,0.01125,0.032375,0.0050812503,0.0004425,-0.010391249,0.018625,-0.076,0.069,0.02386475,-0.02595525,-0.0482025,1741897908.812206
0.06925,0.006625,0.03025,0.00068675,-0.00538625,-0.001114,0.0075,-0.093125,0.079375,0.02256775,-0.0270385,-0.05113225,1741897908.822578
0.074875,0.002125,0.03,-0.00193775,-0.00801075,0.00384525,0.007375,-0.108,0.08325,0.02705375,-0.02940375,-0.0516205,1741897908.8373
0.074875,0.004625,0.032125,-0.0069885002,-0.01239025,0.013153,0.0035,-0.2075,0.077625,0.036300752,-0.028061,-0.04037475,1741897908.852176
0.066125,0.018875,0.040625,-0.009277251,-0.014068499,0.01719675,0.005875,-0.183375,0.0845,0.05714425,-0.033798248,0.00428775,1741897908.866522
0.05725,0.033625,0.049375,-0.011795,-0.016388,0.023803748,-0.015625,-0.0835,0.085125,0.05068975,-0.03108225,0.00033575002,1741897908.881193
0.039875,0.06275,0.066625,-0.012130749,-0.0170135,0.02598575,-0.030125,-0.132125,0.05425,0.034378,-0.01640325,-0.021225,1741897908.896008
0.03675,0.07225,0.072,-0.0125275,-0.017395,0.02763375,-0.035125,-0.20775,0.009125,0.03158575,-0.01408375,-0.018097,1741897908.913694
0.037625,0.080625,0.076375,-0.01513675,-0.01728825,0.030426001,-0.029125,-0.214125,0.00275,0.0254365,-0.012985251,-0.00354,1741897908.925372
0.04225,0.098375,0.080625,-0.01766975,-0.0168305,0.031311,-0.013875,-0.219375,0.024125,0.018509,-0.01004025,0.0019225,1741897908.940185
0.0435,0.10575,0.08075,-0.022949249,-0.01560975,0.03038025,-0.000875,-0.208625,0.040125,0.00108325,-0.0005035,0.00976575,1741897908.954508
0.042,0.1035,0.082625,-0.024887,-0.014862,0.0289155,0.009875,-0.179,0.056875,-0.00614925,0.0039215,0.012542751,1741897908.9731998
0.03825,0.099375,0.0785,-0.02705375,-0.01475525,0.02734375,0.006,-0.169375,0.057875,-0.012039251,0.0075225,0.015152001,1741897908.9837692
0.02825,0.11725,0.063125,-0.027282748,-0.015213001,0.026886,-0.000625,-0.151,0.055125,-0.020477248,0.012695249,0.020874001,1741897908.998529
0.02575,0.1295,0.057375,-0.02677925,-0.0151215,0.02563475,0.000375,-0.141625,0.05275,-0.022796748,0.014358499,0.0236665,1741897909.013217
0.028,0.149125,0.049875,-0.02316275,-0.01339725,0.0206605,0.006125,-0.129125,0.051,-0.0234375,0.01589975,0.027679501,1741897909.032247
0.028875,0.167125,0.048625,-0.02073675,-0.012557999,0.017135499,0.021,-0.107875,0.049875,-0.0223235,0.0160675,0.02851875,1741897909.0426922
0.029,0.187875,0.05025,-0.014358499,-0.0112,0.0074615004,0.024875,-0.102375,0.048625,-0.01953125,0.015442001,0.028839001,1741897909.057437
0.032,0.19925,0.060375,-0.0095672505,-0.009842,0.002365,0.02675,-0.095875,0.042875,-0.01893625,0.01490775,0.028534,1741897909.0721438
0.035125,0.186,0.067625,0.00105275,-0.00505075,-0.00491325,0.02875,-0.09075,0.036,-0.01965325,0.01368725,0.02749625,1741897909.0918021
0.0365,0.158875,0.0855,0.00466925,-0.00228875,-0.007904,0.035875,-0.081625,0.028875,-0.020401,0.013092,0.02648925,1741897909.101506
0.03425,0.15175,0.0925,0.008712751,0.0032347501,-0.01419075,0.037,-0.0815,0.03175,-0.023803748,0.0138855,0.0241395,1741897909.1162372
0.032125,0.146375,0.089,0.011031999,0.0060882503,-0.01728825,0.03825,-0.078,0.046875,-0.02589425,0.016235251,0.02348325,1741897909.131785
0.031875,0.1425,0.08475,0.0138245,0.008788999,-0.020141501,0.040125,-0.0745,0.05375,-0.02661125,0.028534,0.026413,1741897909.145538
0.030125,0.13925,0.084,0.018707251,0.0133667495,-0.02503975,0.046875,-0.057625,0.043125,-0.02449025,0.033783,0.028137252,1741897909.160162
0.032375,0.125625,0.08375,0.0207215,0.0156555,-0.02737425,0.055625,-0.050375,0.031875,-0.0237275,0.028778,0.01965325,1741897909.174732
0.03775,0.115125,0.08225,0.02424625,0.01997375,-0.03079225,0.069625,-0.057625,0.0315,-0.0272675,0.02130125,0.01374825,1741897909.1936588
0.045,0.0935,0.077375,0.02519225,0.02165225,-0.031723,0.062625,-0.065,0.04625,-0.023773251,0.01605225,0.0106355,1741897909.2036538
0.046125,0.08125,0.07425,0.02674875,0.023697,-0.03164675,0.05975,-0.060625,0.038875,-0.01794425,0.01864625,0.0115815,1741897909.2181902
0.048125,0.0685,0.066375,0.027679501,0.024063,-0.03094475,0.069625,-0.05025,0.03125,-0.0143737495,0.018310498,0.011123749,1741897909.235552
0.05125,0.063875,0.060125,0.02804575,0.02389525,-0.030456498,0.0785,-0.040875,0.028125,-0.01177975,0.00880425,0.0045625,1741897909.2473652
0.057375,0.0555,0.052375,0.024947999,0.0206605,-0.02886975,0.08525,-0.027375,0.028,-0.010009751,0.00334175,0.00029,1741897909.2622452
0.066875,0.039,0.039625,0.02180475,0.01811225,-0.0272675,0.08825,-0.019,0.02625,-0.006836,-0.006836,-0.00953675,1741897909.27684
0.0675,0.0345,0.037375,0.01567075,0.01345825,-0.022918751,0.0855,-0.014625,0.021875,-0.0027465,-0.012252751,-0.01445,1741897909.292516
0.06875,0.023125,0.039875,0.013290499,0.01148975,-0.02038575,0.079625,-0.016875,0.023375,0.01133725,-0.02244575,-0.022918751,1741897909.307012
0.069625,0.016375,0.0405,0.010849,0.0072785,-0.0138702495,0.0565,-0.036375,0.04575,0.0169525,-0.02616875,-0.02702325,1741897909.320874
0.0725,0.006125,0.033,0.009506251,0.004547,-0.010024999,0.043,-0.052625,0.060625,0.022171,-0.031952,-0.034317,1741897909.33559
0.076,0.000875,0.0285,0.0052337497,-0.00175475,-0.000885,0.02275,-0.0815,0.084375,0.023528999,-0.0345765,-0.03807075,1741897909.352128
0.08325,0.002125,0.029625,0.0025025,-0.00466925,0.0043639997,0.015625,-0.08825,0.089875,0.03096,-0.040069498,-0.052612253,1741897909.364783
0.084,0.00675,0.03125,-0.00024425,-0.00717175,0.009292499,0.01625,-0.0945,0.083,0.03707875,-0.04216,-0.05912775,1741897909.3793972
0.0815,0.009625,0.03075,-0.0045165,-0.01165775,0.017807,0.01425,-0.111,0.078,0.05404675,-0.044235248,-0.0546875,1741897909.3939881
0.072625,0.013,0.0355,-0.0062712496,-0.01390075,0.0220185,0.008125,-0.18075,0.08475,0.06782525,-0.045181252,-0.037201,1741897909.412102
0.06375,0.027125,0.0475,-0.009658749,-0.01766975,0.029068,0.00525,-0.117,0.10475,0.08439625,-0.045181252,-0.0068665,1741897909.423271
0.0405,0.06675,0.071,-0.01071175,-0.018920999,0.031036502,-0.0135,-0.090375,0.049625,0.08126825,-0.03714,-0.009201,1741897909.437991
0.033625,0.075375,0.076125,-0.01071175,-0.0205535,0.034118753,-0.0195,-0.111375,0.00825,0.0759735,-0.028946,-0.01260375,1741897909.4526742
0.03125,0.08975,0.081125,-0.0112915,-0.0211945,0.03598025,-0.025875,-0.158125,-0.028375,0.0552215,-0.01994325,-0.019195499,1741897909.471779
0.031375,0.103625,0.089375,-0.01324475,-0.02168275,0.03721625,-0.03,-0.22,-0.060125,0.044051997,-0.018920999,-0.01599125,1741897909.4824011
0.028375,0.121,0.10425,-0.020141501,-0.0214385,0.035843,-0.03,-0.228,-0.0535,0.02401725,-0.015518251,-0.0056915004,1741897909.497188
0.01775,0.147,0.132625,-0.02360525,-0.02064525,0.034027,-0.024375,-0.224375,-0.016125,0.014206001,-0.0115967505,-0.00093075,1741897909.513064
0.021375,0.13775,0.1315,-0.024841249,-0.013702501,0.0283965,-0.013875,-0.21075,-0.000125,-0.003418,-0.002365,0.0072480002,1741897909.52761
0.037875,0.096125,0.08875,-0.02247625,-0.00935375,0.02598575,-0.002,-0.183625,0.01475,-0.009506251,0.0010375,0.010757499,1741897909.5414882
0.040375,0.090875,0.063375,-0.01997375,-0.0072175004,0.0247955,-0.002875,-0.178125,0.016375,-0.019348249,0.00567625,0.017425502,1741897909.5562098
0.026625,0.126125,0.028375,-0.02142325,-0.0091705,0.0235595,-0.005625,-0.16975,0.013125,-0.0250245,0.0077515002,0.02053825,1741897909.572729
0.016125,0.165375,0.0235,-0.02224725,-0.0126495,0.014389,-0.00525,-0.16175,0.0135,-0.037979253,0.012054499,0.0257415,1741897909.585493
0.00725,0.236375,0.0475,-0.01814275,-0.01200875,0.0058287503,-0.00275,-0.142125,0.02425,-0.0449525,0.014663749,0.027282748,1741897909.6001039
0.01475,0.22875,0.06325,-0.01042175,-0.009292499,-0.0033570002,-0.00025,-0.132125,0.031,-0.059433,0.02162175,0.028137252,1741897909.614775
0.0255,0.199375,0.075875,0.00640875,-0.0015565,-0.0147705,0.01625,-0.101,0.037,-0.0652465,0.02516175,0.02746575,1741897909.631995
0.032625,0.148875,0.0985,0.010894749,0.00193775,-0.01719675,0.02875,-0.08475,0.03825,-0.067413256,0.029373249,0.02487175,1741897909.644037
0.0255,0.141375,0.107375,0.0139770005,0.00880425,-0.021408001,0.04025,-0.06875,0.045,-0.06431575,0.0296325,0.02330025,1741897909.658508
0.018375,0.1305,0.1075,0.0158845,0.012557999,-0.0240325,0.03625,-0.073125,0.05625,-0.05726625,0.031372,0.0210725,1741897909.673418
0.023625,0.122,0.10025,0.02076725,0.018432502,-0.028900249,0.030375,-0.077875,0.07325,-0.053588748,0.036422748,0.022338752,1741897909.6876009
0.03825,0.1005,0.084375,0.022033751,0.019927999,-0.03019725,0.03725,-0.07225,0.065625,-0.04875175,0.04281625,0.024841249,1741897909.702214
0.040875,0.09625,0.082875,0.02182,0.020934999,-0.0305175,0.046875,-0.0655,0.05275,-0.03974925,0.042236254,0.0222625,1741897909.716872
0.04125,0.093,0.082375,0.0202485,0.0229645,-0.0309905,0.05975,-0.065125,0.03875,-0.03889475,0.034362752,0.018188499,1741897909.735918
0.04575,0.077125,0.07075,0.0206145,0.02357475,-0.03129575,0.058375,-0.06575,0.04225,-0.033508252,0.02357475,0.01463325,1741897909.746162
0.051375,0.067375,0.061125,0.02082825,0.022293,-0.030151252,0.054375,-0.06225,0.04225,-0.027847249,0.02433775,0.0149535,1741897909.760673
0.061,0.051125,0.04425,0.020019501,0.02091975,-0.0291595,0.05825,-0.056625,0.03875,-0.019699,0.02388,0.014267,1741897909.775212
0.064125,0.043125,0.039,0.01658625,0.01664725,-0.0265655,0.0685,-0.043,0.03375,-0.0168915,0.02139275,0.013092,1741897909.792377
0.069875,0.02975,0.035125,0.014206001,0.0138245,-0.0246735,0.075625,-0.03175,0.029875,-0.012267999,0.014343251,0.00723275,1741897909.804244
0.07025,0.026,0.035125,0.0118407495,0.01065075,-0.022232,0.081375,-0.024625,0.024875,-0.0102845,0.00982675,0.00231925,1741897909.818717
0.069625,0.021625,0.035375,0.00788875,0.00419625,-0.0157775,0.08075,-0.0245,0.0255,-0.0048065,-0.0013275,-0.0068207504,1741897909.8335109
0.070875,0.00175,0.03225,0.00614925,0.001007,-0.0115205,0.076875,-0.021,0.02525,0.00024425,-0.007782,-0.010604749,1741897909.852185
0.074,-0.007375,0.032375,0.00263975,-0.004837,0.000183,0.07375,-0.019875,0.026125,0.01501475,-0.020477248,-0.01829525,1741897909.862758
0.077,-0.011375,0.043625,0.00105275,-0.0065917503,0.00646975,0.05775,-0.037,0.042125,0.02174375,-0.025528,-0.0222625,1741897909.877722
0.0755,-0.01,0.04775,-0.00070200005,-0.008133001,0.01722725,0.04925,-0.0485,0.054125,0.0266875,-0.02961725,-0.0257415,1741897909.892287
0.069625,0.00275,0.05475,-0.0013580001,-0.008651749,0.02212525,0.03475,-0.065125,0.0835,0.0321045,-0.03657525,-0.032547,1741897909.907719
0.064625,0.0185,0.062,-0.0023039998,-0.00924675,0.02680975,0.02575,-0.074375,0.096,0.03408825,-0.0399475,-0.03907775,1741897909.921603
0.058,0.038875,0.070375,-0.005066,-0.0104674995,0.03453075,0.02,-0.083625,0.101875,0.04234325,-0.046463,-0.057662997,1741897909.936366
0.046,0.078875,0.081375,-0.0062865,-0.0110932505,0.037323,0.016875,-0.0915,0.0855,0.04881275,-0.049469,-0.06095875,1741897909.951586
0.041625,0.09625,0.085125,-0.00924675,-0.01245125,0.04031375,0.01325,-0.109875,0.0815,0.065628,-0.049682498,-0.053482,1741897909.965791
0.034,0.127875,0.098375,-0.012313751,-0.013290499,0.0400085,0.01425,-0.185375,0.066375,0.077606246,-0.046569753,-0.034225497,1741897909.980408
0.028875,0.14025,0.114625,-0.022049,-0.015289251,0.0368195,0.012,-0.115375,0.0765,0.08993525,-0.04544075,0.0048979996,1741897909.994924
0.01975,0.1325,0.13425,-0.025466999,-0.01419075,0.03459175,-0.023125,-0.09,0.026875,0.08038325,-0.037323,-0.00119025,1741897910.012222
0.018625,0.120625,0.125875,-0.02708425,-0.00782775,0.02949525,-0.03075,-0.12275,-0.006125,0.0608215,-0.026550248,-0.013778751,1741897910.024561
0.022,0.1195,0.108375,-0.0264435,-0.00494375,0.02645875,-0.022875,-0.186125,-0.051125,0.05198675,-0.02471925,-0.0155030005,1741897910.039401
0.024,0.131125,0.049625,-0.017395,0.00029,0.022873,-0.019375,-0.1975,-0.052125,0.039672747,-0.023193251,-0.009369001,1741897910.054233
0.025875,0.133375,-0.03025,-0.0063477503,0.003952,0.013412501,-0.021875,-0.209125,-0.028875,0.03211975,-0.019714251,-0.0057372497,1741897910.071307
0.019125,0.218375,-0.00125,-0.013778751,-0.0043639997,0.009323,-0.0165,-0.203125,-0.022625,0.01504525,-0.010452249,0.00061025,1741897910.0837162
0.01975,0.24475,0.03025,-0.0115205,-0.009887749,-0.008209251,-0.003125,-0.181875,-0.011125,0.007843,-0.007187,0.0032195,1741897910.098498
0.03625,0.189625,0.065375,-0.0025787498,-0.00665275,-0.01728825,0.000125,-0.1725,-0.00525,-0.0049590003,-0.00251775,0.008255,1741897910.113409
0.043,0.148125,0.0785,0.0097045,0.00074775,-0.0245515,-0.003125,-0.165375,0.000625,-0.01086425,-0.00074775,0.010604749,1741897910.132318
0.036125,0.1135,0.10325,0.011123749,0.0037079998,-0.02528375,-0.007,-0.1635,0.003,-0.020904498,0.0021819999,0.01496875,1741897910.142837
0.0325,0.108375,0.106875,0.011749251,0.00688175,-0.0263215,-0.0145,-0.164125,0.01025,-0.02513125,0.00372325,0.0169525,1741897910.157394
0.03275,0.105125,0.10375,0.014724749,0.013275251,-0.0289155,-0.01525,-0.1625,0.012625,-0.03395075,0.0076142503,0.020813,1741897910.174152
0.040625,0.093375,0.092,0.0168305,0.016113251,-0.029754749,-0.007125,-0.14725,0.01525,-0.03889475,0.0099639995,0.0224305,1741897910.1866271
0.046625,0.082875,0.08525,0.020691,0.019577,-0.029876752,-0.001375,-0.13675,0.019,-0.044143748,0.012634249,0.023681749,1741897910.20143
0.05775,0.06025,0.0725,0.02139275,0.01991275,-0.02931225,0.01125,-0.11375,0.02475,-0.05372625,0.017501751,0.024810748,1741897910.216018
0.0605,0.051625,0.067125,0.020401,0.019333,-0.02687075,0.016125,-0.10425,0.030875,-0.05688475,0.01927175,0.02474975,1741897910.230614
0.061625,0.051375,0.05475,0.019516,0.018402,-0.025268499,0.019,-0.098375,0.039375,-0.05821225,0.023803748,0.0246125,1741897910.245242
0.062375,0.052375,0.049875,0.019134501,0.01664725,-0.02333075,0.022375,-0.094125,0.053375,-0.056900002,0.0274505,0.025314251,1741897910.259754
0.062875,0.05125,0.0465,0.015152001,0.0110932505,-0.019042999,0.026,-0.090625,0.05925,-0.0532075,0.037506,0.02867125,1741897910.274221
0.0635,0.04,0.041,0.01206975,0.00801075,-0.017044,0.033375,-0.077625,0.065125,-0.05081175,0.04104625,0.02876275,1741897910.292407
0.063875,0.03175,0.038125,0.00579825,0.00157175,-0.0114744995,0.038875,-0.071375,0.06,-0.0466155,0.042572,0.02513125,1741897910.3032472
0.068875,0.01525,0.034625,0.00238025,-0.00163275,-0.0075835,0.063625,-0.040375,0.03825,-0.04692075,0.039779752,0.021927001,1741897910.317675
0.071875,0.011375,0.03575,-0.00369275,-0.0074004997,0.0015565,0.070875,-0.049625,0.034375,-0.0519715,0.025848499,0.01177975,1741897910.3326468
0.071375,0.018125,0.042625,-0.0057525,-0.009521499,0.0060882503,0.052375,-0.06525,0.062375,-0.047973752,0.02272025,0.010803251,1741897910.346702
0.06725,0.02475,0.0475,-0.0070037497,-0.011078,0.0101165,0.049,-0.059125,0.057,-0.039810248,0.02563475,0.01222225,1741897910.3612192
0.061625,0.03425,0.054,-0.008072,-0.013031,0.0163575,0.06875,-0.0435,0.0355,-0.02870175,0.026947001,0.01194775,1741897910.3756979
0.05075,0.0605,0.069125,-0.00833125,-0.013564999,0.01849375,0.078625,-0.031875,0.03,-0.02500925,0.021881001,0.009292499,1741897910.392627
0.048375,0.070875,0.07525,-0.00889575,-0.01368725,0.02114875,0.082125,-0.0245,0.02875,-0.01646425,0.00845325,-0.000229,1741897910.404803
0.051125,0.076875,0.0815,-0.00985725,-0.0135345,0.02224725,0.079625,-0.01925,0.02775,-0.011398249,0.00213625,-0.005005,1741897910.419571
0.054375,0.077375,0.081875,-0.0125275,-0.01326,0.024704,0.075125,-0.02225,0.027375,0.00112925,-0.009231499,-0.012405501,1741897910.434201
0.056875,0.07725,0.08,-0.013733,-0.013153,0.0256195,0.0655,-0.029125,0.034625,0.00767525,-0.014572251,-0.0159455,1741897910.451929
0.053125,0.07975,0.083,-0.0159455,-0.01222225,0.02592475,0.059625,-0.03575,0.043625,0.017608749,-0.024887,-0.02386475,1741897910.4635048
0.0425,0.085625,0.084375,-0.016876249,-0.01171875,0.025543248,0.051,-0.044625,0.065,0.02197275,-0.02958675,-0.02775575,1741897910.4781172
0.038125,0.09225,0.08225,-0.017395,-0.011535751,0.02528375,0.04675,-0.043625,0.0745,0.032074,-0.03604125,-0.04011525,1741897910.4927979
0.034875,0.1035,0.078875,-0.01782225,-0.01133725,0.0237885,0.03125,-0.060375,0.086125,0.0381775,-0.038025003,-0.05015575,1741897910.5120718
0.028,0.134625,0.07075,-0.017624,-0.011031999,0.022094749,0.02375,-0.07675,0.089625,0.0502625,-0.04245,-0.0595855,1741897910.522015
0.025875,0.150375,0.066375,-0.0148772495,-0.00953675,0.0168915,-0.0025,-0.11975,0.090875,0.056961,-0.0450135,-0.057876498,1741897910.536675
0.020125,0.167625,0.068625,-0.01228325,-0.0081635,0.0135345,-0.01725,-0.182125,0.086875,0.07510375,-0.0447845,-0.034958,1741897910.552126
0.017875,0.171625,0.07675,-0.0060577504,-0.00372325,0.0055695,-0.0025,-0.1475,0.07675,0.08728025,-0.04736325,-0.00798025,1741897910.566282
0.025875,0.171875,0.086625,-0.00201425,-0.00068675,0.00112925,-0.0015,-0.0665,0.06475,0.08961476,-0.046371497,0.0054932497,1741897910.580788
0.03275,0.16325,0.086375,0.0023039998,0.0023497501,-0.0032655,-0.024125,-0.13025,-0.00375,0.074829005,-0.03022775,-0.0068512503,1741897910.595697
0.037625,0.150125,0.084625,0.008667,0.0064239996,-0.01019275,-0.031125,-0.17275,-0.0235,0.06694025,-0.026352,-0.009613,1741897910.612467
0.043,0.123,0.075375,0.010009751,0.00715625,-0.012436,-0.028625,-0.207,-0.04225,0.04930125,-0.02342225,-0.0062712496,1741897910.6256251
0.043375,0.115375,0.07075,0.009582501,0.0068512503,-0.015213001,-0.02625,-0.21725,-0.036,0.04049675,-0.021179251,-0.00283825,1741897910.640636
0.034875,0.11675,0.075125,0.008651749,0.00671375,-0.01637275,-0.008,-0.207375,-0.024,0.014510999,-0.00947575,0.003769,1741897910.655539
0.029375,0.1185,0.083625,0.0088195,0.00839225,-0.01937875,0.0005,-0.1915,-0.019375,0.00169375,-0.0038605002,0.00668325,1741897910.674708
0.03,0.106125,0.089625,0.010849,0.0104065,-0.02082825,-0.0005,-0.173,-0.004375,-0.015228249,0.00184625,0.0122985,1741897910.685313
0.0365,0.095,0.081,0.013778751,0.012496999,-0.0216675,-0.0025,-0.167875,0.00525,-0.02180475,0.0037995,0.015594499,1741897910.700175
0.04325,0.086625,0.071375,0.017395,0.014267,-0.021408001,-0.002875,-0.1625,0.014625,-0.035659753,0.0093995,0.02165225,1741897910.715625
0.05,0.076375,0.062,0.017028749,0.014007499,-0.021087749,-0.001875,-0.1505,0.029,-0.042861998,0.013198749,0.0237885,1741897910.7313101
0.05125,0.06875,0.060875,0.0136565,0.01245125,-0.020279,0.0,-0.141125,0.034875,-0.05656425,0.021362249,0.02589425,1741897910.744055
0.053625,0.0535,0.06,0.0115205,0.011260999,-0.019042999,0.009625,-0.118125,0.050125,-0.061767504,0.0256805,0.026122998,1741897910.758515
0.054375,0.050375,0.059875,0.00770575,0.008667,-0.01564025,0.014875,-0.10775,0.055,-0.06637575,0.033905,0.026062,1741897910.7730298
0.054625,0.0495,0.05575,0.0064850003,0.0073395,-0.014038,0.020625,-0.097625,0.057875,-0.06643675,0.036911,0.02607725,1741897910.7922728
0.0565,0.045875,0.0525,0.00546275,0.00564575,-0.012252751,0.02175,-0.094875,0.058625,-0.0622405,0.0430145,0.02845775,1741897910.802232
0.059625,0.041125,0.049875,0.0028535,0.0012665,-0.0072785,0.0285,-0.0825,0.056,-0.05789175,0.04568475,0.029892,1741897910.816708
0.066,0.032,0.046125,0.00109875,-0.00096125,-0.00419625,0.039875,-0.06625,0.051,-0.05052175,0.042785753,0.025466999,1741897910.83259
0.06825,0.029125,0.045,-0.003128,-0.0049285004,0.00251775,0.062375,-0.0585,0.04675,-0.0484315,0.035553,0.021209748,1741897910.845705
0.068875,0.03525,0.046875,-0.0054932497,-0.00672925,0.0059967497,0.062125,-0.05875,0.054125,-0.04502875,0.02719125,0.0184785,1741897910.8602371
0.066375,0.044375,0.051625,-0.008590749,-0.009674,0.01228325,0.05375,-0.062375,0.053,-0.03274525,0.0206605,0.01693725,1741897910.874681
0.05725,0.0585,0.065375,-0.009491,-0.01062,0.014862,0.055875,-0.06375,0.042625,-0.027984502,0.021286,0.01640325,1741897910.8919628
0.051875,0.064875,0.07475,-0.010681249,-0.011306751,0.017120251,0.061375,-0.061625,0.03375,-0.024993999,0.019714251,0.013854999,1741897910.903733
0.047,0.071625,0.083375,-0.01351925,-0.01177975,0.020691,0.07175,-0.04625,0.029,-0.023758,0.017028749,0.0119934995,1741897910.918255
0.040625,0.078125,0.0925,-0.014618,-0.011169501,0.0221405,0.07625,-0.036625,0.030375,-0.0162505,0.008865249,0.0072175004,1741897910.9327009
0.039625,0.078375,0.092875,-0.016143749,-0.0084379995,0.0241395,0.084875,-0.023625,0.031,-0.011016751,0.0037537501,0.00411975,1741897910.9521239
0.0405,0.083625,0.0845,-0.0168,-0.0068969997,0.024047751,0.08675,-0.02125,0.0305,-0.00146475,-0.0054780003,-0.0031889998,1741897910.961987
0.041125,0.084625,0.073125,-0.017212,-0.0055237496,0.02301025,0.08175,-0.022125,0.031875,0.0031585,-0.008926501,-0.0065917503,1741897910.976702
0.039,0.09725,0.05875,-0.016861,-0.0061645,0.023056,0.07725,-0.023,0.034125,0.0133667495,-0.0153502505,-0.013137749,1741897910.993598
0.036375,0.104875,0.05675,-0.0162505,-0.0068665,0.022873,0.070875,-0.024,0.03825,0.01823425,-0.018753,-0.01675425,1741897911.005941
0.033,0.11525,0.0545,-0.0148925,-0.007553,0.0210725,0.064375,-0.029375,0.04625,0.0261535,-0.024108998,-0.024475,1741897911.0205429
0.0245,0.151625,0.053375,-0.014557,-0.00782775,0.018982,0.038375,-0.061625,0.069375,0.028839001,-0.025421249,-0.02763375,1741897911.0351958
0.021125,0.168625,0.056625,-0.013549751,-0.0077515002,0.01148975,0.030375,-0.0675,0.075375,0.030426001,-0.02592475,-0.0299225,1741897911.05207
0.023375,0.18225,0.0625,-0.011627249,-0.0068207504,0.0070342496,0.031875,-0.057,0.069375,0.02981575,-0.02619925,-0.042236254,1741897911.0646122
0.03,0.17875,0.062625,-0.0037995,-0.00317375,-0.00096125,0.031875,-0.06275,0.069625,0.029266251,-0.02708425,-0.05116275,1741897911.079262
0.036875,0.158375,0.06675,0.00070200005,-0.00119025,-0.00434875,0.023,-0.079625,0.074875,0.03439325,-0.0309295,-0.056274503,1741897911.093955
0.034875,0.14875,0.072125,0.00672925,0.0017852499,-0.011139,-0.00325,-0.159625,0.08175,0.04290775,-0.032196,-0.05099475,1741897911.112303
0.032375,0.13375,0.075875,0.00801075,0.003006,-0.0141145,-0.007875,-0.19275,0.0745,0.066803,-0.037552,-0.015029999,1741897911.1235101
0.03175,0.130625,0.077,0.00874325,0.0041504996,-0.01637275,-0.006625,-0.092,0.07275,0.0700225,-0.03907775,-0.0031585,1741897911.138228
0.03,0.128625,0.081375,0.010391249,0.007019,-0.01956175,-0.01475,-0.09675,0.04325,0.06396475,-0.0325775,-0.012024,1741897911.154337
0.02925,0.1155,0.08525,0.011856,0.00903325,-0.020904498,-0.028,-0.16275,-0.003125,0.062271,-0.029846251,-0.014663749,1741897911.167797
0.033625,0.10625,0.080125,0.01440425,0.01239025,-0.02224725,-0.025,-0.199875,-0.02,0.050766,-0.022613501,-0.0116425,1741897911.182687
0.043125,0.091125,0.068125,0.01490775,0.013153,-0.02212525,-0.018,-0.219375,-0.0255,0.041153,-0.019744748,-0.0071409997,1741897911.1976142
0.04525,0.0895,0.06325,0.014709501,0.012985251,-0.021789499,-0.013,-0.212375,-0.02025,0.021453751,-0.0138855,0.0008545,1741897911.21731
0.04675,0.084625,0.0605,0.01431275,0.012557999,-0.0219575,-0.001625,-0.203875,-0.003625,0.011764499,-0.0106355,0.0037537501,1741897911.231192
0.049,0.07775,0.057875,0.014038,0.012024,-0.02211,0.002625,-0.1945,0.004375,-0.0086975,-0.00352475,0.0095672505,1741897911.2418299
0.052125,0.069625,0.055875,0.0122985,0.010528499,-0.0215455,0.00325,-0.17375,0.017,-0.0172425,-0.00065625,0.012634249,1741897911.25651
0.055,0.063625,0.058,0.01071175,0.00975025,-0.02076725,0.000875,-0.169125,0.02275,-0.03053275,0.0040587503,0.01890575,1741897911.272465
0.054625,0.063875,0.058875,0.009719751,0.008361749,-0.019104,-0.00125,-0.157125,0.035875,-0.0364075,0.0066985004,0.02168275,1741897911.286027
0.05675,0.06025,0.058125,0.010314999,0.00747675,-0.01799,-0.00025,-0.148625,0.0425,-0.04644775,0.013046251,0.025299,1741897911.3008199
0.059625,0.057125,0.056375,0.01104725,0.006302,-0.01661675,0.00375,-0.131875,0.0525,-0.050003,0.01631175,0.026275748,1741897911.315509
0.06675,0.04225,0.050125,0.0113525,0.0029145,-0.013290499,0.007625,-0.12225,0.0555,-0.05258175,0.0216675,0.027862499,1741897911.332433
0.069625,0.03375,0.047875,0.010253999,0.00065625,-0.010681249,0.016625,-0.1055,0.056625,-0.05169675,0.023346001,0.02861025,1741897911.344984
0.07175,0.02475,0.046,0.00428775,-0.004242,-0.0034942501,0.021375,-0.10025,0.054375,-0.047577,0.02519225,0.0295105,1741897911.359518
0.07275,0.019625,0.045375,0.00036625,-0.0065002497,0.00115975,0.02975,-0.08575,0.0555,-0.044815,0.0263825,0.02993775,1741897911.374203
0.071375,0.027,0.048125,-0.0058899997,-0.009796251,0.009796251,0.033875,-0.074,0.058625,-0.04135125,0.0280305,0.0306245,1741897911.3924842
0.067625,0.0365,0.05175,-0.0077210004,-0.010681249,0.0129395,0.0375,-0.065125,0.060875,-0.031372,0.027069,0.03082275,1741897911.4033122
0.067375,0.037625,0.0505,-0.0104674995,-0.01228325,0.01849375,0.044375,-0.06525,0.054125,-0.028,0.02230825,0.0281525,1741897911.417953
0.06325,0.046,0.0525,-0.012191749,-0.013290499,0.021286,0.048125,-0.0655,0.050375,-0.02705375,0.012146,0.021927001,1741897911.432638
0.057625,0.05575,0.05675,-0.014145001,-0.014267,0.023834249,0.05175,-0.058625,0.049625,-0.026855499,0.0103455,0.01968375,1741897911.451993
0.0495,0.071,0.065375,-0.01705925,-0.01554875,0.0274505,0.0535,-0.055125,0.047,-0.02401725,0.011123749,0.0162505,1741897911.461835
0.026,0.11425,0.093,-0.01728825,-0.01542675,0.027954001,0.06125,-0.044875,0.041625,-0.0220185,0.01054375,0.014495751,1741897911.476523
0.0165,0.130625,0.1045,-0.01548775,-0.0137635,0.02658075,0.064125,-0.037125,0.042125,-0.01593025,0.0064545004,0.010101249,1741897911.492492
0.011625,0.1435,0.1195,-0.01402275,-0.01251225,0.025268499,0.069625,-0.023125,0.04475,-0.012115501,0.004242,0.0070952503,1741897911.505646
0.016,0.132875,0.119875,-0.013412501,-0.007599,0.0208435,0.07425,-0.018,0.04425,-0.00469975,-0.000473,-0.000412,1741897911.5203269
0.031375,0.0905,0.102,-0.01452625,-0.00434875,0.01899725,0.077625,-0.014,0.045125,-0.0012970001,-0.00276175,-0.0045625,1741897911.53511
0.035875,0.08375,0.086875,-0.015625,-0.001709,0.01849375,0.075875,-0.016,0.045375,0.0056304997,-0.00671375,-0.012542751,1741897911.552171
0.036,0.087875,0.067875,-0.015915,-0.00039675,0.01838675,0.070875,-0.02075,0.043625,0.0097045,-0.00912475,-0.01622,1741897911.564696
0.03025,0.12625,0.027375,-0.0149995005,-0.00190725,0.017501751,0.070125,-0.018875,0.0415,0.01841725,-0.015167249,-0.02401725,1741897911.579445
0.0295,0.14925,0.01575,-0.012054499,-0.0062865,0.01222225,0.06525,-0.0165,0.042625,0.022583,-0.017868,-0.028564502,1741897911.594042
0.02275,0.19375,0.03475,-0.010528499,-0.00747675,0.0074004997,0.05575,-0.024125,0.04975,0.0263825,-0.019744748,-0.033569247,1741897911.612843
0.02275,0.196625,0.053625,-0.00314325,-0.0049590003,-0.00543225,0.021625,-0.067625,0.075875,0.0292815,-0.019806,-0.044616748,1741897911.6232991
0.033875,0.160625,0.0725,0.00231925,-0.00225825,-0.0101775,0.006875,-0.090375,0.086375,0.027069,-0.01905825,-0.050048754,1741897911.63807
0.037375,0.1395,0.0745,0.00697325,0.000229,-0.012756251,-0.000375,-0.103875,0.090625,0.019348249,-0.019577,-0.056335498,1741897911.65478
0.03075,0.116,0.084,0.012146,0.0040587503,-0.0142365,-0.004625,-0.142875,0.09075,0.01950075,-0.020279,-0.05679325,1741897911.667637
0.025875,0.112625,0.0885,0.01301575,0.005844,-0.0148925,0.001125,-0.181875,0.072375,0.0378265,-0.020049999,-0.03031925,1741897911.682325
0.023875,0.1125,0.090625,0.014038,0.009643501,-0.0168305,0.018125,-0.110375,0.06825,0.046371497,-0.024765,-0.010666001,1741897911.697006
0.02925,0.116375,0.088625,0.014800999,0.011306751,-0.0178985,-0.000125,-0.082,0.067,0.03863525,-0.021560749,-0.018859752,1741897911.711981
0.034875,0.115,0.083125,0.016159,0.01358025,-0.020034749,-0.043375,-0.179875,0.036125,0.03445425,-0.0177155,-0.025085501,1741897911.7266161
0.043625,0.102125,0.074625,0.01634225,0.0142365,-0.020523,-0.047375,-0.213,0.023875,0.0281525,-0.013564999,-0.01496875,1741897911.74134
0.04375,0.09475,0.074875,0.01640325,0.014846751,-0.020523,-0.03775,-0.230375,0.01525,0.02227775,-0.01165775,-0.0072632497,1741897911.7563431
0.04325,0.082625,0.07425,0.01756275,0.01631175,-0.0207215,-0.028375,-0.228625,0.02,0.00672925,-0.00561525,0.0047607496,1741897911.7737138
0.044875,0.07825,0.07175,0.01823425,0.01690675,-0.02105725,-0.005,-0.202,0.0385,-0.000885,-0.00198375,0.00903325,1741897911.78572
0.04725,0.077125,0.068,0.019516,0.017517,-0.02200325,0.003375,-0.183375,0.046,-0.0117035,0.0038605002,0.015686,1741897911.800357
0.05525,0.071125,0.061125,0.01940925,0.017273001,-0.02227775,0.005625,-0.158625,0.055,-0.015228249,0.0056609996,0.018890498,1741897911.8149729
0.058875,0.067875,0.0595,0.017624,0.01593025,-0.0213165,0.003125,-0.149,0.058875,-0.020049999,0.008651749,0.0252075,1741897911.831815
0.061,0.0635,0.05825,0.0163575,0.014846751,-0.0206145,0.001125,-0.13325,0.066,-0.02224725,0.010513251,0.027679501,1741897911.844219
0.06175,0.057125,0.057125,0.01475525,0.013488751,-0.0199585,0.002125,-0.127375,0.069875,-0.02870175,0.0157775,0.030181998,1741897911.8588312
0.065625,0.047375,0.05225,0.010879501,0.009292499,-0.01661675,0.012,-0.10825,0.068875,-0.032776,0.018875,0.03044125,1741897911.873555
0.069,0.042375,0.048875,0.009079001,0.00668325,-0.013992251,0.018875,-0.097,0.064875,-0.036620997,0.021942249,0.0300445,1741897911.888073
0.072875,0.035125,0.044875,0.00437925,0.0018005001,-0.0080567505,0.02475,-0.086875,0.06075,-0.04034425,0.02722175,0.028305,1741897911.902529
0.07975,0.014625,0.036125,0.00105275,-0.00054925,-0.0043639997,0.033125,-0.0735,0.0535,-0.03942875,0.02886975,0.0279235,1741897911.9170518
0.08175,0.008625,0.033625,-0.00637825,-0.00531,0.0049285004,0.037625,-0.067,0.048125,-0.033249002,0.026977502,0.027007999,1741897911.93265
0.079625,0.01925,0.040875,-0.009506251,-0.0075225,0.009796251,0.0455,-0.056375,0.043875,-0.029571502,0.022796748,0.02519225,1741897911.9514182
0.0745,0.031875,0.049125,-0.013641249,-0.010742251,0.017120251,0.0475,-0.053125,0.04625,-0.0237885,0.01454175,0.02015675,1741897911.960973
0.057375,0.067375,0.06975,-0.014343251,-0.0116425,0.01924125,0.049625,-0.04775,0.051375,-0.02124025,0.013122501,0.01791375,1741897911.975604
0.04875,0.0805,0.0785,-0.01380925,-0.012115501,0.02041625,0.052,-0.04625,0.04925,-0.01690675,0.0122375,0.013793999,1741897911.992697
0.043625,0.0855,0.08325,-0.011245751,-0.0123442495,0.021927001,0.057375,-0.039875,0.04075,-0.0151215,0.01121525,0.011535751,1741897912.004663
0.045375,0.084125,0.083875,-0.01148975,-0.01248175,0.0229645,0.061,-0.03225,0.03675,-0.010681249,0.0077210004,0.00561525,1741897912.019382
0.049375,0.082375,0.0835,-0.01504525,-0.012542751,0.024078252,0.072,-0.013875,0.03125,-0.0074920002,0.0050355,0.0016632499,1741897912.033911
0.049125,0.0895,0.095,-0.01620475,-0.012085,0.0239105,0.075625,-0.009,0.03175,-0.00013725001,-0.001419,-0.00738525,1741897912.051764
0.044,0.099,0.10375,-0.0166015,-0.010299751,0.02171325,0.0715,-0.01325,0.034125,0.0033570002,-0.004837,-0.012115501,1741897912.063311
0.041125,0.092875,0.0965,-0.01560975,-0.0073395,0.019927999,0.067,-0.017625,0.035,0.00665275,-0.0079955,-0.01667775,1741897912.0781991
0.044875,0.085,0.07875,-0.01390075,-0.00378425,0.0190735,0.059625,-0.022875,0.032,0.013061499,-0.013321,-0.025299,1741897912.09281
0.04775,0.083125,0.061,-0.0109709995,-0.00143425,0.020324752,0.054625,-0.0275,0.03675,0.01690675,-0.0164795,-0.02943425,1741897912.1086981
0.0415,0.11125,0.03825,-0.010818499,-0.0029755002,0.020446751,0.043375,-0.041,0.05125,0.02247625,-0.0228425,-0.0377655,1741897912.122158
0.03375,0.138375,0.0345,-0.0116425,-0.0077972496,0.01589975,0.01075,-0.080375,0.087625,0.02211,-0.025512751,-0.04287725,1741897912.136727
0.021875,0.18775,0.041,-0.0101775,-0.009155249,0.011245751,0.002125,-0.095875,0.096375,0.0194855,-0.029327499,-0.050476003,1741897912.154881
0.021875,0.19625,0.049875,-0.0045165,-0.008346501,-0.000763,-0.000625,-0.11825,0.09175,0.0205535,-0.029892,-0.052139252,1741897912.1662369
0.036875,0.16975,0.054,-6.1000002e-05,-0.0063477503,-0.006256,0.000375,-0.15625,0.08075,0.034438998,-0.0276185,-0.03862,1741897912.181018
0.04275,0.14625,0.06225,0.00564575,-0.00279225,-0.012756251,0.014875,-0.134625,0.078,0.04417425,-0.030151252,-0.018814,1741897912.195631
0.041125,0.110625,0.0925,0.006775,-0.00067150005,-0.01463325,0.0005,-0.088,0.08375,0.03842175,-0.0249635,-0.018982,1741897912.2123032
0.04025,0.100625,0.098375,0.0081025,0.0020752498,-0.0162505,-0.04675,-0.162125,0.040375,0.0328675,-0.0190735,-0.027176,1741897912.225065
0.04175,0.095625,0.09575,0.0128175,0.0073547503,-0.017685,-0.054125,-0.19375,0.022125,0.031570498,-0.01763925,-0.017883249,1741897912.239757
0.044,0.097125,0.089,0.01513675,0.009155249,-0.017746,-0.0465,-0.22525,0.022375,0.02893075,-0.016037,-0.009948749,1741897912.254508
0.0415,0.0995,0.091625,0.0177155,0.0119934995,-0.01829525,-0.037375,-0.239875,0.033875,0.0136565,-0.00764475,0.00228875,1741897912.2720199
0.03975,0.1015,0.09325,0.019042999,0.013564999,-0.01911925,-0.01275,-0.225,0.053625,0.0030975002,-0.00239575,0.006836,1741897912.28395
0.04325,0.099875,0.087375,0.02124025,0.016983,-0.020446751,-0.002,-0.20025,0.059375,-0.01301575,0.0062712496,0.013321,1741897912.2986398
0.046375,0.09975,0.077,0.021576,0.017455999,-0.02023325,0.003,-0.16525,0.063875,-0.01690675,0.00889575,0.0164795,1741897912.313308
0.045375,0.096625,0.0755,0.021927001,0.01734925,-0.020218,-0.00125,-0.156125,0.064,-0.01921075,0.011123749,0.0238495,1741897912.332125
0.0475,0.08675,0.073,0.022949249,0.017624,-0.02265925,-0.00975,-0.1455,0.071,-0.019287001,0.01187125,0.027481,1741897912.342656
0.058,0.061125,0.064125,0.022216748,0.0172425,-0.023650998,-0.00675,-0.13875,0.073125,-0.019714251,0.01322925,0.0303955,1741897912.357389
0.062875,0.05125,0.059125,0.018692,0.01440425,-0.022613501,0.008,-0.1255,0.069875,-0.023285,0.017624,0.032943748,1741897912.372162
0.068375,0.04325,0.053875,0.017028749,0.01289375,-0.0208435,0.011875,-0.12,0.066,-0.02633675,0.01997375,0.033157248,1741897912.391587
0.069,0.044875,0.05225,0.009811499,0.008926501,-0.017273001,0.014125,-0.11175,0.06025,-0.031952,0.023773251,0.033081003,1741897912.401228
0.070625,0.041,0.0505,0.00737,0.00640875,-0.01525875,0.016,-0.091875,0.05425,-0.0329895,0.0245515,0.03312675,1741897912.415942
0.07275,0.033125,0.049625,0.00561525,0.0038299998,-0.012695249,0.014625,-0.085375,0.056,-0.0310975,0.02534475,0.033798248,1741897912.432385
0.075875,0.024125,0.047875,0.00109875,-0.001526,-0.0055085,0.022875,-0.06725,0.05125,-0.028594999,0.025833251,0.03404225,1741897912.445067
0.079875,0.016,0.046875,-0.0021972498,-0.0041504996,-0.00102225,0.032,-0.058,0.04525,-0.02182,0.0241395,0.0325775,1741897912.459543
0.08,0.0185,0.04875,-0.0075072497,-0.008224499,0.0079345,0.046875,-0.045125,0.0375,-0.01826475,0.0213775,0.03082275,1741897912.4741828
0.077,0.033125,0.059,-0.008316,-0.009506251,0.011764499,0.052375,-0.0405,0.036375,-0.012375,0.012847999,0.024993999,1741897912.492136
0.073375,0.04325,0.065625,-0.00833125,-0.010757499,0.017395,0.057375,-0.035,0.036625,-0.010101249,0.008545,0.021560749,1741897912.50316
0.062875,0.0645,0.08225,-0.00842275,-0.01098625,0.019333,0.056875,-0.032125,0.03725,-0.00579825,0.0036010002,0.0153655,1741897912.51766
0.057,0.07275,0.09,-0.009002751,-0.0110625,0.020904498,0.060625,-0.023625,0.034125,-0.00364675,0.0022735,0.012176501,1741897912.5322812
0.05225,0.079625,0.096,-0.01310725,-0.011031999,0.02323925,0.065375,-0.0175,0.03125,-0.0012055,0.00048825,0.0085755,1741897912.551717
0.05025,0.083875,0.097875,-0.015686,-0.0110625,0.02345275,0.07625,-0.004,0.027375,0.00511175,-0.00543225,-0.00024425,1741897912.561505
0.05325,0.073625,0.095875,-0.016983,-0.01121525,0.02326975,0.077625,-0.00425,0.02875,0.008255,-0.0091095,-0.00570675,1741897912.576166
0.058,0.05675,0.088375,-0.017120251,-0.009491,0.02430725,0.075875,-0.0085,0.031125,0.01361075,-0.01525875,-0.01643375,1741897912.592642
0.0565,0.061,0.08375,-0.02070625,-0.00596625,0.02534475,0.06775,-0.014875,0.034125,0.0154725,-0.017334,-0.02139275,1741897912.605532
0.050375,0.066,0.068875,-0.021347,-0.00517275,0.02474975,0.058125,-0.02225,0.04025,0.01681525,-0.0196075,-0.03082275,1741897912.620382
0.046125,0.074125,0.060125,-0.0204925,-0.0052947504,0.0246125,0.02975,-0.051375,0.0615,0.016235251,-0.01976025,-0.035019003,1741897912.6350741
0.04225,0.08675,0.050625,-0.01876825,-0.0074920002,0.02442925,0.018625,-0.06825,0.069875,0.0133667495,-0.018753,-0.044006247,1741897912.649687
0.035375,0.12275,0.0415,-0.019226,-0.008727999,0.0234375,0.003625,-0.1085,0.085125,0.01248175,-0.0178985,-0.04714975,1741897912.6644201
0.030875,0.143,0.041375,-0.020752002,-0.010498,0.01852425,0.000375,-0.14375,0.086625,0.016739,-0.018280001,-0.04154975,1741897912.6790211
0.0245,0.168625,0.048625,-0.02029425,-0.010666001,0.014557,0.019875,-0.147375,0.08875,0.021988,-0.021286,-0.030334499,1741897912.69373
0.02525,0.168125,0.05475,-0.01620475,-0.00889575,0.0066985004,0.02675,-0.106875,0.092,0.026672252,-0.01927175,-0.02519225,1741897912.7123048
0.030625,0.16075,0.06375,-0.013137749,-0.0073395,0.00343325,0.00675,-0.1295,0.054625,0.02731325,-0.0148925,-0.0301665,1741897912.723037
0.033125,0.15825,0.065875,-0.00567625,-0.00437925,-0.00320425,-0.0145,-0.162875,0.045875,0.030181998,-0.015304499,-0.023925751,1741897912.737715
0.0365,0.14325,0.06475,-0.00181575,-0.0032655,-0.0065612504,-0.039125,-0.20075,0.055,0.0298005,-0.01510625,-0.016388,1741897912.752432
0.037625,0.13525,0.063,0.00146475,-0.0025025,-0.009491,-0.036625,-0.22075,0.06325,0.01734925,-0.00723275,-0.0038299998,1741897912.77182
0.0375,0.131625,0.06325,0.00514225,-0.0012055,-0.0141145,-0.01425,-0.233,0.067375,0.0061645,-0.0013885,0.00148,1741897912.7821498
0.03475,0.128625,0.073,0.0061035,-0.00027475,-0.01608275,-0.000875,-0.213125,0.064,-0.004837,0.00419625,0.00585925,1741897912.796789
0.033875,0.125125,0.077125,0.008545,0.00276175,-0.01965325,0.01475,-0.166875,0.062375,-0.017929,0.01193225,0.0123442495,1741897912.812842
0.036875,0.11475,0.076,0.010147001,0.00453175,-0.020934999,0.013375,-0.152875,0.068375,-0.019714251,0.01380925,0.0155030005,1741897912.825706
0.040125,0.108875,0.073125,0.013427749,0.0077667497,-0.02227775,0.008375,-0.14475,0.075,-0.01864625,0.01617425,0.02244575,1741897912.840289
0.0445,0.09675,0.07325,0.01496875,0.0090485,-0.022583,0.005125,-0.13875,0.078625,-0.01800525,0.01763925,0.025665252,1741897912.854743
0.0435,0.0945,0.077375,0.0166015,0.010253999,-0.022812,0.01075,-0.134125,0.075125,-0.018509,0.02165225,0.03025825,1741897912.872489
0.043625,0.0905,0.079625,0.02085875,0.013046251,-0.023773251,0.026125,-0.11475,0.064375,-0.01937875,0.02342225,0.031265248,1741897912.8838232
0.0475,0.082875,0.077875,0.0229035,0.01412975,-0.024002,0.029875,-0.103,0.06075,-0.020477248,0.025055,0.0313415,1741897912.898462
0.04925,0.083,0.077125,0.02371225,0.0156555,-0.024261499,0.02975,-0.07925,0.056375,-0.01988225,0.02497875,0.03114325,1741897912.912951
0.05275,0.07875,0.074,0.023101749,0.016327,-0.024643,0.03025,-0.06875,0.053875,-0.0162505,0.023178,0.030456498,1741897912.9315379
0.05475,0.077125,0.074,0.021087749,0.015533499,-0.02421575,0.034625,-0.051375,0.048125,-0.013641249,0.021560749,0.029739501,1741897912.941975
0.062375,0.07125,0.066,0.0199585,0.014206001,-0.024047751,0.03975,-0.042375,0.045625,-0.009643501,0.01675425,0.02516175,1741897912.956626
0.067,0.063875,0.05975,0.018692,0.012496999,-0.024047751,0.0495,-0.033875,0.042125,-0.00846875,0.0136565,0.02171325,1741897912.972374
0.071125,0.05525,0.055125,0.015594499,0.009094249,-0.0229035,0.052875,-0.031875,0.039,-0.0072937496,0.010894749,0.01838675,1741897912.985952
0.077625,0.039375,0.051625,0.013733,0.0075072497,-0.02142325,0.054875,-0.029875,0.03575,-0.0033722501,0.0061950004,0.012039251,1741897913.000538
0.078875,0.03225,0.05175,0.00968925,0.0033570002,-0.01651,0.055375,-0.024125,0.035,-0.00071725,0.00402825,0.0086975,1741897913.0151281
0.07725,0.023375,0.052625,0.00593575,0.0009155,-0.0128175,0.057375,-0.01825,0.034125,0.0037995,-0.000183,0.00074775,1741897913.031894
0.07725,0.02475,0.05525,-0.00216675,-0.0031889998,-0.0049742498,0.065,-0.007125,0.02925,0.0055085,-0.00254825,-0.004242,1741897913.0448399
0.08225,0.0265,0.0575,-0.0046539996,-0.0045165,-0.0015565,0.066,-0.009,0.025625,0.009369001,-0.0079345,-0.015228249,1741897913.0595698
0.084125,0.02475,0.057125,-0.0065765,-0.00555425,0.00148,0.06,-0.017625,0.025125,0.011749251,-0.01062,-0.02038575,1741897913.0744011
0.08475,0.023,0.057,-0.009872501,-0.0070037497,0.0077972496,0.054375,-0.0195,0.030125,0.01567075,-0.014068499,-0.030487,1741897913.093579
0.08275,0.027625,0.0625,-0.0113525,-0.0075072497,0.011535751,0.03525,-0.039875,0.048,0.016570998,-0.014923001,-0.0353545,1741897913.103883
0.08025,0.0345,0.066625,-0.0141145,-0.008651749,0.01876825,0.024125,-0.062,0.0545,0.01675425,-0.01643375,-0.04216,1741897913.11843
0.070875,0.05,0.071,-0.015335,-0.009445249,0.02165225,0.0095,-0.12725,0.054875,0.01640325,-0.01779175,-0.04293825,1741897913.1356
0.06775,0.050625,0.070625,-0.0150605,-0.009887749,0.02424625,0.011375,-0.15175,0.05475,0.0182495,-0.021179251,-0.035431,1741897913.147885
0.064875,0.043875,0.071125,-0.014648501,-0.010681249,0.02534475,0.022625,-0.133875,0.063875,0.02009575,-0.02023325,-0.032959,1741897913.162574
0.061125,0.0445,0.075375,-0.015686,-0.013931249,0.02893075,0.023,-0.134875,0.063,0.0234375,-0.01445,-0.03480525,1741897913.177381
0.052,0.047125,0.07825,-0.01637275,-0.014709501,0.031158501,0.0065,-0.167,0.053,0.0247345,-0.012924249,-0.03335575,1741897913.192349
0.04925,0.059,0.074125,-0.01731875,-0.014358499,0.033370998,-0.008625,-0.186625,0.05175,0.0241395,-0.0115815,-0.02316275,1741897913.207513
0.048125,0.07375,0.069,-0.01940925,-0.011688249,0.03312675,-0.02025,-0.21325,0.056125,0.021881001,-0.010498,-0.016327,1741897913.221576
0.042125,0.089125,0.05775,-0.019622749,-0.01086425,0.03179925,-0.017125,-0.22675,0.063125,0.0118407495,-0.00567625,-0.00283825,1741897913.236354
0.03575,0.1015,0.05725,-0.022171,-0.012176501,0.030777,0.00125,-0.226,0.075625,0.0049285004,-0.0016632499,0.00317375,1741897913.252505
0.02675,0.121125,0.05725,-0.02272025,-0.01289375,0.030029248,0.0125,-0.20575,0.078625,-0.00090025004,0.0025025,0.00817875,1741897913.265558
0.023,0.135375,0.05925,-0.02619925,-0.01380925,0.026413,0.023125,-0.16375,0.078375,-0.0060272496,0.008346501,0.0153502505,1741897913.280097
0.014375,0.162625,0.062375,-0.028167749,-0.013290499,0.022934001,0.0205,-0.1555,0.075125,-0.00646975,0.0097045,0.01835625,1741897913.294664
0.010375,0.176625,0.060625,-0.02845775,-0.01216125,0.019027751,0.01525,-0.1505,0.071125,-0.0068512503,0.01077275,0.02497875,1741897913.3121011
0.009625,0.188875,0.058125,-0.021331752,-0.008133001,0.01042175,0.008875,-0.140125,0.063875,-0.007843,0.011627249,0.027832001,1741897913.324061
0.019125,0.197375,0.05325,-0.014038,-0.00541675,0.0056,0.01125,-0.133375,0.05975,-0.01257325,0.0149535,0.030838,1741897913.338571
0.025,0.193,0.051625,0.0030365,-0.00086975005,-0.0048217503,0.01725,-0.12275,0.0515,-0.01622,0.01705925,0.0310975,1741897913.353133
0.031875,0.1665,0.053,0.00997925,0.000763,-0.010147001,0.018375,-0.1165,0.04625,-0.023834249,0.02091975,0.0310975,1741897913.371588
0.032875,0.1505,0.057375,0.01776125,0.00355525,-0.018509,0.023625,-0.094125,0.037,-0.026245002,0.02189625,0.03096,1741897913.3821929
0.03075,0.129,0.069,0.019622749,0.004837,-0.020996,0.027625,-0.0815,0.034625,-0.025543248,0.02200325,0.0305175,1741897913.396682
0.029375,0.120625,0.074875,0.02230825,0.0073395,-0.023468,0.033,-0.064875,0.031625,-0.023040751,0.022064252,0.030243,1741897913.411307
0.02925,0.114,0.082875,0.02323925,0.00883475,-0.0241395,0.036875,-0.061125,0.025125,-0.01782225,0.02012625,0.028534,1741897913.425827
0.0315,0.1135,0.08325,0.023925751,0.0103455,-0.0248565,0.052125,-0.050625,0.017,-0.01620475,0.01637275,0.026092501,1741897913.440374
0.03525,0.1115,0.08075,0.0252075,0.01301575,-0.026413,0.056875,-0.044125,0.02125,-0.01463325,0.01216125,0.02301025,1741897913.454999
0.044625,0.09725,0.072625,0.025833251,0.014038,-0.026886,0.057625,-0.03925,0.025125,-0.009811499,0.0078735,0.01744075,1741897913.4721951
0.048625,0.087,0.071,0.025772,0.015152001,-0.0270385,0.058125,-0.031125,0.02375,-0.0075377496,0.006775,0.01475525,1741897913.484158
0.051375,0.067,0.074375,0.024932751,0.0153807495,-0.026886,0.06325,-0.023625,0.019375,-0.003662,0.0029755002,0.0074004997,1741897913.498687
0.053375,0.06225,0.071125,0.02412425,0.0149995005,-0.0256805,0.077,-0.008375,0.01225,-0.00077825,-0.000229,0.0021972498,1741897913.513258
0.05875,0.0615,0.06425,0.0238495,0.01431275,-0.024810748,0.0795,-0.006625,0.01225,0.0077972496,-0.009079001,-0.009582501,1741897913.53163
0.061,0.05725,0.06225,0.02313225,0.013549751,-0.02421575,0.076125,-0.008625,0.01525,0.01216125,-0.013733,-0.0153807495,1741897913.542569
0.062375,0.051375,0.0625,0.01838675,0.01148975,-0.022643998,0.07225,-0.009,0.017,0.0186615,-0.02079775,-0.0272065,1741897913.557311
0.064,0.042125,0.06475,0.0144805005,0.009872501,-0.02098075,0.06275,-0.00425,0.02475,0.02091975,-0.023285,-0.033844,1741897913.573594
0.065375,0.037625,0.063125,0.0063477503,0.0057677496,-0.016632,0.050875,-0.012125,0.032625,0.022812,-0.02705375,-0.04786675,1741897913.5865579
0.071125,0.029625,0.0585,0.0033722501,0.00369275,-0.0139465,0.010875,-0.062375,0.056375,0.021225,-0.02851875,-0.053756747,1741897913.6013498
0.073125,0.027625,0.056875,0.0016175,0.00187675,-0.011031999,-0.00675,-0.091,0.067125,0.0148925,-0.0316315,-0.0607605,1741897913.616318
0.0745,0.022625,0.05425,0.000946,-0.0009155,-0.0050202496,-0.0165,-0.137,0.077125,0.01469425,-0.033554003,-0.0631255,1741897913.634794
0.078875,0.005375,0.04825,0.00090025004,-0.0020905002,-0.0013885,-0.018375,-0.19575,0.072625,0.0315095,-0.033157248,-0.045730498,1741897913.6459699
0.081625,0.0025,0.04625,-0.0007935,-0.0048065,0.0075835,-0.00525,-0.184375,0.085375,0.045868002,-0.0361175,-0.019455,1741897913.660671
0.083125,0.017625,0.04725,-0.002365,-0.0062865,0.012024,-0.005875,-0.112125,0.084375,0.0452575,-0.029998751,-0.01690675,1741897913.6754181
0.08025,0.02675,0.049125,-0.0057525,-0.00903325,0.0190735,-0.041125,-0.18,0.01475,0.041992247,-0.02421575,-0.027740499,1741897913.692276
0.067,0.04075,0.062625,-0.00817875,-0.01033025,0.022094749,-0.05175,-0.221875,0.004625,0.047119252,-0.025787251,-0.01705925,1741897913.705228
0.056625,0.0525,0.07525,-0.0149995005,-0.012146,0.02705375,-0.048,-0.289625,0.01925,0.04312125,-0.02456675,-0.0057372497,1741897913.719893
0.044125,0.07,0.089625,-0.0175935,-0.0127105,0.027954001,-0.03525,-0.30075,0.0285,0.02993775,-0.01896675,0.0041044997,1741897913.734463
0.044125,0.06375,0.092,-0.018859752,-0.013717749,0.0283965,-0.01825,-0.2765,0.035375,-0.00708,-0.00198375,0.01567075,1741897913.753004
0.045,0.0565,0.0945,-0.02015675,-0.01475525,0.032333247,0.00625,-0.19875,0.048125,-0.020019501,0.0047302498,0.018982,1741897913.76386
0.0395,0.06425,0.09725,-0.0222625,-0.01367175,0.0346375,0.00875,-0.17175,0.052875,-0.0298005,0.011901749,0.0247955,1741897913.778495
0.033375,0.0765,0.0935,-0.028366,-0.0103455,0.03382875,-0.001,-0.145375,0.054625,-0.030029248,0.013153,0.02775575,1741897913.793261
0.029375,0.0775,0.06675,-0.02958675,-0.00868225,0.03224175,-0.006,-0.13725,0.054375,-0.030029248,0.014862,0.0329285,1741897913.811934
0.02925,0.082125,0.05175,-0.030426001,-0.008712751,0.0321655,-0.007125,-0.1265,0.055375,-0.0316315,0.01649475,0.034378,1741897913.822668
0.027,0.119625,0.033125,-0.0319825,-0.010498,0.031601,-0.0045,-0.122375,0.054375,-0.03756725,0.021408001,0.03538525,1741897913.837311
0.0245,0.145875,0.031375,-0.03395075,-0.01251225,0.02949525,0.007,-0.105125,0.045875,-0.040619,0.02421575,0.03506475,1741897913.851766
0.02225,0.18575,0.03925,-0.031570498,-0.014099,0.021469,0.012625,-0.09525,0.041875,-0.04388425,0.028885,0.0332795,1741897913.866385
0.02275,0.188875,0.046375,-0.026672252,-0.013214,0.01681525,0.01525,-0.083375,0.0425,-0.043472253,0.03105175,0.03273,1741897913.880898
0.02175,0.184625,0.053125,-0.01322925,-0.0094604995,0.008788999,0.017,-0.076125,0.041875,-0.0390015,0.035293497,0.03329475,1741897913.895364
0.019125,0.1725,0.06325,-0.0066374997,-0.0072632497,0.0051880004,0.034375,-0.051375,0.030125,-0.03459175,0.03538525,0.03364575,1741897913.912051
0.0195,0.16925,0.065375,0.003006,-0.003418,-0.0017395001,0.044125,-0.04225,0.024125,-0.029541,0.032409754,0.031540003,1741897913.9244852
0.02425,0.162375,0.068375,0.0062407497,-0.0017395001,-0.0052337497,0.053625,-0.040125,0.020875,-0.02180475,0.020934999,0.021636998,1741897913.9389892
0.025625,0.15725,0.07,0.01098625,0.0016632499,-0.0117035,0.0545,-0.038875,0.021375,-0.01893625,0.016113251,0.0179595,1741897913.953556
0.025875,0.141625,0.074125,0.01301575,0.0034484998,-0.014419501,0.053625,-0.036625,0.023875,-0.012924249,0.010757499,0.01324475,1741897913.97177
0.02625,0.133875,0.07525,0.014923001,0.0052947504,-0.01661675,0.053625,-0.031125,0.02575,-0.00976575,0.0106355,0.011123749,1741897913.982985
0.02675,0.129125,0.0745,0.018158002,0.008255,-0.019897498,0.059125,-0.026125,0.022375,-0.0045165,0.00846875,0.00531,1741897913.9974642
0.025375,0.126125,0.077125,0.019577,0.009445249,-0.021225,0.0745,-0.015125,0.016125,-0.0026092501,0.0054780003,0.00105275,1741897914.0119889
0.024625,0.122875,0.082,0.022369498,0.01307675,-0.02386475,0.078125,-0.013125,0.0145,0.000946,-0.00193775,-0.0091705,1741897914.0320158
0.027625,0.111875,0.086875,0.02415475,0.0154115,-0.02513125,0.073625,-0.018375,0.0155,0.00325,-0.0060425,-0.01446525,1741897914.041476
0.031625,0.10375,0.083,0.026122998,0.0174865,-0.026184,0.069,-0.02075,0.01975,0.0074920002,-0.0149995005,-0.0248565,1741897914.056192
0.041875,0.083875,0.070875,0.02882375,0.01911925,-0.026825001,0.055,-0.031,0.038,0.00912475,-0.019287001,-0.029601999,1741897914.074411
0.0455,0.078,0.06825,0.02873225,0.01876825,-0.0264435,0.045125,-0.042125,0.049375,0.01145925,-0.02636725,-0.03793325,1741897914.0853891
0.047125,0.075625,0.069,0.025970502,0.01867675,-0.0260315,0.028875,-0.0635,0.061375,0.0119630005,-0.02893075,-0.042419497,1741897914.100354
0.049375,0.0675,0.070375,0.024658252,0.01953125,-0.026397752,0.025875,-0.070375,0.061125,0.015167249,-0.031692497,-0.053299,1741897914.114808
0.053375,0.061625,0.067375,0.02250675,0.01968375,-0.02610775,0.021375,-0.08625,0.064625,0.01857,-0.03141775,-0.05593875,1741897914.1296031
0.063875,0.05175,0.0595,0.02105725,0.0186005,-0.0249635,0.0105,-0.113125,0.07225,0.02272025,-0.0305175,-0.055236753,1741897914.1440861
0.06725,0.04475,0.055875,0.0194245,0.0172425,-0.02363575,-0.019,-0.218625,0.094,0.030655,-0.033752497,-0.043105997,1741897914.158973
0.070125,0.0365,0.0525,0.01542675,0.014099,-0.0204925,-0.013125,-0.19,0.11025,0.035614,-0.038757253,-0.026550248,1741897914.173686
0.075375,0.0225,0.047375,0.013137749,0.0119934995,-0.0179595,-0.003125,-0.12125,0.106625,0.039154,-0.029892,-0.017303498,1741897914.192065
0.0775,0.017375,0.045875,0.00801075,0.00672925,-0.010666001,-0.00575,-0.149625,0.025125,0.03648375,-0.0203705,-0.0254975,1741897914.203232
0.079875,0.010375,0.0415,0.0050202496,0.00372325,-0.006012,-0.011875,-0.188375,0.0075,0.03536975,-0.019775499,-0.02026375,1741897914.217901
0.080875,0.0115,0.040375,-0.00033575002,-0.002411,0.0042115003,-0.034625,-0.235875,0.033,0.034958,-0.021514999,-0.0114744995,1741897914.232575
0.08325,0.02025,0.044375,-0.00251775,-0.0049742498,0.009002751,-0.044,-0.264125,0.047875,0.01927175,-0.0138245,0.004303,1741897914.251939
0.08125,0.027125,0.04875,-0.0044555003,-0.0070342496,0.013214,-0.030875,-0.25925,0.054,0.0044555003,-0.00579825,0.010437001,1741897914.2617862
0.07675,0.03425,0.0535,-0.00712575,-0.0100555,0.01953125,-0.016,-0.22925,0.0545,-0.0203095,0.008316,0.019455,1741897914.276578
0.064,0.05075,0.066,-0.0081025,-0.011169501,0.02168275,0.003875,-0.17175,0.0635,-0.02645875,0.012741,0.022995,1741897914.291712
0.05625,0.06275,0.074125,-0.0093995,-0.0129395,0.02388,0.00325,-0.15825,0.06975,-0.0298615,0.0175935,0.0295105,1741897914.305595
0.046,0.0785,0.083625,-0.009277251,-0.013733,0.02398675,-0.0045,-0.143125,0.071125,-0.03009025,0.0190735,0.032714747,1741897914.320201
0.046125,0.077375,0.084,-0.00941475,-0.0158385,0.0245515,-0.00425,-0.1345,0.068875,-0.03155525,0.0220795,0.037201,1741897914.334887
0.050125,0.068625,0.08525,-0.0112,-0.01675425,0.025711,0.000625,-0.117875,0.06775,-0.032714747,0.024063,0.0382385,1741897914.35169
0.050875,0.067875,0.0845,-0.016448999,-0.0154115,0.027954001,0.0035,-0.108375,0.06475,-0.03550725,0.02822875,0.038390998,1741897914.364023
0.046,0.079875,0.084375,-0.0186005,-0.013992251,0.0281525,0.014625,-0.085,0.0525,-0.03601075,0.0295105,0.03793325,1741897914.378572
0.041875,0.088875,0.0815,-0.02067575,-0.013198749,0.0273895,0.023125,-0.074375,0.045875,-0.03500375,0.02977,0.037445,1741897914.3930812
0.03825,0.0955,0.07625,-0.02253725,-0.012115501,0.024261499,0.030375,-0.065125,0.039875,-0.029876752,0.02781675,0.035705503,1741897914.41235
0.032,0.1125,0.066125,-0.021988,-0.01177975,0.0229035,0.037625,-0.051875,0.035625,-0.026657,0.0264435,0.0345,1741897914.42222
0.030625,0.119375,0.05875,-0.020141501,-0.01148975,0.01985175,0.03975,-0.046875,0.03425,-0.020324752,0.024047751,0.031997748,1741897914.436651
0.028875,0.1365,0.052875,-0.01953125,-0.01165775,0.017929,0.049625,-0.031875,0.028625,-0.01799,0.021698,0.029846251,1741897914.451642
0.026375,0.14675,0.056375,-0.018448,-0.011688249,0.012771499,0.055375,-0.024375,0.026875,-0.014510999,0.014587499,0.02278125,1741897914.465895
0.019375,0.168625,0.07025,-0.0169525,-0.01092525,0.00935375,0.05975,-0.01875,0.026125,-0.012619001,0.0110625,0.0187225,1741897914.480484
0.018875,0.171875,0.0755,-0.0139465,-0.009323,0.005539,0.057875,-0.020125,0.02525,-0.008346501,0.0062865,0.012054499,1741897914.4951801
0.020875,0.168375,0.0785,-0.005005,-0.0045777503,-0.00160225,0.06075,-0.014875,0.02225,-0.00672925,0.00494375,0.008850001,1741897914.511673
0.02775,0.149875,0.07675,-0.00042725,-0.00225825,-0.0044555003,0.066125,-0.010625,0.022625,-0.00494375,0.00175475,0.00061025,1741897914.524357
0.03125,0.14125,0.072,0.0058287503,0.000946,-0.0090637505,0.07675,-0.004875,0.02375,-0.00369275,-0.00067150005,-0.004486,1741897914.539176
0.032125,0.132125,0.075125,0.0073547503,0.0019225,-0.011031999,0.079625,-0.00375,0.023,0.001114,-0.008072,-0.01560975,1741897914.553762
0.0275,0.135,0.083375,0.009842,0.0045012496,-0.01582325,0.0785,-0.002875,0.02375,0.00453175,-0.0126495,-0.020904498,1741897914.568483
0.023,0.136,0.093875,0.012146,0.00672925,-0.018737748,0.075875,-0.00125,0.025,0.008606,-0.01747125,-0.02592475,1741897914.5830579
0.02725,0.127375,0.092875,0.01525875,0.009430001,-0.021331752,0.05225,-0.02425,0.042625,0.0167695,-0.025879,-0.035766497,1741897914.5977862
0.034375,0.11375,0.089375,0.02073675,0.0142365,-0.024383498,0.02975,-0.055625,0.057625,0.0195465,-0.02835075,-0.039352503,1741897914.615016
0.045625,0.089125,0.080625,0.02215575,0.0156555,-0.024704,0.0135,-0.0835,0.0685,0.02038575,-0.0289765,-0.042923,1741897914.631708
0.047125,0.084,0.077125,0.0216675,0.01643375,-0.024353001,0.015875,-0.0945,0.07025,0.019714251,-0.028183,-0.04609675,1741897914.642088
0.048,0.076875,0.07475,0.02053825,0.0164795,-0.02418525,0.0205,-0.096375,0.072875,0.02006525,-0.0273895,-0.05815125,1741897914.65669
0.0495,0.073125,0.07375,0.01855475,0.01693725,-0.0242005,-0.00025,-0.1575,0.097125,0.023254499,-0.027832001,-0.059326246,1741897914.672346
0.055875,0.062,0.06775,0.018188499,0.017455999,-0.024292,-0.013,-0.211125,0.101125,0.04258725,-0.030365,-0.031356752,1741897914.686252
0.059375,0.055375,0.06325,0.017929,0.017501751,-0.02398675,0.01325,-0.118,0.093,0.04971325,-0.03385925,-0.0137635,1741897914.701002
0.062625,0.04925,0.05825,0.0168305,0.014663749,-0.0214385,0.016375,-0.080125,0.062875,0.047165003,-0.02845775,-0.023697,1741897914.715573
0.067375,0.039,0.051125,0.016265752,0.01248175,-0.01956175,-0.02025,-0.158125,0.011875,0.047057997,-0.026275748,-0.028305,1741897914.7319648
0.0685,0.03075,0.048875,0.013321,0.0077972496,-0.014709501,-0.036,-0.196,0.0125,0.04641725,-0.0273285,-0.016448999,1741897914.7450979
0.07025,0.014375,0.043375,0.010604749,0.00505075,-0.011169501,-0.04625,-0.245,0.0235,0.039794996,-0.024810748,-0.00912475,1741897914.759923
0.072,0.008625,0.040125,0.00352475,-0.00105275,-0.00216675,-0.044375,-0.253,0.028375,0.014709501,-0.013290499,0.00238025,1741897914.7746098
0.077,0.00975,0.039125,0.000122000005,-0.00390625,0.0027312501,-0.0175,-0.214375,0.035625,0.0027160002,-0.00723275,0.0068055,1741897914.792077
0.077625,0.014875,0.0415,-0.0028074998,-0.0063325,0.0073242504,-0.004,-0.188875,0.040625,-0.009231499,0.0004425,0.013153,1741897914.8037891
0.075,0.024125,0.046875,-0.00744625,-0.009933501,0.01454175,0.002375,-0.1575,0.05225,-0.010314999,0.0022277501,0.0158385,1741897914.818325
0.062875,0.04625,0.061125,-0.0090637505,-0.01115425,0.016998248,-0.00375,-0.158,0.055625,-0.010513251,0.00402825,0.0221405,1741897914.833044
0.056875,0.05575,0.06675,-0.01086425,-0.0129395,0.020782499,-0.015625,-0.161,0.058,-0.011901749,0.00511175,0.0257415,1741897914.851516
0.0515,0.064125,0.070875,-0.011245751,-0.013778751,0.02238475,-0.014625,-0.154375,0.05825,-0.014510999,0.00691225,0.028885,1741897914.862328
0.052,0.061125,0.070875,-0.01272575,-0.01570125,0.0254975,-0.00975,-0.14575,0.056375,-0.02227775,0.012024,0.032424998,1741897914.876919
0.04925,0.059125,0.0795,-0.014862,-0.0167695,0.027481,0.00125,-0.131875,0.050375,-0.0272675,0.014648501,0.03300475,1741897914.8927429
0.039875,0.0755,0.092625,-0.02034,-0.017929,0.0305175,0.005625,-0.126625,0.048,-0.037277248,0.019455,0.03353875,1741897914.906023
0.02125,0.1045,0.1095,-0.021103,-0.01658625,0.02977,0.009875,-0.1125,0.0505,-0.041061502,0.02159125,0.033889752,1741897914.9204621
0.0195,0.108,0.107375,-0.0207215,-0.014053251,0.028061,0.012125,-0.1015,0.05475,-0.04382325,0.02622975,0.0346375,1741897914.935153
0.024,0.104875,0.096625,-0.019897498,-0.008788999,0.024810748,0.021875,-0.081375,0.063,-0.042389,0.029541,0.035339247,1741897914.951401
0.034625,0.099125,0.065625,-0.01991275,-0.0075835,0.02430725,0.025125,-0.07575,0.065125,-0.03714,0.03710925,0.03701775,1741897914.964227
0.03325,0.108875,0.056,-0.021881001,-0.00912475,0.023346001,0.037875,-0.0625,0.05725,-0.034225497,0.038085997,0.03575125,1741897914.978697
0.02,0.147125,0.044125,-0.022827249,-0.010376001,0.021225,0.048125,-0.058875,0.049,-0.03123475,0.03190625,0.02955625,1741897914.9933078
0.013375,0.1735,0.04475,-0.0204925,-0.010894749,0.012985251,0.05775,-0.053125,0.038625,-0.029998751,0.026733499,0.02677925,1741897915.012186
0.00825,0.211625,0.063625,-0.01586925,-0.0094604995,0.00691225,0.058625,-0.048875,0.037,-0.02766425,0.02256775,0.024765,1741897915.02266
0.013375,0.207625,0.07175,-0.008712751,-0.00665275,0.00033575002,0.061625,-0.039125,0.036375,-0.01991275,0.019775499,0.02186575,1741897915.037222
0.0235,0.186125,0.074,0.0063325,-0.00010675,-0.0094604995,0.0665,-0.0335,0.0335,-0.01542675,0.020584,0.020446751,1741897915.053657
0.035,0.140875,0.080125,0.0103455,0.00198375,-0.0119630005,0.071375,-0.027625,0.031375,-0.00801075,0.01930225,0.016143749,1741897915.0663412
0.031125,0.134,0.087875,0.012405501,0.0047607496,-0.01643375,0.079875,-0.014875,0.02875,-0.0056,0.015625,0.0125275,1741897915.081002
0.0225,0.13075,0.10225,0.013137749,0.00672925,-0.019165002,0.083875,-0.012,0.026125,-0.0012665,0.0063477503,0.0038299998,1741897915.095585
0.0245,0.125,0.102625,0.01722725,0.01200875,-0.024047751,0.093875,-0.00225,0.018125,0.00093075,0.00213625,-0.00090025004,1741897915.1151848
0.035375,0.105625,0.09075,0.0198365,0.014267,-0.025314251,0.095,-0.00225,0.017125,0.00434875,-0.0051269997,-0.011535751,1741897915.1247518
0.039125,0.09875,0.084375,0.02197275,0.0157775,-0.025543248,0.090375,-0.00475,0.020125,0.006668,-0.008712751,-0.01640325,1741897915.1395252
0.040875,0.094,0.08025,0.0235595,0.017151,-0.02513125,0.085375,-0.006375,0.021,0.013000499,-0.016327,-0.025406,1741897915.154081
0.041,0.082125,0.079125,0.023346001,0.0178985,-0.025314251,0.07325,-0.010375,0.024875,0.01579275,-0.019592252,-0.030029248,1741897915.1720152
0.041375,0.075375,0.079,0.02297975,0.02088925,-0.026413,0.06675,-0.012625,0.030125,0.01791375,-0.0248565,-0.040069498,1741897915.1833012
0.048375,0.060625,0.0695,0.02262875,0.02159125,-0.026519751,0.042125,-0.036625,0.050875,0.0174865,-0.02702325,-0.045043997,1741897915.198009
0.054375,0.05575,0.06275,0.02168275,0.01976025,-0.02519225,0.025375,-0.05925,0.064,0.0144805005,-0.03053275,-0.054077253,1741897915.2127318
0.06275,0.047625,0.052625,0.020874001,0.018035999,-0.0242005,0.008,-0.092,0.077125,0.013488751,-0.032074,-0.0587615,1741897915.2324722
0.06475,0.040875,0.04925,0.019622749,0.01586925,-0.022812,0.007375,-0.09775,0.073625,0.014145001,-0.033462502,-0.061706502,1741897915.242187
0.065875,0.033,0.047,0.0168915,0.010391249,-0.0177765,0.002875,-0.141875,0.06425,0.0244445,-0.0346375,-0.059265252,1741897915.256789
0.06825,0.015625,0.042875,0.014389,0.0070342496,-0.01412975,-0.00775,-0.193625,0.063125,0.033249002,-0.035293497,-0.05001825,1741897915.272023
0.0695,0.0095,0.040375,0.0035704998,-0.00065625,-0.004837,-0.015625,-0.19325,0.076625,0.04901125,-0.04173275,-0.014419501,1741897915.28621
0.074875,0.008125,0.037,-0.00090025004,-0.00416575,0.00035100002,-0.0295,-0.120625,0.059,0.04948425,-0.03907775,-0.012146,1741897915.301197
0.077625,0.011375,0.037875,-0.0074920002,-0.0095672505,0.010009751,-0.03975,-0.141125,0.026375,0.047592252,-0.028747499,-0.022873,1741897915.315778
0.076875,0.019375,0.0435,-0.010101249,-0.01148975,0.01425175,-0.0485,-0.201875,0.014125,0.04850775,-0.0269165,-0.0203705,1741897915.331882
0.072875,0.02525,0.04925,-0.01200875,-0.013061499,0.018158002,-0.04825,-0.23375,0.024,0.0385895,-0.0212555,-0.0067445002,1741897915.345293
0.065375,0.0365,0.05975,-0.01402275,-0.01519775,0.024353001,-0.031875,-0.25475,0.03175,0.02572625,-0.0153807495,0.0003205,1741897915.3599849
0.042125,0.071375,0.08525,-0.014206001,-0.01579275,0.0261535,-0.0175,-0.235,0.03275,-0.0010375,-0.0038299998,0.00991825,1741897915.3746712
0.033125,0.08525,0.093,-0.012680001,-0.016739,0.0270385,-0.00725,-0.1975,0.04475,-0.009842,1.5250001e-05,0.013488751,1741897915.3922188
0.03075,0.086875,0.099625,-0.01248175,-0.017334,0.0270385,-0.007125,-0.1835,0.052125,-0.019104,0.0050965,0.021026501,1741897915.404005
0.034375,0.080625,0.098875,-0.01693725,-0.01731875,0.0283965,-0.000125,-0.1575,0.058625,-0.021164,0.00697325,0.02456675,1741897915.418748
0.0415,0.08325,0.09175,-0.019104,-0.015213001,0.02876275,0.00425,-0.14725,0.058375,-0.0229035,0.00976575,0.030075,1741897915.4333
0.041875,0.0895,0.08725,-0.020355249,-0.012756251,0.0280305,0.0085,-0.132875,0.05825,-0.02398675,0.011260999,0.03189075,1741897915.451808
0.034625,0.1025,0.06875,-0.020172002,-0.010391249,0.0249175,0.0095,-0.127625,0.05775,-0.02857975,0.015442001,0.03382875,1741897915.462487
0.030625,0.111875,0.055125,-0.019104,-0.010742251,0.023834249,0.012625,-0.119625,0.0555,-0.03129575,0.017852752,0.034438998,1741897915.477191
0.025875,0.124375,0.044875,-0.01731875,-0.012329,0.0211945,0.012375,-0.1165,0.05625,-0.034958,0.023819,0.036499,1741897915.4917681
0.012625,0.160375,0.050375,-0.01705925,-0.01278675,0.0183715,0.0145,-0.100875,0.060125,-0.03508,0.02775575,0.03840625,1741897915.506424
0.008,0.180625,0.06575,-0.01278675,-0.01077275,0.0081025,0.01725,-0.092125,0.06075,-0.034149252,0.03190625,0.04081725,1741897915.5210629
0.014875,0.1925,0.093625,-0.0074004997,-0.0077210004,0.00190725,0.02275,-0.0845,0.059125,-0.02948,0.036148,0.041869998,1741897915.53569
0.023125,0.17775,0.098625,0.00399775,-0.00059500005,-0.0068665,0.0415,-0.0615,0.047625,-0.027954001,0.0365295,0.0399475,1741897915.5537689
0.033875,0.1395,0.097125,0.0075225,0.002121,-0.0091095,0.052125,-0.047875,0.040375,-0.02572625,0.033508252,0.03408825,1741897915.5651689
0.0325,0.128625,0.09625,0.009323,0.00396725,-0.01062,0.06425,-0.0335,0.028875,-0.02360525,0.03025825,0.031021,1741897915.579935
0.02675,0.128125,0.0995,0.009582501,0.0068207504,-0.0138702495,0.07025,-0.025125,0.020375,-0.0223235,0.02079775,0.02224725,1741897915.5956118
0.020125,0.133,0.10725,0.010086001,0.00897225,-0.0164795,0.073375,-0.02825,0.0215,-0.0220795,0.01445,0.017517,1741897915.611784
0.023875,0.13025,0.1055,0.01474,0.014068499,-0.02186575,0.070125,-0.030375,0.02875,-0.0155030005,0.00697325,0.013092,1741897915.6240058
0.03675,0.113875,0.09225,0.017807,0.01622,-0.023819,0.0695,-0.021,0.02775,-0.0118407495,0.0060577504,0.0112915,1741897915.6387992
0.041375,0.099875,0.083875,0.020401,0.017852752,-0.02500925,0.076125,-0.012,0.020625,-0.007431,0.0011445,0.00355525,1741897915.653454
0.043625,0.074375,0.07375,0.0229035,0.019317752,-0.024841249,0.085625,-0.00425,0.014125,-0.0052185003,-0.00343325,-0.0019685,1741897915.6719182
0.043375,0.0675,0.071625,0.022521999,0.01924125,-0.02421575,0.085125,-0.00575,0.0155,0.00029,-0.01206975,-0.012634249,1741897915.6829069
0.043625,0.0615,0.0685,0.019744748,0.018509,-0.023117,0.082625,-0.004875,0.019375,0.0031127501,-0.015442001,-0.01753225,1741897915.697628
