L-AccX,L-AccY,L-AccZ,L-GyrX,L-GyrY,L-GyrZ,R-AccX,R-AccY,R-AccZ,R-GyrX,R-GyrY,R-GyrZ,timestamp
0.21500000000000008,0.16500000000000004,-0.37,-0.028940000000000077,-0.11548000000000003,0.07116000000000011,0.2749999999999999,-0.08999999999999997,0.4849999999999999,-0.014519999999999977,-0.05113999999999996,0.02624000000000004,1742256868.222468
0.45500000000000007,0.2450000000000001,-0.29499999999999993,-0.02415999999999996,0.10009999999999986,-0.05737999999999999,-0.0050000000000000044,-0.08999999999999997,0.30000000000000004,0.010259999999999936,-0.09423999999999999,-0.06274000000000002,1742256868.336448
0.30499999999999994,0.18500000000000005,-0.30499999999999994,-0.14576,0.04381999999999997,0.01097999999999999,0.06000000000000005,0.020000000000000018,0.6499999999999999,0.07311999999999985,0.05920000000000014,0.02171999999999996,1742256868.4527428
0.14500000000000002,-0.07000000000000006,-0.525,0.0920399999999999,-0.015619999999999967,-0.017940000000000067,0.25,0.06000000000000005,0.5449999999999999,-0.10584000000000005,0.09655999999999998,0.018179999999999863,1742256868.564602
0.19999999999999996,0.1499999999999999,-0.375,0.01550000000000007,-0.14794000000000007,0.14722000000000013,0.2250000000000001,-0.06000000000000005,0.5350000000000001,0.005859999999999976,-0.11009999999999998,-0.05003999999999997,1742256868.678314
0.51,0.405,-0.125,0.08642000000000016,0.10340000000000016,-0.06446000000000007,-0.03500000000000003,-0.07000000000000006,0.385,-0.08814,-0.03076000000000001,-0.0009799999999999809,1742256868.7932138
0.18500000000000005,0.21500000000000008,-0.485,-0.13012,0.11718000000000006,-0.06934000000000007,-0.07499999999999996,-0.010000000000000009,0.405,0.020620000000000083,0.042240000000000055,0.010000000000000009,1742256868.9064698
0.125,-0.15000000000000002,-0.595,0.07496000000000014,-0.04515999999999998,-0.028799999999999937,0.16999999999999993,-0.04500000000000004,0.7749999999999999,-0.00537999999999994,0.1926199999999998,-0.009159999999999946,1742256869.02048
0.19999999999999996,0.20999999999999996,-0.38,0.03685999999999989,-0.12585999999999997,0.13476,0.25,-0.07000000000000006,0.56,0.0009799999999999809,0.020999999999999908,0.011479999999999935,1742256869.134413
0.47,0.2450000000000001,-0.21499999999999997,0.05090000000000017,0.07103999999999999,-0.11402000000000001,-0.020000000000000018,-0.050000000000000044,0.41500000000000004,-0.016720000000000068,0.023679999999999923,0.06800000000000006,1742256869.248414
0.21500000000000008,0.20500000000000007,-0.4,-0.13549999999999995,0.14636000000000005,-0.12390000000000001,0.004999999999999893,-0.010000000000000009,0.33000000000000007,-0.0045199999999999685,-0.01537999999999995,0.023320000000000007,1742256869.362397
0.10499999999999998,-0.13,-0.525,0.021239999999999926,-0.027959999999999985,-0.03064,0.28,-0.11499999999999999,0.6400000000000001,0.023320000000000007,0.018799999999999928,-0.00988,1742256869.476568
0.2250000000000001,0.2650000000000001,-0.385,-0.0601799999999999,-0.09436,0.16906,0.26,-0.11499999999999999,0.48,0.025880000000000125,-0.017220000000000013,0.06469999999999998,1742256869.5941608
0.45999999999999996,0.19500000000000006,-0.19999999999999996,-0.07091999999999998,0.055420000000000025,0.014040000000000052,-0.08499999999999996,0.030000000000000027,0.405,-0.09289999999999998,-0.07446000000000008,0.010620000000000074,1742256869.704331
0.30000000000000004,0.14500000000000002,-0.39,-0.15344000000000002,0.06445999999999996,0.026980000000000004,-0.08499999999999996,-0.025000000000000022,0.43500000000000005,0.03405999999999998,0.048819999999999864,-0.029299999999999993,1742256869.818271
0.06499999999999995,-0.15500000000000003,-0.585,0.1689400000000001,-0.04834000000000005,-0.06958000000000009,0.17999999999999994,-0.06499999999999995,0.685,-0.026980000000000004,-0.019279999999999964,-0.05113999999999996,1742256869.93448
0.18999999999999995,0.11499999999999999,-0.4650000000000001,0.03503999999999996,-0.10486000000000006,0.17003999999999997,0.28,0.02499999999999991,0.4950000000000001,0.010739999999999972,-0.022460000000000035,-0.04515999999999998,1742256870.046286
0.42999999999999994,0.29499999999999993,-0.275,-0.034420000000000006,0.05896000000000012,-0.006220000000000003,-0.07000000000000006,-0.010000000000000009,0.41999999999999993,-0.08374000000000004,-0.00660000000000005,-0.025399999999999978,1742256870.1604102
0.18999999999999995,0.14500000000000002,-0.385,-0.15637999999999996,0.11988000000000021,-0.04858000000000007,-0.10499999999999998,-0.07000000000000006,0.3599999999999999,-0.017940000000000067,-0.008179999999999965,0.0026800000000000157,1742256870.274407
0.06499999999999995,-0.13,-0.57,0.1604000000000001,-0.017940000000000067,-0.056400000000000006,0.15500000000000003,0.020000000000000018,0.6299999999999999,-0.048960000000000004,-0.018320000000000003,-0.03834000000000004,1742256870.3884869
0.19500000000000006,0.16500000000000004,-0.41999999999999993,0.02611999999999992,-0.10108000000000006,0.14856000000000003,0.21999999999999997,-0.03500000000000003,0.52,-0.02185999999999999,-0.010379999999999945,-0.04747999999999997,1742256870.50237
0.44500000000000006,0.3599999999999999,-0.18500000000000005,0.012460000000000138,-0.008179999999999965,-0.006460000000000021,-0.07999999999999996,-0.03500000000000003,0.42999999999999994,-0.09789999999999999,0.09704000000000002,0.0030599999999998406,1742256870.6163929
0.21500000000000008,0.20999999999999996,-0.385,-0.11658000000000002,0.13805999999999985,-0.09265999999999996,-0.06000000000000005,-0.030000000000000027,0.395,-0.025639999999999996,0.01966000000000001,0.03968000000000016,1742256870.73523
0.050000000000000044,-0.13,-0.595,0.07079999999999997,0.0039000000000000146,-0.06665999999999994,0.1299999999999999,-0.015000000000000013,0.4849999999999999,0.021360000000000046,-0.12927999999999995,-0.03149999999999997,1742256870.844428
0.1499999999999999,0.15500000000000003,-0.4,0.03833999999999982,-0.12341999999999997,0.15088000000000013,0.19500000000000006,-0.06499999999999995,0.575,-0.01660000000000006,0.008299999999999974,-0.005120000000000013,1742256870.95831
0.3500000000000001,0.405,-0.135,-0.006099999999999994,-0.07591999999999999,0.03735999999999984,-0.015000000000000013,0.0,0.5,-0.029059999999999975,0.09959999999999991,0.012700000000000156,1742256871.0758011
0.28,0.29000000000000004,-0.26,0.01868000000000003,0.1302399999999999,-0.1322000000000001,-0.09499999999999997,-0.16500000000000004,0.45999999999999996,0.014899999999999913,0.009519999999999973,0.02929999999999988,1742256871.186362
0.040000000000000036,-0.010000000000000009,-0.58,0.013419999999999987,0.10328000000000004,-0.13978000000000002,0.07000000000000006,0.0,0.44999999999999996,0.0021999999999999797,-0.13049999999999995,-0.0018400000000000638,1742256871.300423
0.09000000000000008,-0.040000000000000036,-0.645,-0.0025599999999998957,-0.10462000000000005,0.12414000000000014,0.21500000000000008,-0.08999999999999997,0.615,-0.007320000000000104,0.007200000000000095,-0.0035399999999999876,1742256871.418983
0.32499999999999996,0.29499999999999993,-0.2849999999999999,0.02416000000000018,-0.13184000000000007,0.11218000000000017,0.03499999999999992,-0.020000000000000018,0.55,-0.024419999999999997,0.12268000000000012,0.013919999999999932,1742256871.528329
0.33000000000000007,0.29000000000000004,-0.20999999999999996,0.08203999999999989,0.037959999999999994,-0.10375999999999996,-0.10499999999999998,-0.14,0.4099999999999999,0.007940000000000058,0.010000000000000009,0.0032999999999998586,1742256871.642308
0.135,0.09499999999999997,-0.5,-0.023440000000000016,0.17420000000000013,-0.14061999999999997,0.04499999999999993,-0.07000000000000006,0.3799999999999999,0.006220000000000114,-0.08362000000000003,0.014520000000000088,1742256871.7564192
0.11499999999999999,-0.015000000000000013,-0.565,0.0007399999999999629,-0.0343,0.01428000000000007,0.18999999999999995,-0.050000000000000044,0.685,0.00878000000000001,-0.022820000000000062,-0.0015800000000000258,1742256871.877088
0.28,0.20500000000000007,-0.31000000000000005,-0.06298000000000004,-0.14466,0.15088000000000013,0.125,-0.03500000000000003,0.53,0.04735999999999985,0.07238000000000011,0.037959999999999994,1742256871.984433
0.375,0.21999999999999997,-0.30000000000000004,0.05090000000000017,0.0023200000000000998,-0.023679999999999923,-0.06499999999999995,-0.07999999999999996,0.42500000000000004,-0.02636000000000005,0.052119999999999944,0.006720000000000059,1742256872.098186
0.2849999999999999,0.21500000000000008,-0.26,-0.030399999999999983,0.11694000000000004,-0.07079999999999997,0.010000000000000009,-0.04500000000000004,0.365,0.024540000000000006,0.06457999999999986,0.014899999999999913,1742256872.215658
0.06499999999999995,-0.020000000000000018,-0.625,0.05920000000000014,0.043460000000000054,-0.041019999999999945,0.18500000000000005,-0.06499999999999995,0.47,-0.023799999999999932,-0.09277999999999997,-0.04310000000000003,1742256872.326313
0.26,0.20500000000000007,-0.43999999999999995,0.0046399999999999775,-0.11268000000000011,0.11572000000000005,0.2549999999999999,-0.06000000000000005,0.55,-0.01208000000000009,0.019279999999999964,-0.00878000000000001,1742256872.4402292
0.4099999999999999,0.32499999999999996,-0.21499999999999997,0.07068000000000008,-0.03405999999999998,-0.025399999999999978,0.06000000000000005,-0.10499999999999998,0.43999999999999995,0.09448000000000012,0.030999999999999917,-0.025399999999999978,1742256872.5562
0.25,0.27,-0.265,-0.024419999999999997,0.12988000000000022,-0.08728000000000002,-0.025000000000000022,-0.135,0.45500000000000007,-0.07850000000000001,0.0029200000000000337,0.05371999999999999,1742256872.668316
0.09499999999999997,-0.020000000000000018,-0.585,0.008920000000000039,0.035880000000000134,-0.03601999999999994,0.1299999999999999,-0.08499999999999996,0.5,-0.05676000000000003,-0.09484000000000004,-0.0035399999999999876,1742256872.782298
0.16500000000000004,0.135,-0.475,0.008419999999999872,-0.1370800000000001,0.1263399999999999,0.25,-0.07499999999999996,0.5449999999999999,-0.03588000000000002,0.019279999999999964,-0.008919999999999928,1742256872.899342
0.3900000000000001,0.2749999999999999,-0.20999999999999996,-0.0045199999999999685,-0.05384,0.023320000000000007,0.06499999999999995,-0.050000000000000044,0.4849999999999999,-0.01966000000000001,0.028200000000000003,0.0017000000000000348,1742256873.016577
0.33499999999999996,0.30000000000000004,-0.235,0.008419999999999872,0.08861999999999992,-0.08984000000000003,-0.06499999999999995,-0.125,0.3999999999999999,0.007200000000000095,-0.0043999999999999595,0.0039000000000000146,1742256873.124434
0.09499999999999997,0.010000000000000009,-0.565,-0.034540000000000015,0.12464000000000008,-0.09350000000000003,0.10000000000000009,-0.05500000000000005,0.405,0.0013400000000001189,-0.09777999999999998,-0.019540000000000002,1742256873.238313
0.14000000000000012,0.014999999999999902,-0.61,-0.008179999999999965,-0.12561999999999995,0.10522000000000009,0.31000000000000005,-0.13,0.6200000000000001,-0.04052,0.0043999999999999595,0.006720000000000059,1742256873.358398
0.33499999999999996,0.31000000000000005,-0.25,0.08666000000000018,-0.08728000000000002,0.010620000000000074,0.040000000000000036,-0.050000000000000044,0.54,-0.016720000000000068,0.014040000000000052,0.03198000000000012,1742256873.466252
0.31000000000000005,0.2549999999999999,-0.30499999999999994,0.06603999999999988,0.06298000000000004,-0.08118000000000003,-0.10499999999999998,-0.09999999999999998,0.3799999999999999,0.0307599999999999,-0.03370000000000006,-0.010379999999999945,1742256873.5802722
0.10000000000000009,0.06000000000000005,-0.5,-0.10438000000000003,0.11559999999999993,-0.00878000000000001,0.06000000000000005,-0.025000000000000022,0.2749999999999999,0.029179999999999984,-0.08984000000000003,-0.027100000000000013,1742256873.696705
0.125,0.0,-0.595,-0.006720000000000059,-0.10631999999999997,0.14671999999999996,0.26,-0.10499999999999998,0.645,0.01097999999999999,-0.011600000000000055,-0.03186,1742256873.808438
0.3900000000000001,0.30499999999999994,-0.14500000000000002,0.07800000000000007,-0.052120000000000055,0.08496000000000015,0.10000000000000009,-0.015000000000000013,0.47,-0.0039000000000000146,0.04235999999999995,-0.04370000000000007,1742256873.922098
0.26,0.31000000000000005,-0.31000000000000005,-0.02198,0.12952000000000008,-0.08189999999999997,-0.19500000000000006,-0.12,0.43500000000000005,0.06359999999999988,-0.17786000000000002,-0.07091999999999998,1742256874.037379
0.08499999999999996,0.010000000000000009,-0.595,-0.032220000000000026,0.059940000000000104,-0.02403999999999995,0.014999999999999902,-0.07499999999999996,0.43999999999999995,0.02293999999999996,-0.10289999999999999,-0.011960000000000082,1742256874.156235
0.1200000000000001,0.1100000000000001,-0.605,0.019400000000000084,-0.08653999999999995,0.06690000000000018,0.125,-0.10999999999999999,0.625,-0.007080000000000086,0.02844000000000002,-0.0032999999999999696,1742256874.263096
0.26,0.23499999999999988,-0.3400000000000001,-0.046499999999999986,-0.08216000000000001,0.09802,-0.0050000000000000044,-0.06000000000000005,0.4849999999999999,-0.02429999999999999,0.08557999999999999,0.02198000000000011,1742256874.379273
0.32000000000000006,0.32000000000000006,-0.13,-0.0034199999999999786,0.01635999999999993,-0.033440000000000025,-0.17500000000000004,-0.17000000000000004,0.4099999999999999,0.04283999999999999,0.037719999999999976,0.00878000000000001,1742256874.497513
0.07499999999999996,-0.030000000000000027,-0.63,-0.020499999999999963,0.12342000000000009,-0.10753999999999997,0.010000000000000009,-0.08999999999999997,0.3700000000000001,0.043460000000000054,-0.14172000000000007,-0.024899999999999922,1742256874.605349
0.14500000000000002,0.03499999999999992,-0.6,0.041140000000000176,-0.03308,0.03685999999999989,0.15999999999999992,-0.16500000000000004,0.625,0.07800000000000007,0.01953999999999989,-0.023559999999999914,1742256874.719151
0.28,0.21999999999999997,-0.45999999999999996,0.05152000000000001,-0.07116,0.10095999999999994,0.004999999999999893,-0.10999999999999999,0.5350000000000001,-0.039919999999999956,0.14196000000000009,-0.0031799999999999606,1742256874.837609
0.20500000000000007,0.3400000000000001,-0.30000000000000004,0.02929999999999988,0.059579999999999966,-0.06823999999999997,-0.14,-0.16000000000000003,0.2749999999999999,0.08105999999999991,-0.07287999999999994,-0.02734000000000003,1742256874.947187
0.125,0.07499999999999996,-0.485,0.007940000000000058,0.07335999999999987,-0.11462000000000006,-0.04500000000000004,-0.15500000000000003,0.48,-0.025399999999999978,-0.060799999999999965,0.08507999999999982,1742256875.061164
0.14000000000000012,0.014999999999999902,-0.605,-0.03601999999999994,-0.05396000000000001,0.10046,0.18999999999999995,-0.050000000000000044,0.575,-0.023320000000000007,-0.0029199999999999227,-0.019039999999999946,1742256875.17772
0.20999999999999996,0.21999999999999997,-0.42999999999999994,-0.03601999999999994,-0.11827999999999994,0.14159999999999995,0.050000000000000044,-0.05500000000000005,0.5,-0.009519999999999973,0.09472000000000014,-0.022820000000000062,1742256875.297159
0.29499999999999993,0.2450000000000001,-0.33499999999999996,0.06603999999999988,0.011719999999999953,-0.042120000000000046,-0.10499999999999998,-0.135,0.41500000000000004,-0.008299999999999974,0.007200000000000095,0.0027999999999999137,1742256875.403181
0.19500000000000006,0.22999999999999998,-0.41500000000000004,-0.10584000000000005,0.1532,-0.10681999999999992,-0.025000000000000022,-0.04500000000000004,0.32000000000000006,-0.02100000000000002,-0.020259999999999945,0.014780000000000015,1742256875.5180118
0.11499999999999999,-0.010000000000000009,-0.495,0.019400000000000084,-0.03724000000000005,0.012460000000000138,0.10000000000000009,-0.03500000000000003,0.6099999999999999,-0.018059999999999965,-0.05371999999999999,-0.015020000000000033,1742256875.637415
0.14500000000000002,0.1299999999999999,-0.53,0.04625999999999997,-0.14808,0.09227999999999992,0.08000000000000007,-0.050000000000000044,0.585,-0.026859999999999995,0.04296000000000011,0.0007399999999999629,1742256875.745038
0.41500000000000004,0.345,-0.11499999999999999,0.01415999999999995,-0.05455999999999994,-0.00012000000000000899,-0.06499999999999995,0.030000000000000027,0.47,-0.03382000000000007,0.07201999999999997,-0.0075599999999999,1742256875.859076
0.33000000000000007,0.30499999999999994,-0.25,0.025140000000000162,0.1372,-0.17396,-0.020000000000000018,-0.07000000000000006,0.51,-0.12109999999999999,0.13038000000000016,0.08044000000000007,1742256875.978284
0.06000000000000005,0.04499999999999993,-0.575,0.013919999999999932,0.09460000000000002,-0.17370000000000008,0.1100000000000001,0.04499999999999993,0.405,-0.001960000000000073,-0.10863999999999996,0.011239999999999917,1742256876.086061
0.15500000000000003,0.0,-0.56,-0.04637999999999998,-0.06518000000000002,0.08275999999999994,0.19999999999999996,-0.025000000000000022,0.56,0.03845999999999994,-0.001960000000000073,0.013419999999999987,1742256876.2002308
0.30499999999999994,0.29000000000000004,-0.405,-0.08263999999999994,-0.12622,0.1822600000000001,0.08499999999999996,0.02499999999999991,0.45999999999999996,0.05346000000000006,0.03381999999999996,0.01428000000000007,1742256876.317603
0.3500000000000001,0.2549999999999999,-0.255,0.01428000000000007,0.038939999999999975,-0.034540000000000015,-0.08499999999999996,-0.03500000000000003,0.42500000000000004,-0.008299999999999974,0.056519999999999904,-0.01966000000000001,1742256876.428163
0.16999999999999993,0.06000000000000005,-0.42999999999999994,-0.16796,0.13294000000000006,-0.00012000000000000899,0.06000000000000005,0.0,0.42500000000000004,0.030399999999999983,-0.00988,-0.014039999999999941,1742256876.542159
0.10000000000000009,-0.0050000000000000044,-0.525,-0.0010999999999999899,-0.017220000000000013,0.04064000000000001,0.22999999999999998,-0.07000000000000006,0.575,0.03394000000000008,-0.04174,-0.06323999999999996,1742256876.6582348
0.28,0.30000000000000004,-0.22999999999999998,-0.0916800000000001,-0.09314,0.20031999999999983,0.10499999999999998,-0.04500000000000004,0.45999999999999996,0.009039999999999937,0.015740000000000087,-0.0015800000000000258,1742256876.777764
0.30499999999999994,0.2450000000000001,-0.36,0.041140000000000176,0.036619999999999875,-0.07862000000000002,-0.135,0.0,0.42999999999999994,-0.03710000000000002,-0.016840000000000077,-0.00537999999999994,1742256876.884102
0.18500000000000005,0.050000000000000044,-0.4650000000000001,-0.16515999999999997,0.07397999999999993,-0.04712000000000005,-0.030000000000000027,-0.07000000000000006,0.3900000000000001,0.042119999999999935,0.0021999999999999797,0.02733999999999992,1742256876.998772
0.1100000000000001,-0.07999999999999996,-0.5,0.011239999999999917,-0.023679999999999923,0.030160000000000187,0.17999999999999994,0.0,0.4950000000000001,-0.023679999999999923,-0.018179999999999974,-0.013679999999999914,1742256877.117918
0.2749999999999999,0.19500000000000006,-0.26,0.047719999999999985,-0.10914000000000001,0.13134,0.16500000000000004,-0.030000000000000027,0.52,0.01110000000000011,0.019160000000000066,-0.006960000000000077,1742256877.226059
0.3999999999999999,0.365,-0.21999999999999997,-0.015619999999999967,-0.022700000000000053,0.08543999999999996,-0.03500000000000003,-0.010000000000000009,0.42500000000000004,-0.14770000000000005,-0.010379999999999945,-0.07508000000000004,1742256877.3401651
0.2250000000000001,0.20500000000000007,-0.395,-0.05164000000000002,0.09277999999999986,-0.08996000000000004,-0.09999999999999998,-0.07499999999999996,0.5350000000000001,0.029900000000000038,0.05298000000000003,0.04675999999999991,1742256877.458555
0.07499999999999996,-0.08499999999999996,-0.595,0.037719999999999976,0.04188000000000014,-0.07752000000000003,0.08000000000000007,-0.03500000000000003,0.53,0.008299999999999974,-0.12426000000000004,0.01966000000000001,1742256877.568162
0.16999999999999993,0.09499999999999997,-0.505,0.023320000000000007,-0.12220000000000009,0.15270000000000006,0.15999999999999992,-0.025000000000000022,0.5699999999999998,-0.0050000000000000044,-0.00048000000000003595,-0.017220000000000013,1742256877.6820312
0.30000000000000004,0.28,-0.275,0.03370000000000006,-0.11291999999999991,0.04797999999999991,-0.03500000000000003,-0.040000000000000036,0.5,-0.05712000000000006,0.0343,-0.025639999999999996,1742256877.7984262
0.33000000000000007,0.31499999999999995,-0.19999999999999996,0.04968000000000017,0.0895999999999999,-0.11914000000000002,-0.05500000000000005,-0.07000000000000006,0.43500000000000005,0.01415999999999995,0.08020000000000005,0.025020000000000042,1742256877.9100878
0.08000000000000007,-0.06000000000000005,-0.59,0.0023200000000000998,0.08421999999999996,-0.09715999999999991,0.06499999999999995,-0.015000000000000013,0.385,0.06128,-0.11803999999999992,-0.010140000000000038,1742256878.024153
0.18500000000000005,0.02499999999999991,-0.49,0.059700000000000086,-0.07568000000000008,0.10009999999999986,0.18500000000000005,-0.04500000000000004,0.615,0.025640000000000107,-0.02061999999999997,-0.01758000000000004,1742256878.139391
0.385,0.31000000000000005,-0.18500000000000005,-0.04747999999999997,-0.09802,0.09483999999999981,0.09499999999999997,0.010000000000000009,0.4849999999999999,-0.022700000000000053,0.08421999999999996,-0.035519999999999996,1742256878.259061
0.3400000000000001,0.2549999999999999,-0.27,0.06800000000000006,0.0032999999999998586,-0.11681999999999992,-0.050000000000000044,-0.11499999999999999,0.44500000000000006,0.030399999999999983,-0.019039999999999946,-0.014900000000000024,1742256878.364992
0.23499999999999988,0.1499999999999999,-0.375,-0.15991999999999995,0.1177999999999999,-0.07177999999999995,0.09000000000000008,-0.025000000000000022,0.41500000000000004,-0.0030599999999999516,0.01746000000000003,0.005859999999999976,1742256878.479292
0.1200000000000001,-0.07000000000000006,-0.485,0.058599999999999985,-0.0040200000000000236,-0.016960000000000086,0.18999999999999995,-0.135,0.6600000000000001,-0.010140000000000038,0.027700000000000058,0.006099999999999994,1742256878.598996
0.22999999999999998,0.26,-0.28,-0.03760000000000008,-0.15527999999999997,0.24292000000000002,0.15999999999999992,-0.10499999999999998,0.51,0.009640000000000093,0.04675999999999991,0.03709999999999991,1742256878.7060952
0.3999999999999999,0.28,-0.245,0.01428000000000007,0.06225999999999998,-0.05479999999999996,-0.030000000000000027,-0.0050000000000000044,0.41999999999999993,-0.18920000000000003,0.07457999999999987,0.006839999999999957,1742256878.819947
0.16999999999999993,0.1100000000000001,-0.45500000000000007,-0.05896000000000001,0.13928000000000007,-0.12463999999999997,0.07000000000000006,-0.050000000000000044,0.5800000000000001,0.0908199999999999,-0.006960000000000077,-0.006460000000000021,1742256878.937807
0.09499999999999997,-0.14,-0.57,0.04090000000000016,-0.02844000000000002,0.01097999999999999,0.19500000000000006,-0.06000000000000005,0.5800000000000001,0.07678000000000007,-0.04077999999999993,-0.009279999999999955,1742256879.048106
0.25,0.26,-0.32499999999999996,0.002080000000000082,-0.16125999999999996,0.22120000000000006,0.1499999999999999,-0.04500000000000004,0.55,0.05383999999999989,0.02320000000000011,-0.0022000000000000908,1742256879.1619651
0.3700000000000001,0.27,-0.245,0.021239999999999926,0.04614000000000007,-0.06286000000000003,0.0,-0.11499999999999999,0.3799999999999999,-0.04394000000000009,0.018799999999999928,-0.021120000000000028,1742256879.278672
0.19999999999999996,0.10499999999999998,-0.43999999999999995,-0.05358000000000007,0.1302399999999999,-0.08508000000000004,0.010000000000000009,-0.06499999999999995,0.395,0.03394000000000008,-0.046499999999999986,0.02942,1742256879.3890922
0.14000000000000012,-0.08499999999999996,-0.595,0.017340000000000133,-0.036619999999999986,0.041380000000000194,0.21500000000000008,-0.09499999999999997,0.635,0.034660000000000135,-0.014780000000000015,-0.005619999999999958,1742256879.5031722
0.2250000000000001,0.24,-0.35,0.0014600000000000168,-0.10339999999999994,0.16198,0.1299999999999999,-0.07499999999999996,0.52,0.006599999999999939,0.04920000000000013,0.00878000000000001,1742256879.619458
0.3500000000000001,0.2650000000000001,-0.27,0.04248000000000007,0.025640000000000107,-0.02100000000000002,-0.04500000000000004,-0.07499999999999996,0.42500000000000004,-0.0035399999999999876,-0.013299999999999979,-0.037839999999999985,1742256879.738336
0.19999999999999996,0.16500000000000004,-0.355,-0.13160000000000005,0.12928000000000006,-0.05908000000000002,-0.020000000000000018,-0.10499999999999998,0.3400000000000001,0.01537999999999995,-0.031379999999999963,0.018440000000000012,1742256879.844117
0.135,-0.07000000000000006,-0.6,0.01110000000000011,-0.026120000000000032,0.026619999999999866,0.14500000000000002,-0.05500000000000005,0.78,-0.015859999999999985,0.018059999999999965,-0.0032999999999999696,1742256879.95848
0.21500000000000008,0.2250000000000001,-0.365,-0.03308,-0.1277999999999999,0.16602000000000006,0.1200000000000001,-0.040000000000000036,0.5350000000000001,-0.04174,0.08740000000000014,-0.06529999999999991,1742256880.078882
0.3700000000000001,0.3700000000000001,-0.17999999999999994,0.0638399999999999,0.012820000000000054,-0.053100000000000036,-0.0050000000000000044,-0.07499999999999996,0.4099999999999999,-0.0393,-0.037959999999999994,-0.029059999999999975,1742256880.185975
0.17999999999999994,0.21500000000000008,-0.385,-0.05908000000000002,0.14379999999999993,-0.13624000000000003,-0.025000000000000022,-0.06499999999999995,0.3500000000000001,0.001100000000000101,-0.03748000000000007,0.04492000000000007,1742256880.29908
0.17999999999999994,-0.025000000000000022,-0.55,-0.017340000000000022,0.006340000000000012,-0.026859999999999995,0.1100000000000001,-0.015000000000000013,0.7749999999999999,-0.00048000000000003595,0.0354000000000001,0.041140000000000176,1742256880.422722
0.17500000000000004,0.050000000000000044,-0.54,0.09948000000000001,-0.10777999999999999,0.020140000000000047,0.1100000000000001,-0.07499999999999996,0.6000000000000001,-0.04310000000000003,0.004999999999999893,0.018059999999999965,1742256880.527112
0.29000000000000004,0.23499999999999988,-0.28,0.08264000000000005,-0.09620000000000006,-0.019159999999999955,-0.04500000000000004,-0.06499999999999995,0.47,0.0043999999999999595,0.03233999999999981,0.02171999999999996,1742256880.641089
0.355,0.31000000000000005,-0.18500000000000005,0.09007999999999994,0.08044000000000007,-0.12512,-0.08499999999999996,-0.04500000000000004,0.43500000000000005,-0.007080000000000086,0.0578599999999998,0.054200000000000026,1742256880.759188
0.07499999999999996,-0.03500000000000003,-0.52,-0.04271999999999998,0.13183999999999996,-0.16649999999999998,0.07499999999999996,0.06499999999999995,0.3900000000000001,0.06567999999999996,-0.03479999999999994,-0.035640000000000005,1742256880.868114
0.17999999999999994,-0.030000000000000027,-0.53,-0.01636000000000004,-0.11327999999999994,0.08972000000000002,0.21999999999999997,-0.14500000000000002,0.5899999999999999,0.08251999999999993,-0.06713999999999998,-0.02307999999999999,1742256880.982128
0.45999999999999996,0.43999999999999995,-0.20999999999999996,0.09143999999999997,0.03283999999999998,-0.14501999999999993,0.014999999999999902,-0.09499999999999997,0.595,-0.009039999999999937,0.02198000000000011,0.06678000000000006,1742256881.0984588
0.30499999999999994,0.14000000000000012,-0.3400000000000001,0.06188000000000016,0.08421999999999996,-0.06665999999999994,-0.07000000000000006,-0.125,0.3799999999999999,-0.10108000000000006,-0.031000000000000028,0.07702000000000009,1742256881.218763
0.14000000000000012,0.07000000000000006,-0.485,-0.03820000000000001,0.08338000000000001,-0.03710000000000002,0.0,-0.050000000000000044,0.4849999999999999,-0.0050000000000000044,-0.0045199999999999685,0.009400000000000075,1742256881.324003
0.20999999999999996,0.03499999999999992,-0.49,-0.06298000000000004,-0.051019999999999954,0.10742000000000007,0.21999999999999997,-0.025000000000000022,0.4849999999999999,0.026000000000000023,-0.06640000000000001,-0.05041999999999991,1742256881.4387991
0.2549999999999999,0.2749999999999999,-0.35,-0.01660000000000006,-0.1277999999999999,0.13573999999999997,0.06000000000000005,-0.03500000000000003,0.4950000000000001,-0.045419999999999905,-0.0045199999999999685,0.021120000000000028,1742256881.559532
0.43500000000000005,0.29000000000000004,-0.17999999999999994,0.07166000000000006,0.021360000000000046,-0.054200000000000026,-0.07499999999999996,-0.030000000000000027,0.4650000000000001,-0.05249999999999999,0.02844000000000002,-0.00660000000000005,1742256881.665972
0.2549999999999999,0.18999999999999995,-0.33000000000000007,-0.10438000000000003,0.15124000000000004,-0.054320000000000035,0.010000000000000009,0.030000000000000027,0.365,0.016000000000000014,0.015619999999999967,0.01317999999999997,1742256881.7799869
0.1299999999999999,-0.010000000000000009,-0.58,0.06835999999999998,0.04908000000000001,-0.07752000000000003,0.07499999999999996,-0.010000000000000009,0.51,0.06018000000000012,-0.06701999999999997,-0.01990000000000003,1742256881.900865
0.19500000000000006,0.040000000000000036,-0.525,-0.0393,-0.10327999999999993,0.12768000000000002,0.16999999999999993,-0.025000000000000022,0.44500000000000006,0.020620000000000083,-0.05700000000000005,-0.008919999999999928,1742256882.008006
0.3500000000000001,0.28,-0.255,0.05371999999999999,-0.11914000000000002,0.10644000000000009,0.0,0.010000000000000009,0.5150000000000001,-0.0006199999999999539,0.05750000000000011,0.0,1742256882.1220129
0.345,0.32499999999999996,-0.235,0.06152000000000002,0.09227999999999992,-0.08263999999999994,-0.050000000000000044,-0.09499999999999997,0.41500000000000004,0.052119999999999944,0.013679999999999914,-0.018799999999999928,1742256882.238014
0.09000000000000008,0.030000000000000027,-0.48,-0.07752000000000003,0.18199999999999994,-0.12585999999999997,0.08000000000000007,0.0,0.42999999999999994,0.04370000000000007,-0.030399999999999983,-0.019540000000000002,1742256882.350004
0.1200000000000001,0.020000000000000018,-0.565,-0.02088000000000001,-0.04724000000000006,0.08020000000000005,0.26,-0.030000000000000027,0.41999999999999993,0.060799999999999965,-0.16601999999999995,-0.062019999999999964,1742256882.464028
0.2549999999999999,0.3700000000000001,-0.30000000000000004,0.02746000000000004,-0.16370000000000007,0.16381999999999985,0.06499999999999995,-0.050000000000000044,0.49,0.027099999999999902,0.07359999999999989,0.012320000000000109,1742256882.580266
0.32499999999999996,0.29499999999999993,-0.21499999999999997,0.04283999999999999,0.0611600000000001,-0.05786000000000002,-0.08499999999999996,-0.08999999999999997,0.395,0.04259999999999997,0.036739999999999995,0.0014600000000000168,1742256882.698833
0.15999999999999992,0.15500000000000003,-0.4099999999999999,-0.023440000000000016,0.14868000000000015,-0.11315999999999993,0.10499999999999998,-0.06499999999999995,0.5049999999999999,-0.0035399999999999876,-0.028940000000000077,0.006460000000000132,1742256882.804018
0.1100000000000001,0.020000000000000018,-0.57,-0.023799999999999932,-0.04174,0.04161999999999999,0.19999999999999996,-0.07499999999999996,0.5899999999999999,0.008179999999999854,-0.01990000000000003,0.005619999999999958,1742256882.92259
0.22999999999999998,0.29499999999999993,-0.32000000000000006,0.01097999999999999,-0.15600000000000003,0.1394000000000002,0.1100000000000001,-0.10499999999999998,0.51,-0.009519999999999973,0.03601999999999994,0.038819999999999855,1742256883.0398982
0.345,0.2549999999999999,-0.21999999999999997,0.051140000000000185,0.05274000000000001,-0.06677999999999995,-0.11499999999999999,-0.08499999999999996,0.41500000000000004,0.022460000000000147,0.01195999999999997,-0.024540000000000006,1742256883.1458418
0.18999999999999995,0.2749999999999999,-0.41500000000000004,-0.03967999999999994,0.14490000000000003,-0.12487999999999999,0.050000000000000044,-0.07000000000000006,0.41500000000000004,-0.021600000000000064,-0.02954000000000001,0.0013400000000001189,1742256883.260018
0.1100000000000001,-0.05500000000000005,-0.565,-0.02403999999999995,0.0030599999999998406,-0.02501999999999993,0.17999999999999994,-0.06499999999999995,0.615,0.006220000000000114,0.05726000000000009,-0.010259999999999936,1742256883.381488
0.28,0.2749999999999999,-0.32000000000000006,0.08349999999999991,-0.09887999999999997,0.03968000000000016,0.10000000000000009,-0.10499999999999998,0.5699999999999998,-0.01966000000000001,0.01990000000000003,0.021479999999999944,1742256883.4878662
0.375,0.2250000000000001,-0.255,0.030999999999999917,0.030019999999999936,-0.07496000000000003,-0.07499999999999996,-0.08499999999999996,0.375,-0.04467999999999994,0.08776000000000006,0.047599999999999865,1742256883.601884
0.2549999999999999,0.18500000000000005,-0.35,0.008419999999999872,0.12597999999999998,-0.14281999999999995,0.06000000000000005,0.0,0.43999999999999995,0.03222000000000014,0.023440000000000127,0.031500000000000083,1742256883.718557
0.1100000000000001,-0.06499999999999995,-0.575,-0.0047599999999999865,0.01868000000000003,-0.021120000000000028,0.18500000000000005,-0.08999999999999997,0.5899999999999999,0.04455999999999993,-0.05479999999999996,-0.02501999999999993,1742256883.8387158
0.1499999999999999,0.125,-0.485,-0.0034199999999999786,-0.20020000000000004,0.24609999999999999,0.15999999999999992,-0.07499999999999996,0.585,-0.024780000000000024,-0.0026799999999999047,0.030999999999999917,1742256883.944004
0.4849999999999999,0.32499999999999996,-0.16000000000000003,0.014520000000000088,0.02075999999999989,-0.055179999999999896,-0.07000000000000006,-0.08499999999999996,0.43999999999999995,-0.06934000000000007,0.025880000000000125,-0.04455999999999993,1742256884.058978
0.20500000000000007,0.17500000000000004,-0.31000000000000005,-0.06811999999999996,0.1423399999999999,-0.08520000000000005,-0.04500000000000004,-0.030000000000000027,0.3999999999999999,0.021479999999999944,-0.04064000000000001,0.0046399999999999775,1742256884.178933
0.08000000000000007,-0.07499999999999996,-0.61,-0.07531999999999994,0.06761999999999979,0.02404000000000006,0.1100000000000001,-0.08499999999999996,0.73,-0.00878000000000001,0.014899999999999913,-0.010499999999999954,1742256884.286
0.135,0.04499999999999993,-0.525,0.017819999999999947,-0.17652,0.20008000000000004,0.14500000000000002,-0.09499999999999997,0.625,-0.01770000000000005,0.020259999999999945,-0.005739999999999967,1742256884.4016268
0.375,0.3900000000000001,-0.09999999999999998,0.08496000000000015,-0.10974000000000006,0.009400000000000075,-0.07000000000000006,-0.07499999999999996,0.51,-0.05358000000000007,0.06872000000000011,-0.031000000000000028,1742256884.519147
0.27,0.16500000000000004,-0.33499999999999996,-0.041019999999999945,0.12657999999999991,-0.08204,-0.05500000000000005,-0.08999999999999997,0.33000000000000007,-0.0029199999999999227,0.0041599999999999415,0.035519999999999996,1742256884.6258812
0.1100000000000001,0.014999999999999902,-0.59,0.03442000000000012,0.04405999999999999,-0.0027999999999999137,0.08499999999999996,-0.020000000000000018,0.5,0.014399999999999968,-0.11914000000000002,-0.010000000000000009,1742256884.7397492
0.19999999999999996,0.09499999999999997,-0.54,0.06176000000000004,-0.12988,0.11670000000000003,0.16999999999999993,-0.10499999999999998,0.6200000000000001,-0.03625999999999996,0.037719999999999976,-0.010259999999999936,1742256884.859711
0.33000000000000007,0.2650000000000001,-0.29000000000000004,0.06433999999999984,-0.07544000000000006,-0.005859999999999976,-0.03500000000000003,-0.010000000000000009,0.52,-0.033440000000000025,0.05054000000000003,0.009160000000000057,1742256884.965896
0.30000000000000004,0.25,-0.255,0.025760000000000005,0.12609999999999988,-0.10327999999999993,-0.06000000000000005,-0.125,0.385,-0.0017000000000000348,-0.00660000000000005,0.026619999999999866,1742256885.079756
0.11499999999999999,-0.020000000000000018,-0.615,0.01110000000000011,0.18116,-0.16076000000000001,0.014999999999999902,-0.09499999999999997,0.44999999999999996,0.045420000000000016,-0.10021999999999998,-0.005979999999999985,1742256885.198522
0.14000000000000012,-0.010000000000000009,-0.585,-0.026980000000000004,-0.02624000000000004,0.043220000000000036,0.1499999999999999,-0.18999999999999995,0.675,0.044440000000000035,-0.06359999999999999,-0.04503999999999997,1742256885.307061
0.19999999999999996,0.1499999999999999,-0.51,0.04797999999999991,-0.1764,0.12829999999999986,0.050000000000000044,-0.07000000000000006,0.585,-0.034420000000000006,0.07788000000000017,0.031119999999999814,1742256885.4227588
0.3799999999999999,0.31499999999999995,-0.18999999999999995,0.04248000000000007,-0.022820000000000062,0.021479999999999944,-0.06000000000000005,-0.12,0.405,0.012320000000000109,0.06457999999999986,-0.03637999999999997,1742256885.538954
0.29000000000000004,0.26,-0.26,-0.018059999999999965,0.16602000000000006,-0.08374000000000004,0.02499999999999991,-0.07999999999999996,0.3799999999999999,0.04296000000000011,0.1423399999999999,0.005619999999999958,1742256885.657308
0.06499999999999995,0.05499999999999994,-0.57,0.013919999999999932,0.15710000000000002,-0.12487999999999999,0.1200000000000001,-0.10499999999999998,0.41999999999999993,0.047719999999999985,-0.1604,-0.02954000000000001,1742256885.762793
0.10000000000000009,0.08499999999999996,-0.565,0.007200000000000095,-0.16979999999999995,0.13868000000000014,0.19500000000000006,-0.15500000000000003,0.625,-0.013539999999999996,-0.01427999999999996,0.001100000000000101,1742256885.880527
0.32499999999999996,0.33000000000000007,-0.21499999999999997,0.0029200000000000337,-0.13196000000000008,0.0942400000000001,0.004999999999999893,-0.06499999999999995,0.51,-0.036739999999999995,0.10753999999999997,0.032480000000000064,1742256885.998919
0.30499999999999994,0.27,-0.235,0.05896000000000012,0.11681999999999992,-0.11839999999999995,-0.03500000000000003,-0.16500000000000004,0.375,0.02929999999999988,0.02198000000000011,0.027959999999999985,1742256886.1047838
0.05499999999999994,0.040000000000000036,-0.53,-0.007080000000000086,0.12451999999999996,-0.07763999999999993,0.050000000000000044,-0.17000000000000004,0.42500000000000004,0.04090000000000016,-0.12279999999999991,-0.02061999999999997,1742256886.218915
0.09000000000000008,0.06000000000000005,-0.58,0.006599999999999939,-0.05920000000000003,0.09289999999999998,0.21500000000000008,-0.19999999999999996,0.6000000000000001,0.020999999999999908,-0.059940000000000104,-0.045539999999999914,1742256886.338678
0.2549999999999999,0.3400000000000001,-0.365,0.02844000000000002,-0.15013999999999994,0.13134,0.11499999999999999,-0.12,0.4750000000000001,-0.010739999999999972,0.062140000000000084,0.022340000000000027,1742256886.446678
0.31499999999999995,0.30000000000000004,-0.25,0.03723999999999994,0.05018000000000011,-0.06640000000000001,-0.10999999999999999,-0.15500000000000003,0.375,0.03905999999999987,0.022460000000000147,-0.03088000000000002,1742256886.559649
0.18999999999999995,0.24,-0.4099999999999999,0.022820000000000062,0.13172000000000006,-0.14136000000000004,0.050000000000000044,-0.09999999999999998,0.45500000000000007,-0.038940000000000086,-0.011600000000000055,0.019279999999999964,1742256886.67824
0.03499999999999992,-0.0050000000000000044,-0.595,-0.008539999999999992,0.018320000000000114,-0.04822000000000004,0.19999999999999996,-0.22999999999999998,0.5800000000000001,0.03601999999999994,0.020620000000000083,0.0015800000000001369,1742256886.786894
0.09000000000000008,0.1100000000000001,-0.475,-0.032480000000000064,-0.17358000000000007,0.21043999999999996,0.21500000000000008,-0.16500000000000004,0.5350000000000001,-0.00660000000000005,0.011600000000000055,0.013679999999999914,1742256886.9014149
0.2250000000000001,0.20500000000000007,-0.365,-0.07787999999999995,-0.08287999999999995,0.08679999999999999,-0.040000000000000036,-0.06000000000000005,0.5,-0.009639999999999982,0.03917999999999999,-0.027100000000000013,1742257081.897218
0.3599999999999999,0.2650000000000001,-0.20499999999999996,-0.019039999999999946,-0.031379999999999963,-0.01537999999999995,-0.08499999999999996,-0.10999999999999999,0.41500000000000004,-0.015859999999999985,0.0032999999999998586,0.04944000000000015,1742257082.011297
0.23499999999999988,0.15500000000000003,-0.43999999999999995,-0.08508000000000004,0.08618000000000015,-0.09192,0.050000000000000044,-0.10999999999999999,0.4950000000000001,-0.03967999999999994,-0.11339999999999995,0.013419999999999987,1742257082.1256928
0.07499999999999996,-0.050000000000000044,-0.585,0.03942000000000001,0.0027999999999999137,-0.09533999999999998,0.14500000000000002,-0.09499999999999997,0.6000000000000001,-0.07996000000000003,0.02075999999999989,-0.0043999999999999595,1742257082.239071
0.15999999999999992,0.09499999999999997,-0.4,-0.017220000000000013,-0.10938000000000003,0.15355999999999992,-0.07000000000000006,-0.12,0.47,-0.08605999999999991,0.03869999999999996,-0.02210000000000001,1742257082.353204
0.3700000000000001,0.4099999999999999,-0.17999999999999994,-0.010000000000000009,-0.09058,0.047719999999999985,-0.06499999999999995,-0.05500000000000005,0.385,0.02198000000000011,0.03283999999999998,0.020259999999999945,1742257082.46715
0.21500000000000008,0.14000000000000012,-0.43999999999999995,-0.1593,0.04039999999999999,-0.029779999999999918,0.08499999999999996,-0.07499999999999996,0.41500000000000004,-0.022460000000000035,-0.0393,-0.01085999999999998,1742257082.580284
0.1200000000000001,0.0,-0.54,0.048960000000000115,-0.00770000000000004,-0.03260000000000007,0.18999999999999995,-0.08499999999999996,0.565,-0.04455999999999993,0.027579999999999938,-0.016240000000000032,1742257082.69404
0.21500000000000008,0.14500000000000002,-0.29499999999999993,0.024660000000000126,-0.10387999999999997,0.12524000000000002,-0.025000000000000022,-0.06000000000000005,0.45500000000000007,-0.06470000000000009,0.04920000000000013,-0.015499999999999958,1742257082.808193
0.355,0.3500000000000001,-0.22999999999999998,0.02185999999999999,-0.028679999999999928,0.01537999999999995,-0.06499999999999995,-0.06499999999999995,0.385,0.021239999999999926,0.019039999999999946,0.033440000000000136,1742257082.922027
0.2849999999999999,0.18999999999999995,-0.385,-0.11131999999999997,0.09167999999999998,-0.05810000000000004,0.135,-0.05500000000000005,0.675,0.010620000000000074,-0.03272000000000008,-0.017080000000000095,1742257083.036125
0.135,-0.03500000000000003,-0.51,0.04516000000000009,-0.020379999999999954,0.02171999999999996,0.16500000000000004,-0.11499999999999999,0.4750000000000001,-0.0027999999999999137,-0.02624000000000004,0.020019999999999927,1742257083.150134
0.19500000000000006,0.20999999999999996,-0.355,-0.035760000000000014,-0.06274000000000002,0.08531999999999984,-0.07499999999999996,-0.030000000000000027,0.43999999999999995,-0.09251999999999994,0.01953999999999989,0.00770000000000004,1742257083.266842
0.43999999999999995,0.32499999999999996,-0.21499999999999997,0.02611999999999992,0.020380000000000065,-0.04248000000000007,-0.12,-0.025000000000000022,0.3999999999999999,0.00550000000000006,-0.006960000000000077,0.014780000000000015,1742257083.378036
0.17999999999999994,0.135,-0.43999999999999995,-0.04613999999999996,0.08349999999999991,-0.10084000000000004,0.15999999999999992,-0.05500000000000005,0.7250000000000001,-0.047719999999999985,0.04479999999999995,0.01758000000000015,1742257083.492058
0.16999999999999993,0.010000000000000009,-0.44999999999999996,-0.002080000000000082,-0.015739999999999976,-0.02294000000000007,0.17999999999999994,0.010000000000000009,0.5449999999999999,-0.04503999999999997,0.020380000000000065,-0.020499999999999963,1742257083.6071749
0.30000000000000004,0.15500000000000003,-0.21499999999999997,0.011719999999999953,-0.08739999999999992,0.11182000000000003,-0.11499999999999999,-0.07999999999999996,0.42500000000000004,-0.049679999999999946,0.07128000000000001,-0.015499999999999958,1742257083.720256
0.43500000000000005,0.42999999999999994,-0.07499999999999996,0.01746000000000003,0.005619999999999958,0.006839999999999957,-0.06499999999999995,-0.030000000000000027,0.375,0.052119999999999944,0.012700000000000156,-0.0042799999999999505,1742257083.834151
0.21999999999999997,0.11499999999999999,-0.395,-0.05920000000000003,0.059940000000000104,-0.05589999999999995,0.15999999999999992,-0.06000000000000005,0.665,-0.04834000000000005,-0.03186,-0.014399999999999968,1742257083.948124
0.15999999999999992,-0.04500000000000004,-0.495,-0.020019999999999927,-0.007200000000000095,0.01305999999999985,0.19500000000000006,-0.020000000000000018,0.55,-0.049679999999999946,0.0343,-0.0026799999999999047,1742257084.062591
0.2549999999999999,0.14500000000000002,-0.4,0.04833999999999983,-0.06434000000000006,0.0920399999999999,-0.040000000000000036,-0.07999999999999996,0.4650000000000001,-0.05479999999999996,0.07225999999999999,-0.016960000000000086,1742257084.1761432
0.41999999999999993,0.4849999999999999,-0.08499999999999996,0.04479999999999995,-0.057499999999999996,0.02185999999999999,-0.015000000000000013,-0.04500000000000004,0.33000000000000007,0.013539999999999885,0.07225999999999999,0.041020000000000056,1742257084.289972
0.20500000000000007,0.15500000000000003,-0.4099999999999999,-0.01427999999999996,0.12304000000000004,-0.12390000000000001,0.24,-0.12,0.75,-0.02513999999999994,0.053220000000000045,0.0014600000000000168,1742257084.403978
0.17999999999999994,-0.0050000000000000044,-0.47,-0.017080000000000095,-0.019540000000000002,0.012460000000000138,0.18999999999999995,0.0,0.5,-0.06579999999999997,0.006720000000000059,0.0035399999999998766,1742257084.517979
0.27,0.2549999999999999,-0.32000000000000006,-0.006220000000000003,-0.04527999999999999,0.12256,-0.03500000000000003,-0.125,0.4099999999999999,-0.06005999999999989,0.06494,-0.020019999999999927,1742257084.6321468
0.43999999999999995,0.365,-0.16000000000000003,0.04833999999999983,0.02966000000000002,-0.06420000000000003,-0.03500000000000003,-0.025000000000000022,0.33000000000000007,0.030160000000000187,-0.023440000000000016,0.031239999999999934,1742257084.748244
0.18500000000000005,0.125,-0.41500000000000004,-0.02185999999999999,0.10596000000000005,-0.08886000000000005,0.26,-0.08999999999999997,0.615,0.026739999999999986,-0.03260000000000007,-0.036619999999999986,1742257084.860071
0.15500000000000003,-0.025000000000000022,-0.555,-0.03308,-0.016240000000000032,0.05797999999999992,0.15999999999999992,-0.03500000000000003,0.5350000000000001,-0.016000000000000014,-0.00036000000000002697,-0.012319999999999998,1742257084.974288
0.21999999999999997,0.19500000000000006,-0.45999999999999996,0.04468000000000005,-0.05003999999999997,0.09826000000000001,-0.06000000000000005,-0.15000000000000002,0.41999999999999993,-0.005979999999999985,0.04259999999999997,0.012939999999999952,1742257085.088308
0.405,0.28,-0.20999999999999996,0.0623800000000001,0.06433999999999984,-0.11485999999999996,0.0,-0.05500000000000005,0.345,-0.02525999999999995,-0.11291999999999991,0.04516000000000009,1742257085.2082
0.14500000000000002,0.08000000000000007,-0.545,-0.10596000000000005,0.1165799999999999,-0.06518000000000002,0.2749999999999999,0.0,0.5249999999999999,-0.0017000000000000348,0.04248000000000007,0.021360000000000046,1742257085.3160808
0.16999999999999993,0.030000000000000027,-0.535,-0.028320000000000012,-0.05506,0.03649999999999998,-0.020000000000000018,-0.10499999999999998,0.5800000000000001,0.05750000000000011,-0.006840000000000068,0.021239999999999926,1742257085.431159
0.405,0.25,-0.235,0.14793999999999996,0.014520000000000088,-0.1521,-0.12,-0.125,0.385,-0.07910000000000006,-0.007940000000000058,0.08055999999999996,1742257085.5488892
0.29499999999999993,0.1499999999999999,-0.30000000000000004,0.08007999999999993,0.03370000000000006,-0.05358000000000007,0.030000000000000027,-0.050000000000000044,0.45500000000000007,0.00865999999999989,0.0023200000000000998,-0.00012000000000000899,1742257085.657946
0.1200000000000001,0.08499999999999996,-0.54,-0.06640000000000001,0.08861999999999992,-0.03588000000000002,0.2549999999999999,-0.07999999999999996,0.5699999999999998,-0.017340000000000022,-0.022700000000000053,-0.0036599999999999966,1742257085.7723122
0.20500000000000007,0.10499999999999998,-0.515,-0.08020000000000005,-0.125,0.1751800000000001,0.04499999999999993,0.010000000000000009,0.45999999999999996,-0.03724000000000005,0.031380000000000186,0.017819999999999947,1742257085.8904011
0.31499999999999995,0.19500000000000006,-0.38,-0.011240000000000028,-0.08008000000000004,0.09935999999999989,-0.13,-0.050000000000000044,0.4099999999999999,0.02391999999999994,0.0027999999999999137,0.013539999999999885,1742257086.0000389
0.355,0.2250000000000001,-0.27,0.00770000000000004,0.08606000000000003,-0.06103999999999998,0.05499999999999994,0.040000000000000036,0.54,0.0046399999999999775,0.04968000000000017,0.02293999999999996,1742257086.113864
0.1200000000000001,-0.040000000000000036,-0.45999999999999996,-0.07508000000000004,0.08275999999999994,-0.040159999999999973,0.2250000000000001,-0.015000000000000013,0.605,0.007079999999999975,-0.023440000000000016,-0.03808,1742257086.229057
0.25,0.16999999999999993,-0.42999999999999994,-0.014639999999999986,-0.05553999999999992,0.10253999999999985,0.08499999999999996,0.014999999999999902,0.4099999999999999,-0.02403999999999995,0.02635999999999994,0.01415999999999995,1742257086.3482912
0.3700000000000001,0.27,-0.265,-0.029059999999999975,-0.04858000000000007,0.06274000000000002,-0.14,-0.040000000000000036,0.44500000000000006,0.05566000000000004,-0.0043999999999999595,0.016599999999999948,1742257086.4574249
0.2650000000000001,0.22999999999999998,-0.33000000000000007,-0.0050000000000000044,0.10230000000000006,-0.05834000000000006,0.1100000000000001,0.05499999999999994,0.30000000000000004,0.06640000000000001,-0.08496000000000004,-0.02966000000000002,1742257086.569997
0.14000000000000012,-0.07499999999999996,-0.62,0.03394000000000008,0.043460000000000054,-0.06591999999999998,0.19500000000000006,-0.03500000000000003,0.5550000000000002,-0.029059999999999975,-0.062019999999999964,-0.03272000000000008,1742257086.68898
0.21500000000000008,0.16500000000000004,-0.44500000000000006,0.013299999999999867,-0.09423999999999999,0.07764000000000015,-0.07499999999999996,-0.05500000000000005,0.4650000000000001,-0.02294000000000007,0.05235999999999996,-0.00878000000000001,1742257086.798165
0.395,0.3500000000000001,-0.135,0.06054000000000004,-0.02624000000000004,-0.006220000000000003,-0.06499999999999995,-0.06000000000000005,0.3900000000000001,-0.0014600000000000168,0.043099999999999916,0.031119999999999814,1742257086.912153
0.20500000000000007,0.19500000000000006,-0.385,-0.0700599999999999,0.10631999999999997,-0.06041999999999992,0.19999999999999996,-0.015000000000000013,0.71,0.011840000000000073,-0.007320000000000104,-0.023559999999999914,1742257087.028814
0.18500000000000005,-0.015000000000000013,-0.55,0.03929999999999989,-0.020379999999999954,0.0040199999999999125,0.14500000000000002,-0.05500000000000005,0.55,-0.03320000000000001,0.0041599999999999415,-0.012820000000000054,1742257087.140118
0.28,0.2250000000000001,-0.53,0.014399999999999968,-0.08435999999999999,0.06884000000000001,-0.08999999999999997,-0.12,0.3700000000000001,0.010499999999999954,0.07543999999999995,0.00537999999999994,1742257087.253967
0.3500000000000001,0.25,-0.22999999999999998,0.024900000000000144,0.01855999999999991,-0.01978000000000002,0.040000000000000036,-0.030000000000000027,0.31499999999999995,0.04283999999999999,-0.06128,-0.01855999999999991,1742257087.37194
0.17500000000000004,0.06000000000000005,-0.56,-0.056640000000000024,0.10742000000000007,-0.03834000000000004,0.2650000000000001,-0.05500000000000005,0.6099999999999999,0.01635999999999993,0.013679999999999914,-0.018059999999999965,1742257087.485883
0.20999999999999996,0.125,-0.52,-0.03736000000000006,-0.0858199999999999,0.10033999999999987,0.050000000000000044,-0.06000000000000005,0.48,0.018920000000000048,0.05383999999999989,-0.0032999999999999696,1742257087.5960472
0.3500000000000001,0.30000000000000004,-0.2849999999999999,0.04932000000000003,-0.07689999999999997,0.059819999999999984,-0.06000000000000005,-0.125,0.3700000000000001,0.015020000000000033,0.010620000000000074,0.01195999999999997,1742257087.7099671
0.32499999999999996,0.25,-0.29499999999999993,-0.013919999999999932,0.12890000000000001,-0.08641999999999994,0.07499999999999996,-0.09499999999999997,0.5550000000000002,0.026980000000000004,-0.07177999999999995,-0.015020000000000033,1742257087.8292422
0.135,0.030000000000000027,-0.59,0.06176000000000004,0.06225999999999998,-0.10815999999999992,0.22999999999999998,-0.15000000000000002,0.5049999999999999,0.047599999999999865,-0.03210000000000002,-0.032480000000000064,1742257087.9380732
0.125,0.07000000000000006,-0.665,-0.08838000000000001,-0.07128000000000001,0.1394000000000002,0.06000000000000005,-0.08999999999999997,0.55,0.11865999999999999,0.14270000000000005,-0.03649999999999998,1742257088.052076
0.375,0.2549999999999999,-0.22499999999999998,0.14978000000000002,-0.059700000000000086,-0.10205999999999993,-0.010000000000000009,-0.21999999999999997,0.29499999999999993,-0.11791999999999991,0.048960000000000115,0.06982,1742257088.169533
0.1499999999999999,0.19500000000000006,-0.365,0.05884,0.09777999999999998,-0.09374000000000005,0.11499999999999999,-0.22499999999999998,0.4650000000000001,0.0012199999999999989,-0.10926000000000002,0.005859999999999976,1742257088.2800572
0.16999999999999993,0.09000000000000008,-0.485,-0.12768000000000002,0.10474000000000006,0.022820000000000062,0.17500000000000004,-0.07499999999999996,0.6299999999999999,-0.09875999999999996,-0.009399999999999964,-0.005240000000000022,1742257088.394175
0.19500000000000006,0.08000000000000007,-0.485,0.03527999999999998,-0.16052,0.13549999999999995,0.02499999999999991,-0.04500000000000004,0.44999999999999996,-0.028200000000000003,0.035640000000000116,0.01305999999999985,1742257088.5105112
0.31499999999999995,0.365,-0.22999999999999998,-0.034420000000000006,-0.08435999999999999,0.06946000000000008,-0.06499999999999995,-0.19500000000000006,0.375,0.051140000000000185,0.01966000000000001,0.051020000000000065,1742257088.628044
0.29000000000000004,0.24,-0.26,-0.03736000000000006,0.13050000000000006,-0.07374000000000003,0.07499999999999996,0.014999999999999902,0.5800000000000001,0.04735999999999985,-0.0041599999999999415,0.03272000000000008,1742257088.735769
0.08000000000000007,0.0,-0.6,-0.027700000000000058,0.07347999999999999,-0.045419999999999905,0.16999999999999993,-0.07499999999999996,0.595,0.01868000000000003,-0.039919999999999956,-0.03588000000000002,1742257088.8498602
0.23499999999999988,0.18500000000000005,-0.365,-0.016240000000000032,-0.11291999999999991,0.08142000000000005,0.050000000000000044,-0.08999999999999997,0.45500000000000007,-0.026000000000000023,0.09143999999999997,-0.02624000000000004,1742257088.969739
0.29499999999999993,0.2549999999999999,-0.32000000000000006,0.01305999999999985,-0.06347999999999998,0.03992000000000018,-0.020000000000000018,-0.15000000000000002,0.42500000000000004,0.006340000000000012,0.0027999999999999137,0.03917999999999999,1742257089.076959
0.28,0.22999999999999998,-0.33499999999999996,-0.0009799999999999809,0.11755999999999989,-0.08665999999999996,0.09499999999999997,-0.08999999999999997,0.5,0.036619999999999875,-0.09692,0.009400000000000075,1742257089.190968
0.1200000000000001,0.010000000000000009,-0.59,0.019279999999999964,0.05932000000000004,-0.04370000000000007,0.125,-0.08499999999999996,0.575,-0.02210000000000001,-0.02185999999999999,-0.006460000000000021,1742257089.309634
0.21500000000000008,0.15999999999999992,-0.44500000000000006,-0.0013400000000000079,-0.09620000000000006,0.08031999999999995,0.040000000000000036,-0.05500000000000005,0.44500000000000006,-0.03394000000000008,0.058720000000000105,-0.008059999999999956,1742257089.419002
0.33000000000000007,0.26,-0.29499999999999993,-0.0023200000000000998,-0.08362000000000003,0.06140000000000012,-0.06499999999999995,-0.14500000000000002,0.3900000000000001,-0.00012000000000000899,-0.011099999999999999,0.014899999999999913,1742257089.533223
0.26,0.23499999999999988,-0.345,-0.055179999999999896,0.11352000000000007,-0.06396000000000002,0.050000000000000044,-0.06000000000000005,0.53,0.018320000000000114,-0.06396000000000002,0.005239999999999911,1742257089.65013
0.16999999999999993,-0.050000000000000044,-0.63,0.08311999999999986,-0.014900000000000024,-0.014780000000000015,0.15999999999999992,-0.10999999999999999,0.615,-0.014039999999999941,-0.021600000000000064,-0.016240000000000032,1742257089.761132
0.20999999999999996,0.14500000000000002,-0.43500000000000005,-0.008919999999999928,-0.13636000000000004,0.12134,0.09000000000000008,-0.11499999999999999,0.42500000000000004,0.009039999999999937,0.037839999999999874,0.0013400000000001189,1742257089.874799
0.30499999999999994,0.27,-0.32499999999999996,0.06824000000000008,-0.06384000000000001,-0.012460000000000027,-0.07000000000000006,-0.09499999999999997,0.405,0.0048799999999999955,-0.00770000000000004,0.021479999999999944,1742257089.990229
0.2250000000000001,0.20500000000000007,-0.405,-0.0018400000000000638,0.1469800000000001,-0.10827999999999993,0.04499999999999993,-0.14500000000000002,0.565,0.05761999999999978,-0.04736000000000007,0.0025599999999998957,1742257090.109805
0.1499999999999999,0.05499999999999994,-0.55,0.031239999999999934,0.05809999999999982,-0.08068000000000008,0.18500000000000005,-0.12,0.54,0.010499999999999954,-0.07044000000000006,-0.011240000000000028,1742257090.216044
0.15999999999999992,0.1200000000000001,-0.53,0.02746000000000004,-0.07701999999999998,0.013919999999999932,0.040000000000000036,-0.07999999999999996,0.4650000000000001,-0.0037800000000000056,0.041140000000000176,0.030160000000000187,1742257090.330344
0.33000000000000007,0.2849999999999999,-0.29499999999999993,0.06030000000000002,-0.09986000000000006,0.028079999999999883,-0.07000000000000006,-0.14500000000000002,0.355,0.017940000000000067,0.0026800000000000157,0.046499999999999986,1742257090.449785
0.32000000000000006,0.26,-0.27,0.06994000000000011,0.14954,-0.13196000000000008,0.020000000000000018,-0.04500000000000004,0.6400000000000001,0.06457999999999986,-0.06311999999999995,0.022820000000000062,1742257090.557955
0.125,-0.0050000000000000044,-0.475,-0.0014600000000000168,0.06690000000000018,-0.07264000000000004,0.14500000000000002,-0.06000000000000005,0.575,0.01770000000000005,-0.00988,0.005120000000000013,1742257090.67195
0.15999999999999992,0.08499999999999996,-0.485,-0.09704000000000002,-0.11375999999999997,0.14318000000000008,-0.0050000000000000044,-0.06499999999999995,0.5699999999999998,0.013419999999999987,0.060920000000000085,0.03259999999999996,1742257090.7895172
0.28,0.21999999999999997,-0.28,0.03186,-0.10803999999999991,0.059819999999999984,-0.05500000000000005,-0.09499999999999997,0.3500000000000001,0.006220000000000114,0.04188000000000014,0.01305999999999985,1742257090.90006
0.31000000000000005,0.345,-0.16500000000000004,-0.12315999999999994,0.12548000000000004,-0.04858000000000007,0.030000000000000027,-0.03500000000000003,0.395,-0.03355999999999992,-0.10596000000000005,-0.006460000000000021,1742257091.014082
0.09499999999999997,-0.18500000000000005,-0.615,0.05761999999999978,0.028200000000000003,-0.08311999999999997,0.14500000000000002,-0.06000000000000005,0.6099999999999999,-0.01537999999999995,-0.042240000000000055,0.007940000000000058,1742257091.129838
0.22999999999999998,0.08499999999999996,-0.4650000000000001,0.01953999999999989,-0.1372000000000001,0.13904000000000005,0.0,-0.040000000000000036,0.45999999999999996,-0.001960000000000073,0.06396000000000002,-0.015619999999999967,1742257091.24564
0.365,0.395,-0.09499999999999997,-0.007080000000000086,-0.040039999999999965,0.023560000000000025,-0.0050000000000000044,-0.07999999999999996,0.3599999999999999,0.0023200000000000998,-0.016240000000000032,-0.0043999999999999595,1742257091.35619
0.29000000000000004,0.15999999999999992,-0.375,-0.04625999999999997,0.13659999999999983,-0.07458000000000009,0.05499999999999994,-0.07000000000000006,0.48,0.034660000000000135,-0.053100000000000036,-0.010619999999999963,1742257091.471558
0.16500000000000004,0.014999999999999902,-0.58,-0.050779999999999936,0.018799999999999928,0.02733999999999992,0.15999999999999992,-0.08999999999999997,0.5449999999999999,0.023560000000000025,0.0029200000000000337,-0.031120000000000037,1742257091.590753
0.19999999999999996,0.135,-0.5,-0.014519999999999977,-0.17798000000000003,0.14832,0.020000000000000018,-0.020000000000000018,0.43999999999999995,-0.0008599999999999719,0.04051999999999989,-0.055299999999999905,1742257091.6981409
0.345,0.23499999999999988,-0.275,-0.025399999999999978,-0.005120000000000013,0.021360000000000046,0.02499999999999991,-0.03500000000000003,0.3999999999999999,-0.23596000000000006,-0.005739999999999967,0.013299999999999867,1742257091.812047
0.3400000000000001,0.23499999999999988,-0.22999999999999998,0.06225999999999998,0.08740000000000014,-0.09692,0.06000000000000005,-0.025000000000000022,0.5150000000000001,-0.029899999999999927,-0.09644000000000008,0.021479999999999944,1742257091.933284
0.1499999999999999,0.06499999999999995,-0.595,0.026859999999999884,0.011239999999999917,-0.026859999999999995,0.1200000000000001,-0.010000000000000009,0.56,-0.035760000000000014,0.010620000000000074,-0.04125999999999996,1742257092.04021
0.2749999999999999,0.21999999999999997,-0.31499999999999995,-0.0025599999999998957,-0.11120000000000008,0.11229999999999984,0.0,-0.015000000000000013,0.44500000000000006,-0.04810000000000003,0.04723999999999995,-0.03370000000000006,1742257092.154049
0.3599999999999999,0.345,-0.11499999999999999,-0.03834000000000004,-0.03882000000000008,0.07006000000000001,-0.015000000000000013,-0.11499999999999999,0.3799999999999999,0.0,0.031239999999999934,0.013919999999999932,1742257092.271273
0.30499999999999994,0.25,-0.22999999999999998,-0.052240000000000064,0.15136000000000016,-0.08960000000000001,0.05499999999999994,0.08499999999999996,0.6499999999999999,0.07678000000000007,0.031380000000000186,0.04272000000000009,1742257092.3818371
0.14000000000000012,0.0,-0.575,-0.030399999999999983,0.016119999999999912,-0.005619999999999958,0.125,-0.015000000000000013,0.6099999999999999,0.01990000000000003,-0.005859999999999976,-0.030279999999999974,1742257092.4960508
0.20500000000000007,0.15500000000000003,-0.43500000000000005,-0.015020000000000033,-0.11474000000000006,0.10376000000000007,0.030000000000000027,-0.06499999999999995,0.47,-0.05700000000000005,0.08349999999999991,-0.01978000000000002,1742257092.611092
0.3599999999999999,0.355,-0.17000000000000004,0.00770000000000004,-0.04382000000000008,0.04723999999999995,-0.015000000000000013,-0.11499999999999999,0.33499999999999996,0.014780000000000015,0.006460000000000132,-0.0008599999999999719,1742257092.7309
0.30499999999999994,0.23499999999999988,-0.22999999999999998,-0.0008599999999999719,0.13061999999999996,-0.10668000000000011,0.08499999999999996,0.010000000000000009,0.55,0.048699999999999966,-0.06408000000000003,0.029779999999999918,1742257092.83773
0.1499999999999999,0.030000000000000027,-0.535,-0.037959999999999994,0.0650599999999999,-0.013299999999999979,0.1200000000000001,-0.010000000000000009,0.6099999999999999,-0.0029199999999999227,-0.008299999999999974,-0.007440000000000002,1742257092.951028
0.21500000000000008,0.15500000000000003,-0.41500000000000004,0.007560000000000011,-0.0907,0.08227999999999991,0.08000000000000007,-0.010000000000000009,0.4950000000000001,-0.027100000000000013,0.10705999999999993,-0.006340000000000012,1742257093.071332
0.375,0.42500000000000004,0.010000000000000009,0.03723999999999994,-0.05958000000000008,0.03747999999999996,-0.0050000000000000044,-0.16000000000000003,0.3599999999999999,0.016119999999999912,0.014040000000000052,0.0042800000000000615,1742257093.178949
0.2549999999999999,0.21500000000000008,-0.25,-0.036619999999999986,0.12573999999999996,-0.08094000000000001,0.125,0.06499999999999995,0.7050000000000001,0.06103999999999998,-0.005240000000000022,0.018179999999999863,1742257093.292743
0.125,-0.040000000000000036,-0.555,-0.031379999999999963,0.031500000000000083,-0.02088000000000001,0.125,-0.020000000000000018,0.605,-0.01636000000000004,-0.02294000000000007,-0.006340000000000012,1742257093.4144158
0.19999999999999996,0.20999999999999996,-0.42999999999999994,0.022820000000000062,-0.11524000000000001,0.07835999999999999,0.030000000000000027,-0.09999999999999998,0.45999999999999996,-0.016840000000000077,0.08496000000000015,-0.007320000000000104,1742257093.519996
0.43500000000000005,0.3700000000000001,-0.11499999999999999,0.00878000000000001,-0.016720000000000068,-0.014399999999999968,0.010000000000000009,-0.135,0.30499999999999994,0.022580000000000044,-0.019279999999999964,0.011600000000000055,1742257093.633871
0.23499999999999988,0.21500000000000008,-0.345,-0.07862000000000002,0.15052,-0.06347999999999998,0.125,-0.125,0.3999999999999999,0.01977999999999991,-0.12902000000000002,0.0008600000000000829,1742257093.75081
0.125,0.03499999999999992,-0.625,0.0035399999999998766,0.030399999999999983,-0.026000000000000023,0.14000000000000012,-0.06000000000000005,0.6099999999999999,-0.005859999999999976,0.020019999999999927,-0.029179999999999984,1742257093.861989
0.19500000000000006,0.19999999999999996,-0.355,0.01977999999999991,-0.16076000000000001,0.09888000000000008,0.06000000000000005,-0.09499999999999997,0.4099999999999999,-0.04382000000000008,0.05553999999999992,-0.01867999999999992,1742257093.975991
0.4099999999999999,0.395,-0.16000000000000003,0.03685999999999989,-0.0026799999999999047,-0.048960000000000004,0.0,-0.08499999999999996,0.29000000000000004,0.018059999999999965,-0.05908000000000002,0.04090000000000016,1742257094.091555
0.21500000000000008,0.15500000000000003,-0.38,-0.09974000000000005,0.16527999999999987,-0.05164000000000002,0.1100000000000001,-0.030000000000000027,0.355,0.06347999999999998,-0.09875999999999996,0.019279999999999964,1742257094.2112582
0.16999999999999993,0.03499999999999992,-0.56,-0.07787999999999995,0.024540000000000006,0.05333999999999994,0.1100000000000001,0.020000000000000018,0.71,-0.010000000000000009,0.03064,-0.03917999999999999,1742257094.317892
0.20999999999999996,0.14000000000000012,-0.485,0.02611999999999992,-0.18238,0.13853999999999989,-0.06000000000000005,-0.15000000000000002,0.43999999999999995,-0.013799999999999923,0.04468000000000005,-0.07213999999999998,1742257094.434722
0.345,0.2849999999999999,-0.16500000000000004,0.02171999999999996,0.05054000000000003,-0.04382000000000008,0.030000000000000027,-0.07000000000000006,0.32499999999999996,0.020999999999999908,-0.08874000000000004,0.03735999999999984,1742257094.551405
0.17500000000000004,0.18500000000000005,-0.375,-0.04467999999999994,0.17724000000000006,-0.13061999999999996,0.11499999999999999,-0.020000000000000018,0.75,0.019160000000000066,-0.09948000000000001,-0.0023200000000000998,1742257094.6600268
0.21999999999999997,0.030000000000000027,-0.56,0.03492000000000006,-0.031240000000000046,0.010259999999999936,0.1100000000000001,-0.05500000000000005,0.5350000000000001,-0.036739999999999995,0.04188000000000014,-0.012820000000000054,1742257094.773979
0.2450000000000001,0.23499999999999988,-0.4,0.027579999999999938,-0.09631999999999996,0.06922000000000006,-0.0050000000000000044,-0.10499999999999998,0.405,-0.03736000000000006,0.04614000000000007,-0.00988,1742257094.8933198
0.405,0.3799999999999999,-0.15500000000000003,0.08190000000000008,0.012199999999999989,-0.08189999999999997,-0.015000000000000013,-0.05500000000000005,0.33000000000000007,0.018440000000000012,-0.023320000000000007,0.04051999999999989,1742257095.002761
0.16500000000000004,0.15999999999999992,-0.355,-0.1322000000000001,0.15344000000000002,-0.08251999999999993,0.135,-0.06000000000000005,0.5699999999999998,0.008179999999999854,-0.17700000000000005,-0.026000000000000023,1742257095.116024
0.20999999999999996,0.010000000000000009,-0.585,0.06542000000000003,-0.025399999999999978,-0.013679999999999914,0.1200000000000001,-0.07499999999999996,0.54,-0.050899999999999945,0.014040000000000052,-0.0122000000000001,1742257095.231568
0.21500000000000008,0.26,-0.37,-0.06713999999999998,-0.11375999999999997,0.11548000000000003,-0.040000000000000036,-0.07000000000000006,0.42999999999999994,-0.02501999999999993,0.08349999999999991,-0.0037800000000000056,1742257095.352445
0.4099999999999999,0.3700000000000001,-0.14,0.06651999999999991,-0.012319999999999998,-0.04077999999999993,-0.0050000000000000044,-0.06000000000000005,0.30000000000000004,0.022580000000000044,-0.02403999999999995,0.01746000000000003,1742257095.458122
0.20500000000000007,0.16500000000000004,-0.3400000000000001,-0.13573999999999997,0.14466,-0.05249999999999999,0.1299999999999999,-0.050000000000000044,0.645,0.02404000000000006,-0.12573999999999996,-0.04027999999999998,1742257095.572031
0.21500000000000008,-0.010000000000000009,-0.585,0.01966000000000001,-0.028940000000000077,0.04394000000000009,0.10499999999999998,-0.07499999999999996,0.585,-0.06408000000000003,0.035760000000000014,-0.010379999999999945,1742257095.690989
0.19500000000000006,0.31000000000000005,-0.265,-0.01966000000000001,-0.10644000000000009,0.08972000000000002,0.004999999999999893,-0.040000000000000036,0.405,-0.052240000000000064,0.07496000000000014,-0.029299999999999993,1742257095.800093
0.395,0.32000000000000006,-0.15500000000000003,0.016599999999999948,-0.014900000000000024,0.0031799999999999606,-0.0050000000000000044,-0.07000000000000006,0.32499999999999996,0.0295399999999999,-0.029299999999999993,0.005859999999999976,1742257095.9141738
0.22999999999999998,0.14500000000000002,-0.3400000000000001,-0.1604,0.13513999999999982,-0.00770000000000004,0.1299999999999999,-0.050000000000000044,0.75,0.009519999999999973,-0.13696000000000008,-0.011360000000000037,1742257096.031628
0.17500000000000004,0.07000000000000006,-0.625,0.09948000000000001,-0.005859999999999976,-0.05577999999999994,0.14500000000000002,-0.07000000000000006,0.595,-0.05615999999999999,0.06225999999999998,-0.01855999999999991,1742257096.1504571
0.30499999999999994,0.355,-0.14500000000000002,-0.050899999999999945,-0.12208000000000008,0.09179999999999988,0.0,-0.12,0.3999999999999999,-0.02391999999999994,0.08349999999999991,-0.009759999999999991,1742257096.256007
0.43999999999999995,0.3999999999999999,-0.07999999999999996,0.06433999999999984,-0.0006199999999999539,-0.04908000000000001,0.040000000000000036,-0.06000000000000005,0.30000000000000004,0.0025599999999998957,-0.06481999999999999,0.037719999999999976,1742257096.372318
0.19500000000000006,0.15999999999999992,-0.365,-0.09558,0.14050000000000007,-0.05235999999999996,0.125,-0.03500000000000003,0.51,-0.012580000000000036,-0.15772000000000008,-0.0041599999999999415,1742257096.491889
0.24,0.020000000000000018,-0.565,-0.00036000000000002697,-0.06005999999999989,0.07214000000000009,0.1100000000000001,-0.015000000000000013,0.56,-0.0343,0.043099999999999916,-0.024899999999999922,1742257096.597945
0.27,0.25,-0.38,0.008299999999999974,-0.14379999999999993,0.11865999999999999,0.014999999999999902,-0.040000000000000036,0.41999999999999993,-0.11241999999999996,0.08911999999999987,-0.03870000000000007,1742257096.711925
0.345,0.3400000000000001,-0.19999999999999996,0.03685999999999989,0.0017000000000000348,-0.01097999999999999,0.02499999999999991,-0.09999999999999998,0.30499999999999994,0.0047600000000000975,-0.05712000000000006,0.0035399999999998766,1742257096.8310678
0.2450000000000001,0.19500000000000006,-0.355,-0.06446000000000007,0.1520999999999999,-0.07922000000000007,0.09499999999999997,0.004999999999999893,0.675,0.027220000000000022,-0.019039999999999946,0.02526000000000006,1742257096.939714
0.21500000000000008,0.06499999999999995,-0.57,-0.006720000000000059,-0.011840000000000073,0.0027999999999999137,0.135,-0.09499999999999997,0.615,-0.021120000000000028,-0.0018400000000000638,-0.0042799999999999505,1742257097.0540211
0.2650000000000001,0.16999999999999993,-0.30499999999999994,-0.03272000000000008,-0.14246000000000003,0.08679999999999999,0.04499999999999993,-0.020000000000000018,0.42500000000000004,-0.018320000000000003,0.06957999999999998,-0.008419999999999983,1742257097.171114
0.42500000000000004,0.43999999999999995,-0.040000000000000036,0.03747999999999996,-0.01990000000000003,-0.01317999999999997,-0.025000000000000022,-0.09999999999999998,0.2549999999999999,0.01868000000000003,-0.017940000000000067,0.0036599999999999966,1742257097.2910988
0.23499999999999988,0.14500000000000002,-0.22999999999999998,0.03186,0.18321999999999994,-0.09974000000000005,0.09499999999999997,0.040000000000000036,0.74,0.18676000000000004,0.023800000000000043,-0.0008599999999999719,1742257097.395925
0.21999999999999997,0.050000000000000044,-0.515,-0.08153999999999995,0.0015800000000001369,0.05944000000000016,0.1299999999999999,-0.05500000000000005,0.6200000000000001,-0.02942,-0.006460000000000021,-0.038940000000000086,1742257097.511892
0.2250000000000001,0.19500000000000006,-0.43500000000000005,-0.03710000000000002,-0.14868000000000003,0.1038800000000002,0.05499999999999994,-0.025000000000000022,0.42999999999999994,-0.04039999999999999,0.12657999999999991,-0.03736000000000006,1742257097.630852
0.385,0.395,-0.14,0.02526000000000006,-0.01525999999999994,-0.008539999999999992,0.020000000000000018,-0.13,0.27,0.02429999999999999,-0.030279999999999974,0.03614000000000006,1742257097.7380118
0.2250000000000001,0.15500000000000003,-0.245,-0.03417999999999999,0.19921999999999995,-0.10596000000000005,0.1100000000000001,0.10000000000000009,0.8050000000000002,0.15466000000000002,0.09570000000000012,0.016000000000000014,1742257097.851838
0.23499999999999988,0.02499999999999991,-0.44500000000000006,-0.07323999999999997,0.03968000000000016,-0.006099999999999994,0.17999999999999994,-0.03500000000000003,0.6200000000000001,0.00782000000000016,-0.04455999999999993,-0.00878000000000001,1742257097.9714482
0.20999999999999996,0.1200000000000001,-0.485,-0.017940000000000067,-0.13549999999999995,0.11340000000000017,0.09000000000000008,-0.040000000000000036,0.47,-0.03382000000000007,0.06188000000000016,-0.02307999999999999,1742257098.080132
0.30000000000000004,0.3599999999999999,-0.10999999999999999,-0.0030599999999999516,-0.07898000000000005,0.07933999999999997,-0.020000000000000018,-0.14,0.3400000000000001,0.06018000000000012,0.010259999999999936,-0.04382000000000008,1742257098.1939368
0.28,0.30000000000000004,-0.19500000000000006,0.019400000000000084,0.1324400000000001,-0.09289999999999998,0.125,-0.0050000000000000044,0.6000000000000001,0.02293999999999996,-0.03491999999999995,0.027700000000000058,1742257098.311303
0.32000000000000006,0.2250000000000001,-0.49,0.12109999999999999,0.014520000000000088,-0.025519999999999987,0.20999999999999996,0.02499999999999991,0.635,-0.045419999999999905,0.0307599999999999,0.00024000000000001798,1742257098.421628
0.21999999999999997,0.08499999999999996,-0.51,-0.016000000000000014,-0.08520000000000005,0.08166000000000007,0.07499999999999996,-0.07999999999999996,0.47,-0.0047599999999999865,0.1177999999999999,-0.06762000000000001,1742257098.534859
0.32499999999999996,0.365,-0.28,0.0611600000000001,-0.10450000000000004,0.05590000000000006,0.004999999999999893,-0.245,0.2749999999999999,0.03272000000000008,-0.00048000000000003595,0.006340000000000012,1742257098.650984
0.30000000000000004,0.2749999999999999,-0.20499999999999996,0.00048000000000003595,0.12841999999999998,-0.08665999999999996,0.11499999999999999,0.004999999999999893,0.635,0.022340000000000027,-0.1127999999999999,0.04638000000000009,1742257098.77125
0.2749999999999999,0.1299999999999999,-0.44999999999999996,0.007560000000000011,0.08385999999999982,-0.07555999999999996,0.1499999999999999,-0.020000000000000018,0.6299999999999999,-0.03479999999999994,-0.026000000000000023,0.026000000000000023,1742257098.875832
0.17500000000000004,0.07499999999999996,-0.565,-0.025639999999999996,-0.08204,0.0611600000000001,0.08000000000000007,-0.10499999999999998,0.54,-0.032220000000000026,0.043099999999999916,0.022820000000000062,1742257098.991699
0.29499999999999993,0.16999999999999993,-0.48,0.08935999999999988,-0.08531999999999995,0.021239999999999926,-0.050000000000000044,-0.09499999999999997,0.375,-0.028679999999999928,0.06420000000000003,0.018440000000000012,1742257099.111802
0.33499999999999996,0.29000000000000004,-0.17500000000000004,0.055420000000000025,0.048699999999999966,-0.09129999999999994,0.020000000000000018,-0.07499999999999996,0.33499999999999996,-0.012820000000000054,-0.08557999999999999,0.025519999999999987,1742257099.217898
0.23499999999999988,0.21500000000000008,-0.53,0.06800000000000006,0.12098000000000009,-0.10253999999999996,0.19999999999999996,-0.06499999999999995,0.575,0.041260000000000074,0.15233999999999992,0.01097999999999999,1742257099.331702
0.19500000000000006,0.06000000000000005,-0.58,-0.05164000000000002,-0.0747000000000001,0.11340000000000017,0.10499999999999998,-0.03500000000000003,0.6000000000000001,-0.041139999999999954,0.05066000000000015,-0.01990000000000003,1742257099.450916
0.32000000000000006,0.41500000000000004,-0.08999999999999997,0.041140000000000176,-0.07579999999999998,-0.00660000000000005,-0.030000000000000027,-0.19500000000000006,0.24,0.08704,-0.07604,-0.06481999999999999,1742257099.559207
0.28,0.21999999999999997,-0.255,-0.010619999999999963,0.018920000000000048,0.04039999999999999,0.040000000000000036,-0.07499999999999996,0.45500000000000007,-0.09484000000000004,-0.032340000000000035,0.016839999999999966,1742257099.672859
0.23499999999999988,0.22999999999999998,-0.41500000000000004,-0.03748000000000007,0.10864000000000007,-0.05408000000000002,0.1200000000000001,-0.030000000000000027,0.7050000000000001,-0.0007399999999999629,-0.015020000000000033,-0.033440000000000025,1742257099.791465
0.18999999999999995,0.05499999999999994,-0.55,-0.06274000000000002,-0.12438000000000005,0.11268000000000011,0.040000000000000036,-0.020000000000000018,0.5150000000000001,-0.046640000000000015,0.09716000000000014,-0.0022000000000000908,1742257099.90089
0.2650000000000001,0.2650000000000001,-0.31499999999999995,0.009759999999999991,-0.21496000000000004,0.1716399999999998,-0.020000000000000018,-0.06499999999999995,0.3500000000000001,0.05285999999999991,0.05479999999999996,-0.019159999999999955,1742257100.014894
0.355,0.33499999999999996,-0.15000000000000002,0.00782000000000016,0.033440000000000136,-0.032480000000000064,0.08000000000000007,-0.07000000000000006,0.2849999999999999,0.018179999999999863,-0.12231999999999998,0.036739999999999995,1742257100.1311529
0.20999999999999996,0.125,-0.505,-0.1261,0.16442,-0.05346000000000006,0.09000000000000008,-0.05500000000000005,0.42999999999999994,0.07555999999999985,0.029179999999999984,0.013299999999999867,1742257100.251578
0.20500000000000007,0.135,-0.5,-0.08641999999999994,-0.016960000000000086,0.08240000000000003,0.10000000000000009,0.014999999999999902,0.7050000000000001,-0.028200000000000003,0.0979000000000001,-0.015859999999999985,1742257100.3559098
0.24,0.16999999999999993,-0.375,0.022699999999999942,-0.19128,0.12207999999999997,-0.010000000000000009,-0.04500000000000004,0.385,-0.04870000000000008,0.05920000000000014,-0.013539999999999996,1742257100.471647
0.345,0.32499999999999996,-0.18999999999999995,0.03845999999999994,0.048699999999999966,-0.042240000000000055,0.040000000000000036,-0.07999999999999996,0.28,0.033440000000000136,-0.10926000000000002,0.03186,1742257100.591223
0.20999999999999996,0.08000000000000007,-0.43999999999999995,-0.09179999999999999,0.19091999999999998,-0.09522000000000008,0.10000000000000009,-0.06000000000000005,0.6299999999999999,-0.026000000000000023,-0.07520000000000004,0.011719999999999953,1742257100.697879
0.20999999999999996,0.1100000000000001,-0.51,0.006720000000000059,-0.03260000000000007,0.029179999999999984,0.08000000000000007,-0.06499999999999995,0.595,-0.019540000000000002,0.062019999999999964,-0.016840000000000077,1742257100.81192
0.2250000000000001,0.21500000000000008,-0.33000000000000007,0.05090000000000017,-0.14136000000000004,0.06872000000000011,0.010000000000000009,-0.07499999999999996,0.41500000000000004,-0.03417999999999999,0.05164000000000013,-0.012580000000000036,1742257100.9347048
0.355,0.3400000000000001,-0.17000000000000004,0.10340000000000016,0.03233999999999981,-0.09777999999999998,0.030000000000000027,-0.07999999999999996,0.30499999999999994,0.04590000000000005,-0.06298000000000004,0.03807999999999989,1742257101.0398982
0.19500000000000006,0.18999999999999995,-0.39,-0.09704000000000002,0.16198,-0.09034000000000009,0.11499999999999999,-0.050000000000000044,0.47,0.09033999999999986,-0.15001999999999993,-0.008299999999999974,1742257101.153915
0.21999999999999997,0.09499999999999997,-0.525,0.0625,0.014399999999999968,-0.054320000000000035,0.1200000000000001,-0.030000000000000027,0.565,-0.00660000000000005,0.06469999999999998,-0.025639999999999996,1742257101.271431
0.23499999999999988,0.17500000000000004,-0.4099999999999999,0.013539999999999885,-0.13746000000000003,0.09045999999999998,-0.010000000000000009,-0.09999999999999998,0.48,-0.028079999999999994,0.06616,-0.03161999999999998,1742257101.382117
0.3900000000000001,0.405,-0.18500000000000005,0.04614000000000007,-0.017220000000000013,-0.013419999999999987,-0.0050000000000000044,-0.09499999999999997,0.31000000000000005,0.025640000000000107,-0.028320000000000012,0.03649999999999998,1742257101.4958951
0.25,0.17999999999999994,-0.32000000000000006,-0.1189,0.1358600000000001,-0.04625999999999997,0.09499999999999997,-0.04500000000000004,0.52,0.0354000000000001,-0.12696000000000007,0.03942000000000001,1742257101.611379
0.15999999999999992,0.030000000000000027,-0.605,0.048699999999999966,0.021120000000000028,-0.056520000000000015,0.1299999999999999,-0.025000000000000022,0.595,0.0039000000000000146,0.0341800000000001,-0.016120000000000023,1742257101.731699
0.23499999999999988,0.29000000000000004,-0.27,0.0036599999999999966,-0.09986000000000006,0.10766000000000009,-0.0050000000000000044,-0.125,0.44999999999999996,-0.0034199999999999786,0.06811999999999996,-0.047719999999999985,1742257101.838007
0.3999999999999999,0.4099999999999999,-0.125,0.05140000000000011,-0.028079999999999994,-0.033320000000000016,0.0,-0.08999999999999997,0.30499999999999994,-0.006720000000000059,-0.016720000000000068,0.027839999999999865,1742257101.951821
0.2849999999999999,0.22999999999999998,-0.25,-0.033320000000000016,0.12731999999999988,-0.09826000000000001,0.03499999999999992,0.010000000000000009,0.6600000000000001,0.08826,-0.06225999999999998,0.03807999999999989,1742257102.071666
0.19999999999999996,0.10499999999999998,-0.45999999999999996,-0.0024400000000001087,0.05553999999999992,-0.05408000000000002,0.08000000000000007,-0.025000000000000022,0.6499999999999999,0.016599999999999948,-0.06029999999999991,-0.013299999999999979,1742257102.179928
0.21500000000000008,0.1299999999999999,-0.48,-0.006460000000000021,-0.08508000000000004,0.04833999999999983,0.010000000000000009,-0.125,0.5550000000000002,-0.05786000000000002,0.07567999999999997,-0.0015800000000000258,1742257102.293914
0.3400000000000001,0.25,-0.30000000000000004,0.07898000000000005,-0.09986000000000006,0.05590000000000006,-0.07000000000000006,-0.07499999999999996,0.355,-0.02855999999999992,0.025519999999999987,0.019279999999999964,1742257102.4143848
0.385,0.2650000000000001,-0.16500000000000004,0.03233999999999981,0.0979000000000001,-0.11036000000000001,0.010000000000000009,-0.04500000000000004,0.42500000000000004,-0.03479999999999994,-0.07689999999999997,0.01966000000000001,1742257102.5278778
0.18999999999999995,0.06499999999999995,-0.485,0.045660000000000034,0.16442,-0.09216000000000002,0.09499999999999997,-0.07999999999999996,0.7050000000000001,0.017079999999999984,0.05896000000000012,0.0043999999999999595,1742257102.635763
0.17999999999999994,0.050000000000000044,-0.56,-0.027959999999999985,-0.08874000000000004,0.08311999999999986,0.050000000000000044,-0.025000000000000022,0.55,-0.07434000000000007,0.07618000000000014,-0.028320000000000012,1742257102.751981
0.32499999999999996,0.2450000000000001,-0.21999999999999997,-0.04747999999999997,-0.11926000000000003,0.13476,-0.07499999999999996,-0.09999999999999998,0.3900000000000001,-0.037959999999999994,0.06555999999999984,-0.01317999999999997,1742257102.872493
0.3999999999999999,0.29499999999999993,-0.17000000000000004,0.10057999999999989,0.03161999999999998,-0.08665999999999996,0.050000000000000044,-0.06499999999999995,0.33499999999999996,0.0317400000000001,-0.08287999999999995,0.01415999999999995,1742257102.977833
0.16999999999999993,0.18500000000000005,-0.575,-0.18077999999999994,0.1915199999999999,-0.01636000000000004,0.15500000000000003,-0.020000000000000018,0.73,-0.007440000000000002,0.052119999999999944,0.013419999999999987,1742257103.0917718
0.19999999999999996,0.050000000000000044,-0.55,-0.08886000000000005,-0.18077999999999994,0.17688000000000015,0.04499999999999993,-0.030000000000000027,0.48,-0.05615999999999999,0.09289999999999998,-0.04467999999999994,1742257103.2120209
0.3900000000000001,0.345,-0.09499999999999997,0.0015800000000001369,-0.12,0.08814000000000011,-0.0050000000000000044,-0.15500000000000003,0.30000000000000004,-0.025760000000000005,-0.00024000000000001798,0.009039999999999937,1742257103.319959
0.33000000000000007,0.31000000000000005,-0.19500000000000006,0.00782000000000016,0.11280000000000001,-0.09741999999999995,0.030000000000000027,-0.0050000000000000044,0.5449999999999999,-0.03601999999999994,-0.07225999999999999,0.05333999999999994,1742257103.4355252
0.22999999999999998,0.16999999999999993,-0.56,0.08850000000000002,0.07068000000000008,-0.08311999999999997,0.1200000000000001,0.004999999999999893,0.645,-0.008660000000000001,-0.040899999999999936,-0.008919999999999928,1742257103.551659
0.18999999999999995,0.014999999999999902,-0.58,-0.06799999999999995,-0.13439999999999996,0.14013999999999993,0.030000000000000027,0.014999999999999902,0.48,-0.05346000000000006,0.06445999999999996,-0.03870000000000007,1742257103.6711528
0.395,0.395,-0.07999999999999996,-0.006340000000000012,-0.10950000000000004,0.09192,-0.04500000000000004,-0.08999999999999997,0.33499999999999996,-0.0045199999999999685,0.010380000000000056,0.02648000000000006,1742257103.775837
0.345,0.31499999999999995,-0.17500000000000004,0.020019999999999927,0.12597999999999998,-0.12378,0.030000000000000027,0.06499999999999995,0.605,0.009519999999999973,-0.028079999999999994,0.013539999999999885,1742257103.893673
0.22999999999999998,0.15500000000000003,-0.41999999999999993,0.16003999999999996,0.043460000000000054,-0.09118000000000004,0.1499999999999999,-0.05500000000000005,0.6299999999999999,-0.0232,-0.01990000000000003,0.0023200000000000998,1742257104.0119328
0.18999999999999995,0.07000000000000006,-0.505,-0.052240000000000064,-0.11375999999999997,0.1407400000000001,0.020000000000000018,-0.015000000000000013,0.5150000000000001,-0.05737999999999999,0.0920399999999999,-0.037839999999999985,1742257104.1168692
0.31000000000000005,0.31000000000000005,-0.32000000000000006,0.06651999999999991,-0.13463999999999998,0.12414000000000014,-0.06499999999999995,-0.16500000000000004,0.31000000000000005,0.04479999999999995,0.04039999999999999,-0.008059999999999956,1742257104.231974
0.3400000000000001,0.33499999999999996,-0.15000000000000002,-0.020019999999999927,0.07983999999999991,-0.06847999999999999,0.09000000000000008,0.014999999999999902,0.665,-0.023559999999999914,-0.05565999999999993,0.030019999999999936,1742257104.3512971
0.17999999999999994,0.04499999999999993,-0.475,-0.02624000000000004,0.05726000000000009,-0.05725999999999998,0.135,0.050000000000000044,0.6499999999999999,-0.012820000000000054,-0.05003999999999997,-0.03308,1742257104.4588091
0.18999999999999995,0.08499999999999996,-0.525,-0.025760000000000005,-0.1775,0.19713999999999987,0.004999999999999893,-0.07999999999999996,0.4650000000000001,-0.009639999999999982,0.10961999999999983,-0.07201999999999997,1742257104.572923
0.42999999999999994,0.5150000000000001,-0.050000000000000044,0.011479999999999935,-0.06640000000000001,0.05235999999999996,0.004999999999999893,-0.14,0.2450000000000001,0.0023200000000000998,-0.0026799999999999047,0.014520000000000088,1742257104.6921768
0.30499999999999994,0.27,-0.17999999999999994,-0.08679999999999999,0.17688000000000015,-0.08531999999999995,0.08499999999999996,0.08499999999999996,0.845,0.0908199999999999,0.06042000000000014,0.018320000000000114,1742257104.802735
0.04499999999999993,-0.050000000000000044,-0.635,-0.010739999999999972,0.09704000000000002,-0.13024000000000002,0.135,-0.05500000000000005,0.615,0.02844000000000002,-0.08435999999999999,-0.03465999999999991,1742257104.914803
0.19999999999999996,0.09000000000000008,-0.4,-0.020259999999999945,-0.12487999999999999,0.11438000000000015,-0.015000000000000013,-0.05500000000000005,0.42500000000000004,0.009400000000000075,0.08216000000000001,-0.030399999999999983,1742257105.031898
0.45999999999999996,0.55,0.004999999999999893,0.04492000000000007,-0.008539999999999992,-0.029059999999999975,-0.025000000000000022,-0.07000000000000006,0.29499999999999993,-0.02100000000000002,0.0031799999999999606,0.03283999999999998,1742257105.141846
0.17500000000000004,0.18500000000000005,-0.405,-0.12791999999999992,0.16870000000000007,-0.05346000000000006,0.050000000000000044,-0.06000000000000005,0.30000000000000004,0.038819999999999855,-0.07922000000000007,-0.00012000000000000899,1742257105.255785
0.08499999999999996,0.05499999999999994,-0.55,-0.018799999999999928,0.10729999999999995,-0.09118000000000004,0.15500000000000003,-0.040000000000000036,0.605,0.028799999999999937,-0.019540000000000002,-0.02076,1742257105.373023
0.15500000000000003,0.11499999999999999,-0.495,0.0026800000000000157,-0.19604,0.16052,-0.020000000000000018,-0.09999999999999998,0.45999999999999996,-0.024780000000000024,0.07666000000000017,-0.04077999999999993,1742257105.492533
0.355,0.33499999999999996,-0.17999999999999994,0.04296000000000011,-0.06237999999999999,0.03527999999999998,-0.015000000000000013,-0.135,0.2849999999999999,0.02855999999999992,-0.025880000000000014,0.00537999999999994,1742257105.597846
0.23499999999999988,0.19999999999999996,-0.35,-0.18553999999999993,0.13329999999999997,0.030160000000000187,0.11499999999999999,-0.03500000000000003,0.74,0.0029200000000000337,-0.13097999999999999,0.008419999999999872,1742257105.711846
0.15999999999999992,0.020000000000000018,-0.61,0.008419999999999872,0.0040199999999999125,-0.018440000000000012,0.14000000000000012,-0.06000000000000005,0.575,-0.05786000000000002,0.02171999999999996,-0.0046399999999999775,1742257105.831657
0.19999999999999996,0.125,-0.395,0.012820000000000054,-0.12634,0.09509999999999996,-0.020000000000000018,-0.08499999999999996,0.42999999999999994,0.02210000000000001,0.02540000000000009,-0.026120000000000032,1742257105.939806
0.42500000000000004,0.48,-0.17500000000000004,0.0341800000000001,0.004999999999999893,-0.01525999999999994,-0.06499999999999995,-0.11499999999999999,0.31499999999999995,0.0032999999999998586,-0.02501999999999993,0.025760000000000005,1742257106.0538292
0.22999999999999998,0.19999999999999996,-0.28,-0.08228000000000002,0.1677200000000001,-0.059820000000000095,0.040000000000000036,-0.05500000000000005,0.73,0.09570000000000012,0.06152000000000002,0.0283199999999999,1742257106.172122
0.10499999999999998,-0.0050000000000000044,-0.51,-0.04467999999999994,0.05566000000000004,-0.08874000000000004,0.14000000000000012,-0.05500000000000005,0.6299999999999999,-0.047719999999999985,-0.04039999999999999,-0.0025599999999998957,1742257106.28188
0.15500000000000003,0.08499999999999996,-0.525,0.009400000000000075,-0.16858000000000006,0.1348800000000001,-0.07999999999999996,-0.10999999999999999,0.4950000000000001,-0.03161999999999998,0.030399999999999983,-0.007440000000000002,1742257106.3958652
0.3900000000000001,0.405,-0.11499999999999999,-0.018440000000000012,-0.07520000000000004,0.07068000000000008,-0.07000000000000006,-0.09999999999999998,0.3500000000000001,-0.008919999999999928,0.017940000000000067,0.04200000000000004,1742257106.511706
0.2849999999999999,0.2549999999999999,-0.275,-0.02942,0.12657999999999991,-0.09387999999999996,0.03499999999999992,-0.010000000000000009,0.76,0.07630000000000003,0.08081999999999989,0.02088000000000001,1742257106.632052
0.04499999999999993,-0.015000000000000013,-0.54,-0.037839999999999985,0.07983999999999991,-0.12670000000000003,0.09000000000000008,-0.07499999999999996,0.5449999999999999,0.06738000000000022,-0.05274000000000001,-0.005979999999999985,1742257106.737784
0.16999999999999993,0.06000000000000005,-0.52,0.01428000000000007,-0.11229999999999996,0.07654000000000005,0.004999999999999893,-0.07499999999999996,0.595,-0.05065999999999993,0.08472000000000013,-0.03479999999999994,1742257106.852296
0.3599999999999999,0.2650000000000001,-0.365,0.027959999999999985,-0.13939999999999997,0.12829999999999986,-0.07999999999999996,-0.15500000000000003,0.31000000000000005,0.08594000000000013,0.018920000000000048,-0.012940000000000063,1742257106.971931
0.355,0.32499999999999996,-0.17999999999999994,-0.04700000000000004,0.11583999999999994,-0.06689999999999996,0.03499999999999992,-0.050000000000000044,0.55,0.00878000000000001,-0.04577999999999993,0.01966000000000001,1742257107.079695
0.040000000000000036,0.040000000000000036,-0.44999999999999996,-0.09863999999999995,0.14050000000000007,-0.10327999999999993,0.18999999999999995,-0.08999999999999997,0.5,0.11146000000000011,-0.12573999999999996,-0.018320000000000003,1742257107.193783
0.14000000000000012,0.040000000000000036,-0.56,0.04161999999999999,-0.08177999999999996,0.0662799999999999,0.010000000000000009,-0.07499999999999996,0.48,-0.0013400000000000079,0.052000000000000046,-0.01208000000000009,1742257107.311703
0.15999999999999992,0.04499999999999993,-0.54,0.09875999999999996,-0.13805999999999996,0.03370000000000006,-0.12,-0.03500000000000003,0.41999999999999993,-0.07250000000000001,-0.012460000000000027,0.024900000000000144,1742257608.428274
0.3900000000000001,0.3599999999999999,-0.17999999999999994,-0.023440000000000016,-0.053100000000000036,-0.024419999999999997,0.03499999999999992,0.04499999999999993,0.33499999999999996,0.01415999999999995,-0.02734000000000003,0.00048000000000003595,1742257608.541871
0.28,0.20500000000000007,-0.2849999999999999,-0.12303999999999993,0.07373999999999992,-0.013919999999999932,0.2749999999999999,0.050000000000000044,0.4099999999999999,0.06824000000000008,-0.04125999999999996,-0.060919999999999974,1742257608.65702
0.08000000000000007,-0.06499999999999995,-0.53,0.049919999999999964,0.03980000000000006,-0.03942000000000001,0.125,0.020000000000000018,0.5350000000000001,-0.029059999999999975,0.02526000000000006,-0.05065999999999993,1742257608.769025
0.135,0.06499999999999995,-0.55,0.054319999999999924,-0.14148000000000005,0.1468600000000002,-0.14,-0.11499999999999999,0.48,-0.032480000000000064,0.0031799999999999606,-0.09374000000000005,1742257608.883243
0.385,0.43500000000000005,-0.12,-0.019159999999999955,-0.061880000000000046,0.07642000000000015,0.0,-0.030000000000000027,0.30499999999999994,0.10143999999999997,-0.04955999999999994,0.025140000000000162,1742257608.997741
0.29499999999999993,0.15999999999999992,-0.25,-0.11803999999999992,0.12268000000000012,-0.07618000000000003,0.10000000000000009,-0.08499999999999996,0.76,-0.049919999999999964,0.04590000000000005,0.029779999999999918,1742257609.1110349
0.10000000000000009,-0.050000000000000044,-0.63,0.009759999999999991,0.09985999999999984,-0.1189,0.10000000000000009,-0.06499999999999995,0.5899999999999999,-0.09960000000000002,0.00878000000000001,-0.00048000000000003595,1742257609.225152
0.10000000000000009,0.004999999999999893,-0.59,0.03198000000000012,-0.033440000000000025,0.047719999999999985,-0.06499999999999995,-0.08499999999999996,0.4750000000000001,-0.10644000000000009,0.0920399999999999,0.007079999999999975,1742257609.3391502
0.31000000000000005,0.16999999999999993,-0.35,0.011239999999999917,-0.17613999999999996,0.18933999999999984,-0.06000000000000005,-0.09499999999999997,0.30499999999999994,0.01305999999999985,0.02942,0.03259999999999996,1742257609.457056
0.355,0.2650000000000001,-0.265,-0.0027999999999999137,0.04235999999999995,-0.0747000000000001,0.07499999999999996,-0.10999999999999999,0.5150000000000001,0.03527999999999998,-0.025519999999999987,0.033440000000000136,1742257609.569362
0.17999999999999994,0.09499999999999997,-0.42999999999999994,-0.11060000000000003,0.08666000000000018,-0.0625,0.1200000000000001,-0.10999999999999999,0.615,0.02293999999999996,-0.05884,-0.01966000000000001,1742257609.68113
0.09499999999999997,-0.07499999999999996,-0.59,0.07055999999999996,0.008059999999999956,-0.026859999999999995,-0.020000000000000018,-0.07999999999999996,0.56,-0.02525999999999995,0.07481999999999989,-0.0010999999999999899,1742257609.797459
0.18500000000000005,0.09499999999999997,-0.565,0.10167999999999999,-0.08763999999999994,0.10914000000000001,-0.135,-0.07999999999999996,0.44500000000000006,0.05699999999999994,0.07800000000000007,-0.027959999999999985,1742257609.909157
0.405,0.47,-0.15000000000000002,0.08935999999999988,-0.016120000000000023,0.009279999999999955,0.06000000000000005,-0.025000000000000022,0.33000000000000007,-0.03710000000000002,-0.016000000000000014,0.017220000000000013,1742257610.0231612
0.3799999999999999,0.26,-0.20499999999999996,-0.03370000000000006,0.09338000000000002,-0.08984000000000003,0.08000000000000007,-0.040000000000000036,0.6699999999999999,0.005859999999999976,-0.03479999999999994,-0.02758000000000005,1742257610.137293
0.04499999999999993,0.03499999999999992,-0.545,-0.10668000000000011,0.10777999999999999,-0.0700599999999999,0.06499999999999995,-0.08999999999999997,0.6099999999999999,-0.028320000000000012,0.06335999999999986,0.0045200000000000795,1742257610.250993
0.15500000000000003,0.0,-0.54,0.04747999999999997,-0.09251999999999994,0.06457999999999986,0.08499999999999996,-0.125,0.5150000000000001,-0.056640000000000024,0.07728000000000002,0.015260000000000051,1742257610.3650718
0.24,0.2250000000000001,-0.36,0.07972000000000001,-0.14305999999999996,0.13892000000000015,0.014999999999999902,-0.10999999999999999,0.3700000000000001,0.0578599999999998,0.030399999999999983,-0.0012199999999999989,1742257610.4791338
0.4849999999999999,0.41500000000000004,-0.08999999999999997,0.02611999999999992,-0.012820000000000054,-0.048960000000000004,0.07000000000000006,-0.11499999999999999,0.42999999999999994,-0.04039999999999999,-0.05920000000000003,0.01855999999999991,1742257610.5932102
0.28,0.19999999999999996,-0.32000000000000006,-0.19323999999999997,0.10681999999999992,-0.030279999999999974,0.125,-0.06499999999999995,0.6299999999999999,0.04492000000000007,0.006460000000000132,-0.0041599999999999415,1742257610.707048
0.14500000000000002,0.020000000000000018,-0.56,0.0042800000000000615,0.1038800000000002,-0.11120000000000008,0.07499999999999996,-0.04500000000000004,0.56,-0.05286000000000002,0.015139999999999931,-0.01966000000000001,1742257610.821224
0.135,-0.010000000000000009,-0.575,0.03405999999999998,-0.06176000000000004,0.07068000000000008,-0.040000000000000036,-0.030000000000000027,0.45500000000000007,-0.046499999999999986,0.08094000000000001,-0.028679999999999928,1742257610.938875
0.3500000000000001,0.44999999999999996,-0.12,-0.01978000000000002,-0.14427999999999996,0.16088000000000013,0.004999999999999893,-0.09499999999999997,0.2849999999999999,-0.0047599999999999865,0.008539999999999992,0.00782000000000016,1742257611.048909
0.32000000000000006,0.2650000000000001,-0.255,-0.07238,0.09924,-0.04491999999999996,0.125,-0.04500000000000004,0.575,0.051020000000000065,-0.04174,-0.017220000000000013,1742257611.1631548
0.09000000000000008,0.050000000000000044,-0.485,-0.04625999999999997,0.08288000000000006,-0.07862000000000002,0.14000000000000012,-0.040000000000000036,0.6499999999999999,-0.05396000000000001,0.012460000000000138,0.0035399999999998766,1742257611.2785778
0.1499999999999999,0.014999999999999902,-0.555,0.016960000000000086,-0.08240000000000003,0.07788000000000017,-0.015000000000000013,-0.03500000000000003,0.5150000000000001,-0.13073999999999997,0.07496000000000014,-0.008919999999999928,1742257611.391232
0.28,0.29499999999999993,-0.3400000000000001,-0.010619999999999963,-0.09887999999999997,0.15173999999999999,-0.10499999999999998,-0.16000000000000003,0.3500000000000001,0.036739999999999995,0.00011999999999989797,0.02966000000000002,1742257611.504929
0.3400000000000001,0.30000000000000004,-0.255,0.016000000000000014,0.07288000000000006,-0.09094000000000002,0.010000000000000009,-0.16500000000000004,0.52,0.1520999999999999,-0.042120000000000046,0.00782000000000016,1742257611.622698
0.19999999999999996,0.08000000000000007,-0.43999999999999995,-0.010379999999999945,0.10522000000000009,-0.10096000000000005,0.16500000000000004,-0.10499999999999998,0.575,0.013299999999999867,-0.08362000000000003,0.00550000000000006,1742257611.73855
0.135,-0.04500000000000004,-0.59,0.04200000000000004,0.008419999999999872,-0.0601799999999999,0.10000000000000009,-0.07499999999999996,0.4650000000000001,-0.006960000000000077,0.054440000000000044,0.015619999999999967,1742257611.8469498
0.17999999999999994,0.08499999999999996,-0.475,0.10400000000000009,-0.10753999999999997,0.07250000000000001,-0.13,-0.15000000000000002,0.41999999999999993,0.017220000000000013,0.01317999999999997,-0.02100000000000002,1742257611.961146
0.3900000000000001,0.43999999999999995,-0.17000000000000004,0.007319999999999993,-0.01537999999999995,0.010259999999999936,0.030000000000000027,-0.07999999999999996,0.395,-0.043220000000000036,-0.0675,0.032480000000000064,1742257612.081432
0.20999999999999996,0.21500000000000008,-0.375,-0.08692,0.09509999999999996,-0.09227999999999992,0.09499999999999997,-0.08999999999999997,0.615,0.025519999999999987,0.0026800000000000157,-0.0010999999999999899,1742257612.1889532
0.1200000000000001,0.04499999999999993,-0.525,0.019039999999999946,0.07957999999999998,-0.09631999999999996,0.10000000000000009,-0.04500000000000004,0.605,-0.02758000000000005,0.020620000000000083,-0.006340000000000012,1742257612.303041
0.10499999999999998,0.014999999999999902,-0.6,0.016240000000000032,-0.10399999999999998,0.09838000000000013,-0.050000000000000044,-0.10999999999999999,0.45999999999999996,-0.032220000000000026,0.11376000000000008,-0.047860000000000014,1742257612.418509
0.30000000000000004,0.24,-0.345,0.042240000000000055,-0.13648000000000005,0.14746000000000015,0.004999999999999893,-0.14500000000000002,0.45999999999999996,0.006960000000000077,0.10949999999999993,0.06396000000000002,1742257612.5309272
0.375,0.26,-0.22499999999999998,0.08582000000000001,0.024900000000000144,-0.10241999999999996,0.08499999999999996,-0.09499999999999997,0.51,0.0295399999999999,-0.10584000000000005,0.002080000000000082,1742257612.64508
0.17999999999999994,0.09000000000000008,-0.47,-0.2999200000000001,0.14392000000000005,-0.0032999999999999696,0.14000000000000012,-0.13,0.6600000000000001,-0.09704000000000002,0.01648000000000005,-0.008299999999999974,1742257612.7594528
0.09000000000000008,-0.020000000000000018,-0.605,0.08484000000000003,-0.06787999999999994,0.044440000000000035,-0.125,-0.07499999999999996,0.5249999999999999,-0.11621999999999999,0.031119999999999814,-0.06616,1742257612.873274
0.41500000000000004,0.605,-0.16500000000000004,0.12438000000000016,0.08142000000000005,-0.10265999999999997,-0.12,-0.125,0.385,-0.09789999999999999,0.04845999999999995,0.11414000000000013,1742257612.98704
0.2849999999999999,0.2549999999999999,-0.2849999999999999,-0.026859999999999995,0.04723999999999995,-0.045539999999999914,0.04499999999999993,-0.020000000000000018,0.51,0.04394000000000009,-0.0686,-0.009519999999999973,1742257613.102626
0.1200000000000001,0.04499999999999993,-0.48,-0.07031999999999994,0.06933999999999996,-0.025519999999999987,0.10499999999999998,-0.11499999999999999,0.4950000000000001,0.0030599999999998406,-0.05286000000000002,-0.018320000000000003,1742257613.218831
0.14500000000000002,0.08499999999999996,-0.48,-0.05700000000000005,-0.07799999999999996,0.14966000000000013,-0.0050000000000000044,-0.09499999999999997,0.4750000000000001,0.0017000000000000348,0.05066000000000015,-0.022220000000000018,1742257613.328971
0.23499999999999988,0.21999999999999997,-0.36,0.03210000000000002,-0.09374000000000005,0.09814000000000012,-0.08499999999999996,-0.125,0.3599999999999999,0.035760000000000014,0.030160000000000187,0.010000000000000009,1742257613.443082
0.33499999999999996,0.32000000000000006,-0.25,0.06420000000000003,-0.0025599999999998957,-0.05053999999999992,0.014999999999999902,-0.06000000000000005,0.47,0.028200000000000003,-0.06738,0.014899999999999913,1742257613.561753
0.17500000000000004,0.135,-0.41500000000000004,-0.16625999999999996,0.13146000000000013,-0.024540000000000006,0.1299999999999999,-0.07999999999999996,0.615,-0.025760000000000005,-0.021600000000000064,-0.00878000000000001,1742257613.6711638
0.135,-0.0050000000000000044,-0.595,0.07764000000000015,-0.02088000000000001,-0.02525999999999995,0.020000000000000018,-0.010000000000000009,0.4650000000000001,-0.10839999999999994,0.07764000000000015,-0.015139999999999931,1742257613.784991
0.16500000000000004,0.19500000000000006,-0.42500000000000004,0.06994000000000011,-0.09692,0.05479999999999996,-0.11499999999999999,-0.14500000000000002,0.41500000000000004,0.03492000000000006,0.025760000000000005,0.013679999999999914,1742257613.899362
0.3599999999999999,0.3599999999999999,-0.20999999999999996,0.03272000000000008,-0.01648000000000005,-0.012820000000000054,0.050000000000000044,-0.06000000000000005,0.44999999999999996,0.006839999999999957,-0.08094000000000001,0.03272000000000008,1742257614.020163
0.18999999999999995,0.2250000000000001,-0.37,-0.15722000000000003,0.14172000000000007,-0.07079999999999997,0.1200000000000001,-0.07499999999999996,0.595,-0.021120000000000028,0.0317400000000001,0.014520000000000088,1742257614.126879
0.10499999999999998,0.03499999999999992,-0.57,0.014899999999999913,0.04723999999999995,-0.09350000000000003,0.08499999999999996,-0.06000000000000005,0.5350000000000001,-0.02648000000000006,0.028200000000000003,-0.00036000000000002697,1742257614.2409751
0.10499999999999998,0.02499999999999991,-0.57,0.06579999999999986,-0.11072000000000004,0.05371999999999999,-0.030000000000000027,-0.09499999999999997,0.43500000000000005,-0.026980000000000004,0.06103999999999998,0.016960000000000086,1742257614.360201
0.355,0.31499999999999995,-0.32000000000000006,0.08606000000000003,-0.12841999999999998,0.04601999999999995,0.0,-0.06499999999999995,0.31499999999999995,0.026859999999999884,-0.0009799999999999809,0.012939999999999952,1742257614.4688718
0.2849999999999999,0.2549999999999999,-0.275,-0.05896000000000001,0.05357999999999996,-0.040899999999999936,0.14000000000000012,-0.040000000000000036,0.4750000000000001,-0.020499999999999963,-0.045419999999999905,0.012199999999999989,1742257614.583093
0.125,0.06000000000000005,-0.43500000000000005,-0.05565999999999993,0.05066000000000015,-0.06005999999999989,0.1299999999999999,-0.06000000000000005,0.5899999999999999,-0.08653999999999995,0.03929999999999989,-0.03088000000000002,1742257614.700066
0.1499999999999999,0.010000000000000009,-0.505,0.05908000000000002,-0.09558,0.06018000000000012,0.020000000000000018,-0.05500000000000005,0.42999999999999994,-0.04027999999999998,0.07740000000000014,-0.024660000000000015,1742257614.8109992
0.29499999999999993,0.24,-0.385,0.03942000000000001,-0.11462000000000006,0.1423399999999999,0.004999999999999893,-0.13,0.3799999999999999,-0.031240000000000046,0.02844000000000002,0.03370000000000006,1742257614.924914
0.3500000000000001,0.2650000000000001,-0.26,0.03845999999999994,0.040159999999999973,-0.06896000000000002,0.10499999999999998,0.0,0.4950000000000001,0.07835999999999999,-0.06434000000000006,0.01758000000000015,1742257615.0412228
0.14500000000000002,0.1200000000000001,-0.4,-0.08594000000000002,0.13598,-0.08653999999999995,0.1499999999999999,-0.050000000000000044,0.56,-0.005739999999999967,-0.0232,-0.01305999999999996,1742257615.159561
0.1299999999999999,0.020000000000000018,-0.585,0.07618000000000014,-0.01867999999999992,-0.02501999999999993,0.010000000000000009,-0.09499999999999997,0.54,-0.010379999999999945,0.10925999999999991,-0.026859999999999995,1742257615.26702
0.21500000000000008,0.20999999999999996,-0.29000000000000004,0.0013400000000001189,-0.11048000000000002,0.11681999999999992,0.0,-0.08999999999999997,0.385,0.00782000000000016,0.035880000000000134,-0.009159999999999946,1742257615.3810072
0.41500000000000004,0.365,-0.15000000000000002,0.04064000000000001,-0.03272000000000008,0.006599999999999939,0.07499999999999996,-0.05500000000000005,0.41500000000000004,-0.005619999999999958,-0.07862000000000002,0.025760000000000005,1742257615.499739
0.2250000000000001,0.2849999999999999,-0.33000000000000007,-0.11181999999999992,0.11071999999999993,-0.05908000000000002,0.18500000000000005,-0.10499999999999998,0.6699999999999999,-0.026000000000000023,0.054319999999999924,-0.00770000000000004,1742257615.6089978
0.135,0.004999999999999893,-0.58,0.046499999999999986,0.027700000000000058,-0.06372,0.1100000000000001,-0.03500000000000003,0.5150000000000001,-0.009519999999999973,0.012320000000000109,-0.028940000000000077,1742257615.723021
0.24,0.1100000000000001,-0.385,-0.01648000000000005,-0.11815999999999993,0.11976000000000009,0.004999999999999893,-0.07499999999999996,0.42500000000000004,0.0008600000000000829,-0.00782000000000005,-0.033440000000000025,1742257615.8405929
0.3599999999999999,0.3999999999999999,-0.15500000000000003,-0.03405999999999998,-0.058479999999999976,0.08716000000000013,0.02499999999999991,-0.14500000000000002,0.345,0.04516000000000009,-0.08789999999999998,0.02429999999999999,1742257615.951007
0.2650000000000001,0.19999999999999996,-0.32000000000000006,-0.0514,0.10973999999999995,-0.06152000000000002,0.10499999999999998,-0.06000000000000005,0.7149999999999999,0.05383999999999989,0.0046399999999999775,0.016839999999999966,1742257616.06481
0.10000000000000009,0.02499999999999991,-0.515,-0.041019999999999945,0.08972000000000002,-0.060799999999999965,0.07499999999999996,-0.06499999999999995,0.5899999999999999,-0.06335999999999997,0.032480000000000064,-0.0031799999999999606,1742257616.180566
0.17999999999999994,0.07000000000000006,-0.505,0.017220000000000013,-0.09631999999999996,0.09314,0.0,-0.07999999999999996,0.41999999999999993,-0.014639999999999986,0.020999999999999908,-0.01636000000000004,1742257616.300939
0.30000000000000004,0.29000000000000004,-0.345,0.009160000000000057,-0.09545999999999999,0.10155999999999987,-0.06000000000000005,-0.050000000000000044,0.385,0.01758000000000015,-0.012940000000000063,0.03161999999999998,1742257616.407024
0.33499999999999996,0.31000000000000005,-0.22999999999999998,-0.06103999999999998,0.0577399999999999,-0.05467999999999995,0.09000000000000008,-0.025000000000000022,0.7050000000000001,0.0317400000000001,0.009759999999999991,0.02088000000000001,1742257616.520811
0.08000000000000007,-0.015000000000000013,-0.505,0.0018400000000000638,0.04785999999999979,-0.13244,0.09499999999999997,-0.06499999999999995,0.645,-0.09899999999999998,0.06298000000000004,-0.008539999999999992,1742257616.640337
0.19999999999999996,0.03499999999999992,-0.495,0.03516000000000008,-0.06237999999999999,0.07214000000000009,-0.010000000000000009,-0.05500000000000005,0.45500000000000007,-0.05553999999999992,0.04920000000000013,-0.026000000000000023,1742257616.7490702
0.2650000000000001,0.3400000000000001,-0.25,0.0023200000000000998,-0.0625,0.14916000000000018,-0.030000000000000027,-0.08499999999999996,0.3799999999999999,-0.01867999999999992,-0.032340000000000035,0.013539999999999885,1742257616.863022
0.31000000000000005,0.31499999999999995,-0.21499999999999997,-0.0039000000000000146,0.06678000000000006,-0.06152000000000002,0.020000000000000018,-0.07999999999999996,0.49,0.06152000000000002,-0.09655999999999998,0.01868000000000003,1742257616.980326
0.17999999999999994,0.1499999999999999,-0.39,-0.03515999999999997,0.18518000000000012,-0.16236000000000006,0.09000000000000008,-0.08999999999999997,0.4650000000000001,0.12047999999999992,-0.11021999999999998,-0.015499999999999958,1742257617.0910022
0.14500000000000002,-0.030000000000000027,-0.56,-0.030399999999999983,0.04090000000000016,-0.013679999999999914,0.07499999999999996,-0.050000000000000044,0.44999999999999996,-0.014900000000000024,0.056519999999999904,-0.04834000000000005,1742257617.205062
0.1200000000000001,-0.040000000000000036,-0.59,0.10864000000000007,-0.19091999999999998,0.15905999999999998,-0.08999999999999997,-0.17500000000000004,0.32499999999999996,0.14659999999999984,-0.03198000000000001,-0.07044000000000006,1742257617.320471
0.3599999999999999,0.26,-0.30000000000000004,0.10766000000000009,0.0035399999999998766,0.011239999999999917,0.02499999999999991,-0.17000000000000004,0.41999999999999993,0.02611999999999992,-0.07044000000000006,0.010140000000000038,1742257617.4411478
0.18999999999999995,0.18999999999999995,-0.42500000000000004,0.0,0.07520000000000016,-0.06274000000000002,0.125,-0.11499999999999999,0.55,-0.0650599999999999,-0.03515999999999997,-0.034540000000000015,1742257617.547102
0.14000000000000012,0.020000000000000018,-0.535,0.030279999999999863,-0.06872,0.03394000000000008,-0.010000000000000009,-0.050000000000000044,0.52,-0.008299999999999974,0.024540000000000006,0.001100000000000101,1742257617.660954
0.2250000000000001,0.24,-0.37,-0.009039999999999937,-0.1016800000000001,0.14305999999999996,-0.07000000000000006,-0.08999999999999997,0.41999999999999993,0.006220000000000114,-0.015859999999999985,-0.0026799999999999047,1742257617.782515
0.3799999999999999,0.48,-0.125,-0.015619999999999967,0.021479999999999944,-0.009519999999999973,-0.015000000000000013,-0.07000000000000006,0.385,0.08094000000000001,-0.09522000000000008,0.0674999999999999,1742257617.889017
0.18999999999999995,0.2749999999999999,-0.345,-0.08398000000000005,0.18077999999999994,-0.13903999999999994,0.10499999999999998,-0.06499999999999995,0.575,-0.0026799999999999047,0.03492000000000006,0.03723999999999994,1742257618.002976
0.1200000000000001,-0.06000000000000005,-0.55,0.038819999999999855,-0.007940000000000058,-0.08165999999999995,0.05499999999999994,-0.10499999999999998,0.5899999999999999,-0.07946000000000009,0.08129999999999993,-0.015499999999999958,1742257618.124789
0.18500000000000005,0.050000000000000044,-0.45500000000000007,-0.01636000000000004,-0.19091999999999998,0.17968000000000006,-0.06499999999999995,-0.06499999999999995,0.4099999999999999,-0.04455999999999993,0.04675999999999991,0.012320000000000109,1742257618.230963
0.365,0.48,-0.17500000000000004,-0.0007399999999999629,-0.056400000000000006,0.03820000000000001,0.010000000000000009,-0.030000000000000027,0.30499999999999994,0.035880000000000134,-0.14061999999999997,0.013800000000000034,1742257618.34489
0.21500000000000008,0.30499999999999994,-0.27,-0.055419999999999914,0.18116,-0.1591800000000001,0.1200000000000001,-0.07000000000000006,0.7549999999999999,0.010620000000000074,0.11621999999999999,0.03198000000000012,1742257618.4619
0.08499999999999996,-0.08499999999999996,-0.655,-0.05822000000000005,0.059700000000000086,-0.03588000000000002,0.08499999999999996,-0.025000000000000022,0.5350000000000001,-0.1174400000000001,0.05566000000000004,-0.04798000000000002,1742257618.5729432
0.18999999999999995,0.07000000000000006,-0.45500000000000007,0.017079999999999984,-0.15796,0.1975,-0.09999999999999998,-0.030000000000000027,0.395,0.025020000000000042,-0.007320000000000104,-0.041139999999999954,1742257618.6870348
0.3900000000000001,0.5150000000000001,-0.07999999999999996,0.020499999999999963,-0.023679999999999923,0.05688000000000004,0.0,-0.05500000000000005,0.30499999999999994,0.06420000000000003,-0.10058,0.04577999999999993,1742257618.8020852
0.23499999999999988,0.33000000000000007,-0.29000000000000004,-0.0022000000000000908,0.1518600000000001,-0.18200000000000005,0.1100000000000001,-0.05500000000000005,0.7050000000000001,0.03161999999999998,0.09436,0.01550000000000007,1742257618.921675
0.1200000000000001,-0.07999999999999996,-0.66,0.00011999999999989797,0.07496000000000014,-0.06396000000000002,0.07499999999999996,-0.03500000000000003,0.55,-0.038940000000000086,0.014040000000000052,-0.020379999999999954,1742257619.028984
0.14000000000000012,0.08000000000000007,-0.57,0.07654000000000005,-0.09692,0.06140000000000012,-0.09999999999999998,-0.06000000000000005,0.44500000000000006,-0.014639999999999986,0.005980000000000096,-0.026619999999999977,1742257619.1430242
0.385,0.49,-0.07499999999999996,0.005859999999999976,-0.08141999999999994,0.08129999999999993,-0.030000000000000027,-0.06499999999999995,0.30499999999999994,0.06666000000000016,-0.07165999999999995,0.059579999999999966,1742257619.26218
0.23499999999999988,0.23499999999999988,-0.29499999999999993,-0.031000000000000028,0.14954,-0.12670000000000003,0.11499999999999999,-0.10999999999999999,0.7349999999999999,0.03857999999999984,0.11461999999999994,0.01305999999999985,1742257619.3708758
0.05499999999999994,0.0,-0.64,0.05505999999999989,0.09143999999999997,-0.12573999999999996,0.07000000000000006,-0.07000000000000006,0.5699999999999998,-0.02844000000000002,0.0013400000000001189,-0.0031799999999999606,1742257619.484974
0.1299999999999999,0.11499999999999999,-0.545,0.043099999999999916,-0.14234000000000002,0.1277999999999999,-0.03500000000000003,-0.07000000000000006,0.42999999999999994,-0.060799999999999965,0.06761999999999979,-0.053340000000000054,1742257619.60539
0.26,0.30499999999999994,-0.3400000000000001,0.0013400000000001189,-0.13391999999999993,0.10009999999999986,-0.025000000000000022,-0.08499999999999996,0.33499999999999996,0.023800000000000043,0.018440000000000012,0.04405999999999999,1742257619.7214122
0.33499999999999996,0.32499999999999996,-0.20999999999999996,0.03905999999999987,0.06640000000000001,-0.07579999999999998,0.10000000000000009,-0.10999999999999999,0.41500000000000004,0.07567999999999997,-0.10509999999999997,0.01868000000000003,1742257619.826886
0.14000000000000012,0.19999999999999996,-0.555,-0.0047599999999999865,0.08764000000000016,-0.07079999999999997,0.08000000000000007,-0.08999999999999997,0.575,-0.0013400000000000079,-0.01525999999999994,0.0030599999999998406,1742257619.942419
0.15500000000000003,0.050000000000000044,-0.51,-0.021600000000000064,-0.08679999999999999,0.08338000000000001,0.030000000000000027,-0.040000000000000036,0.43500000000000005,-0.06446000000000007,0.06761999999999979,-0.03370000000000006,1742257620.064211
0.26,0.24,-0.405,0.041140000000000176,-0.12158000000000002,0.10021999999999998,-0.05500000000000005,-0.16000000000000003,0.3700000000000001,-0.008299999999999974,0.0039000000000000146,0.02222000000000013,1742257620.1689112
0.33000000000000007,0.29000000000000004,-0.245,0.06054000000000004,0.055420000000000025,-0.08204,0.020000000000000018,-0.03500000000000003,0.51,0.08814000000000011,-0.04283999999999999,0.013800000000000034,1742257620.282892
0.1100000000000001,0.10499999999999998,-0.48,-0.05298000000000003,0.15748000000000006,-0.12854,0.10000000000000009,-0.125,0.575,0.0024399999999999977,-0.07386000000000004,0.005859999999999976,1742257620.402069
0.125,0.02499999999999991,-0.585,-0.02844000000000002,-0.06762000000000001,0.05590000000000006,-0.010000000000000009,-0.07000000000000006,0.48,-0.0012199999999999989,0.09483999999999981,-0.03649999999999998,1742257620.5110452
0.2650000000000001,0.21999999999999997,-0.3400000000000001,0.05164000000000013,-0.13049999999999995,0.11253999999999986,-0.06000000000000005,-0.14500000000000002,0.345,0.02611999999999992,0.04174000000000011,0.014399999999999968,1742257620.625797
0.375,0.29499999999999993,-0.22999999999999998,0.09997999999999996,0.008299999999999974,-0.06896000000000002,0.03499999999999992,-0.020000000000000018,0.595,0.005740000000000078,-0.05932000000000004,0.006340000000000012,1742257620.74203
0.14000000000000012,0.15999999999999992,-0.42999999999999994,-0.10131999999999997,0.19103999999999988,-0.11865999999999999,0.10000000000000009,-0.09999999999999998,0.5350000000000001,0.020019999999999927,-0.06359999999999999,0.018179999999999863,1742257620.8620448
