L-AccX,L-AccY,L-AccZ,L-GyrX,L-GyrY,L-GyrZ,R-AccX,R-AccY,R-AccZ,R-GyrX,R-GyrY,R-GyrZ,timestamp
-0.24,0.19500000000000006,-0.15000000000000002,0.021479999999999944,-0.040039999999999965,-0.04125999999999996,-0.605,0.0,-0.135,-0.04418,0.005619999999999958,0.06323999999999996,1742248578.842824
-0.33000000000000007,0.18500000000000005,-0.22999999999999998,-0.03355999999999992,0.08679999999999999,0.010860000000000092,-0.475,-0.040000000000000036,-0.15500000000000003,-0.05589999999999995,-0.05298000000000003,0.04797999999999991,1742248578.950807
-0.45999999999999996,0.22999999999999998,-0.31499999999999995,-0.03724000000000005,0.10607999999999995,0.1358600000000001,-0.27,-0.06000000000000005,0.014999999999999902,-0.03858000000000006,-0.030399999999999983,0.06152000000000002,1742248579.065448
-0.42500000000000004,0.21999999999999997,-0.33000000000000007,0.1713800000000001,0.020620000000000083,-0.11803999999999992,-0.4099999999999999,-0.04500000000000004,-0.08499999999999996,0.08068000000000008,0.11059999999999981,0.03685999999999989,1742248579.1829708
-0.355,0.19500000000000006,-0.4,0.00782000000000016,-0.15991999999999995,-0.09655999999999998,-0.57,0.07000000000000006,-0.24,0.041380000000000194,0.07811999999999997,-0.040039999999999965,1742248579.2926168
-0.265,0.26,-0.19500000000000006,-0.08629999999999993,-0.015499999999999958,0.020620000000000083,-0.595,0.1100000000000001,-0.29000000000000004,-0.05712000000000006,-0.011960000000000082,0.08496000000000015,1742248579.406731
-0.31000000000000005,0.29499999999999993,-0.27,-0.026000000000000023,0.08421999999999996,0.06066000000000016,-0.4650000000000001,-0.08999999999999997,-0.17500000000000004,-0.08410000000000006,-0.1689400000000001,-0.0014600000000000168,1742248579.524218
-0.51,0.33499999999999996,-0.43500000000000005,-0.026859999999999995,-0.019540000000000002,0.03807999999999989,-0.39,-0.08999999999999997,-0.19999999999999996,0.06103999999999998,-0.011240000000000028,0.005239999999999911,1742248579.635322
-0.385,0.30499999999999994,-0.18500000000000005,0.025880000000000125,-0.08435999999999999,-0.052240000000000064,-0.485,-0.015000000000000013,-0.17999999999999994,0.10095999999999994,0.07177999999999995,-0.042360000000000064,1742248579.7487202
-0.19999999999999996,0.21500000000000008,-0.09999999999999998,0.023560000000000025,-0.008299999999999974,-0.027700000000000058,-0.625,0.0,-0.29000000000000004,-0.05725999999999998,0.011719999999999953,0.02540000000000009,1742248579.8626518
-0.28,0.2749999999999999,-0.15500000000000003,-0.07701999999999998,0.06811999999999996,0.05090000000000017,-0.4650000000000001,-0.06499999999999995,-0.10999999999999999,-0.10205999999999993,-0.04077999999999993,0.08118000000000003,1742248579.982872
-0.405,0.20999999999999996,-0.33000000000000007,0.020499999999999963,0.11840000000000006,0.08752000000000004,-0.22999999999999998,-0.07999999999999996,0.010000000000000009,-0.0050000000000000044,-0.021360000000000046,0.005619999999999958,1742248580.090734
-0.43500000000000005,0.27,-0.35,0.1408600000000002,0.01305999999999985,-0.09605999999999992,-0.35,-0.125,-0.08499999999999996,0.04455999999999993,0.09057999999999988,-0.002080000000000082,1742248580.204718
-0.355,0.20999999999999996,-0.39,0.06420000000000003,-0.06140000000000001,-0.08008000000000004,-0.545,0.02499999999999991,-0.21999999999999997,0.0295399999999999,0.11961999999999984,-0.046640000000000015,1742248580.323401
-0.235,0.23499999999999988,-0.16000000000000003,-0.031120000000000037,0.0015800000000001369,-0.017080000000000095,-0.575,0.0,-0.22499999999999998,-0.054200000000000026,0.009519999999999973,0.059940000000000104,1742248580.432727
-0.255,0.29000000000000004,-0.18500000000000005,-0.06811999999999996,0.08948,0.030399999999999983,-0.42500000000000004,0.0,-0.27,-0.08972000000000002,-0.07850000000000001,0.0611600000000001,1742248580.546624
-0.4,0.2849999999999999,-0.35,-0.014399999999999968,0.025760000000000005,0.05066000000000015,-0.25,-0.10999999999999999,0.0,0.025760000000000005,0.0017000000000000348,-0.011840000000000073,1742248580.662307
-0.44999999999999996,0.31000000000000005,-0.44500000000000006,0.019039999999999946,-0.07946000000000009,-0.022460000000000035,-0.45999999999999996,-0.09999999999999998,-0.09499999999999997,0.09631999999999996,0.1309800000000001,0.021120000000000028,1742248580.7792509
-0.29499999999999993,0.30499999999999994,-0.25,-0.03917999999999999,-0.13746000000000003,-0.03394000000000008,-0.61,0.030000000000000027,-0.275,0.058599999999999985,0.016599999999999948,-0.09008000000000005,1742248580.888598
-0.28,0.3400000000000001,-0.245,-0.09851999999999994,-0.011360000000000037,0.02746000000000004,-0.585,0.010000000000000009,-0.26,-0.03710000000000002,-0.07886000000000004,0.0043999999999999595,1742248581.003316
-0.27,0.22999999999999998,-0.25,-0.06799999999999995,0.06018000000000012,0.047599999999999865,-0.4,-0.135,-0.12,-0.03210000000000002,-0.15588000000000002,-0.014780000000000015,1742248581.122088
-0.47,0.30000000000000004,-0.44500000000000006,0.007319999999999993,0.006960000000000077,0.02210000000000001,-0.355,-0.07999999999999996,-0.17000000000000004,0.07079999999999997,-0.013919999999999932,-0.020139999999999936,1742248581.2307131
-0.365,0.28,-0.38,0.03259999999999996,-0.12939999999999996,-0.008419999999999983,-0.505,-0.06499999999999995,-0.25,0.059940000000000104,0.11705999999999994,-0.0027999999999999137,1742248581.344616
-0.26,0.30000000000000004,-0.135,0.02746000000000004,-0.06981999999999988,-0.03613999999999995,-0.73,0.014999999999999902,-0.3400000000000001,0.03405999999999998,0.015020000000000033,-0.058719999999999994,1742248581.462604
-0.26,0.32499999999999996,-0.22499999999999998,-0.036619999999999986,0.023560000000000025,-0.03637999999999997,-0.505,-0.050000000000000044,-0.19999999999999996,-0.08862000000000003,-0.09105999999999992,0.03308,1742248581.572724
-0.35,0.2450000000000001,-0.28,-0.03625999999999996,0.11607999999999996,0.02171999999999996,-0.27,-0.10499999999999998,0.010000000000000009,-0.11096000000000006,-0.024660000000000015,0.06164000000000014,1742248581.686602
-0.345,0.2250000000000001,-0.265,0.09266000000000019,0.04614000000000007,-0.02210000000000001,-0.39,-0.09999999999999998,-0.15500000000000003,0.09644000000000008,0.01428000000000007,-0.059940000000000104,1742248581.803332
-0.275,0.30499999999999994,-0.16500000000000004,0.03492000000000006,-0.03479999999999994,-0.015499999999999958,-0.4099999999999999,-0.025000000000000022,-0.16500000000000004,0.08838000000000013,0.058599999999999985,-0.09020000000000006,1742248581.914622
-0.21499999999999997,0.2450000000000001,-0.11499999999999999,0.031380000000000186,-0.0040200000000000236,-0.049799999999999955,-0.64,-0.03500000000000003,-0.275,-0.020019999999999927,0.005859999999999976,-0.013539999999999996,1742248582.02871
-0.22499999999999998,0.29000000000000004,-0.20499999999999996,-0.034420000000000006,0.05518000000000001,-0.01648000000000005,-0.47,-0.07499999999999996,-0.15000000000000002,-0.16210000000000002,-0.04834000000000005,0.11694000000000004,1742248582.142743
-0.405,0.27,-0.33499999999999996,-0.04283999999999999,0.13695999999999997,0.08850000000000002,-0.22999999999999998,-0.07000000000000006,0.010000000000000009,-0.06591999999999998,-0.0023200000000000998,0.09814000000000012,1742248582.2620108
-0.4099999999999999,0.2749999999999999,-0.375,0.15979999999999994,-0.0035399999999999876,-0.08287999999999995,-0.395,-0.13,-0.09499999999999997,0.09045999999999998,0.10961999999999983,-0.03625999999999996,1742248582.370656
-0.375,0.32499999999999996,-0.41999999999999993,0.021479999999999944,-0.12341999999999997,-0.05041999999999991,-0.54,-0.020000000000000018,-0.20999999999999996,0.10899999999999999,0.08543999999999996,-0.09777999999999998,1742248582.4846442
-0.20999999999999996,0.23499999999999988,-0.11499999999999999,-0.04527999999999999,0.005740000000000078,0.0040199999999999125,-0.52,-0.025000000000000022,-0.21999999999999997,-0.0968,-0.006340000000000012,0.0650599999999999,1742248582.598599
-0.26,0.23499999999999988,-0.20499999999999996,-0.04944000000000004,0.08642000000000016,0.045539999999999914,-0.44999999999999996,-0.125,-0.17500000000000004,-0.11253999999999997,-0.09826000000000001,0.060799999999999965,1742248582.712702
-0.48,0.375,-0.42500000000000004,-0.028200000000000003,0.03929999999999989,0.01746000000000003,-0.29499999999999993,-0.16500000000000004,-0.010000000000000009,0.0031799999999999606,-0.012700000000000045,0.02540000000000009,1742248582.826524
-0.39,0.2849999999999999,-0.405,0.04479999999999995,-0.08874000000000004,-0.025399999999999978,-0.4650000000000001,-0.135,-0.135,0.07079999999999997,0.13538000000000006,0.01758000000000015,1742248582.942414
-0.32000000000000006,0.32499999999999996,-0.21999999999999997,-0.011600000000000055,-0.14002000000000003,-0.06323999999999996,-0.57,-0.04500000000000004,-0.235,0.05188000000000015,0.05152000000000001,-0.07055999999999996,1742248583.054592
-0.24,0.30000000000000004,-0.20499999999999996,-0.09362000000000004,0.017940000000000067,0.025020000000000042,-0.565,-0.030000000000000027,-0.22499999999999998,-0.09510000000000007,-0.0029199999999999227,0.05711999999999984,1742248583.168736
-0.28,0.2849999999999999,-0.17500000000000004,-0.07410000000000005,0.09167999999999998,0.08606000000000003,-0.4650000000000001,-0.050000000000000044,-0.36,-0.04174,-0.17846000000000006,0.00550000000000006,1742248583.282802
-0.5,0.3700000000000001,-0.44500000000000006,-0.010000000000000009,-0.028320000000000012,0.04078000000000004,-0.37,-0.17999999999999994,-0.12,0.08240000000000003,-0.02391999999999994,-0.03491999999999995,1742248583.402784
-0.385,0.345,-0.375,0.04503999999999997,-0.10974000000000006,-0.020499999999999963,-0.485,-0.10999999999999999,-0.21999999999999997,0.03905999999999987,0.07177999999999995,0.015619999999999967,1742248583.510426
-0.29499999999999993,0.29499999999999993,-0.19500000000000006,-0.0017000000000000348,-0.14379999999999993,-0.0601799999999999,-0.64,-0.03500000000000003,-0.25,0.06909999999999994,0.051140000000000185,-0.07775999999999994,1742248583.624515
-0.265,0.345,-0.18500000000000005,-0.06884000000000001,0.02855999999999992,-0.019540000000000002,-0.505,-0.06000000000000005,-0.22999999999999998,-0.06323999999999996,-0.07496000000000003,0.07177999999999995,1742248583.74282
-0.235,0.23499999999999988,-0.18500000000000005,-0.019399999999999973,0.10400000000000009,0.037839999999999874,-0.35,-0.15000000000000002,0.004999999999999893,-0.16613999999999995,-0.062019999999999964,0.07006000000000001,1742248583.8525069
-0.365,0.30000000000000004,-0.2849999999999999,0.09361999999999981,-0.0043999999999999595,-0.023440000000000016,-0.38,-0.125,-0.16500000000000004,0.13770000000000016,-0.01648000000000005,-0.08984000000000003,1742248583.9665642
-0.33000000000000007,0.31000000000000005,-0.22499999999999998,0.07275999999999994,-0.09644000000000008,-0.03491999999999995,-0.42999999999999994,-0.040000000000000036,-0.21999999999999997,0.06896000000000013,0.07299999999999995,-0.07508000000000004,1742248584.085931
-0.20999999999999996,0.2849999999999999,-0.14500000000000002,-0.019159999999999955,-0.008419999999999983,-0.05798000000000003,-0.655,-0.05500000000000005,-0.33499999999999996,-0.009159999999999946,0.020620000000000083,-0.02294000000000007,1742248584.202543
-0.245,0.3599999999999999,-0.19500000000000006,-0.04405999999999999,0.035640000000000116,0.009039999999999937,-0.49,-0.125,-0.14,-0.046760000000000024,-0.10631999999999997,0.03479999999999994,1742248584.308583
-0.385,0.29499999999999993,-0.255,-0.09631999999999996,0.09483999999999981,0.09400000000000008,-0.255,-0.135,0.03499999999999992,-0.12231999999999998,0.010259999999999936,0.10596000000000005,1742248584.422402
-0.3400000000000001,0.2450000000000001,-0.22499999999999998,0.16088000000000013,0.020019999999999927,-0.09704000000000002,-0.375,-0.16000000000000003,-0.135,0.10289999999999999,0.008539999999999992,-0.05358000000000007,1742248584.5489888
-0.27,0.31499999999999995,-0.18500000000000005,0.08885999999999994,-0.04358000000000006,-0.037959999999999994,-0.49,-0.08499999999999996,-0.17999999999999994,0.0932599999999999,0.10522000000000009,-0.06041999999999992,1742248584.6505
-0.18999999999999995,0.23499999999999988,-0.10999999999999999,-0.03613999999999995,-0.016000000000000014,0.007319999999999993,-0.6,-0.09999999999999998,-0.22999999999999998,-0.06689999999999996,-0.0012199999999999989,-0.027700000000000058,1742248584.764705
-0.26,0.29000000000000004,-0.18999999999999995,-0.010379999999999945,0.07433999999999985,0.02307999999999999,-0.485,-0.10999999999999999,-0.06499999999999995,-0.07153999999999994,-0.06591999999999998,0.026980000000000004,1742248584.882418
-0.375,0.27,-0.29499999999999993,-0.01085999999999998,0.06066000000000016,-0.008179999999999965,-0.30499999999999994,-0.11499999999999999,-0.015000000000000013,-0.05565999999999993,-0.0047599999999999865,0.08251999999999993,1742248584.992648
-0.35,0.25,-0.245,0.07264000000000004,0.044319999999999915,-0.04310000000000003,-0.365,-0.135,-0.09999999999999998,0.07714000000000021,0.029059999999999864,-0.03405999999999998,1742248585.107506
-0.365,0.32000000000000006,-0.345,0.06824000000000008,-0.08165999999999995,-0.042120000000000046,-0.53,-0.08499999999999996,-0.18500000000000005,0.11607999999999996,0.09400000000000008,-0.07653999999999994,1742248585.2222028
-0.21999999999999997,0.21999999999999997,-0.125,-0.01770000000000005,0.0009799999999999809,-0.01537999999999995,-0.5,-0.06499999999999995,-0.15000000000000002,-0.07153999999999994,0.03283999999999998,0.058599999999999985,1742248585.3423228
-0.21999999999999997,0.2849999999999999,-0.16500000000000004,-0.0030599999999999516,0.07177999999999995,0.012939999999999952,-0.4099999999999999,-0.08999999999999997,-0.24,-0.09715999999999991,-0.03820000000000001,0.08007999999999993,1742248585.448604
-0.44500000000000006,0.32499999999999996,-0.4099999999999999,-0.05164000000000002,0.024780000000000024,0.08251999999999993,-0.3400000000000001,-0.17999999999999994,-0.09499999999999997,0.06481999999999988,-0.026120000000000032,-0.021480000000000055,1742248585.565239
-0.4,0.28,-0.365,0.03845999999999994,-0.07531999999999994,-0.007320000000000104,-0.365,-0.125,-0.13,0.03857999999999984,0.08507999999999982,0.018440000000000012,1742248585.683249
-0.27,0.30000000000000004,-0.12,-0.02855999999999992,-0.11108000000000007,-0.01867999999999992,-0.68,-0.07000000000000006,-0.30000000000000004,0.048579999999999846,0.04078000000000004,-0.050899999999999945,1742248585.790454
-0.2849999999999999,0.32499999999999996,-0.245,-0.043340000000000045,0.00770000000000004,0.0030599999999998406,-0.59,-0.09999999999999998,-0.2849999999999999,-0.054320000000000035,-0.10411999999999999,0.016599999999999948,1742248585.904526
-0.345,0.29499999999999993,-0.24,-0.07250000000000001,0.11229999999999984,0.04711999999999983,-0.33499999999999996,-0.16500000000000004,-0.010000000000000009,-0.11634,-0.05298000000000003,0.07190000000000007,1742248586.023629
-0.355,0.29000000000000004,-0.21499999999999997,0.10803999999999991,0.016839999999999966,-0.029899999999999927,-0.43500000000000005,-0.16500000000000004,-0.16500000000000004,0.0942400000000001,0.018440000000000012,-0.046640000000000015,1742248586.132408
-0.32000000000000006,0.2450000000000001,-0.17999999999999994,-0.010140000000000038,-0.059940000000000104,0.005239999999999911,-0.47,-0.09499999999999997,-0.20499999999999996,0.02198000000000011,0.05479999999999996,-0.014900000000000024,1742248586.246451
-0.25,0.21999999999999997,-0.15000000000000002,0.07776000000000005,-0.052120000000000055,-0.05249999999999999,-0.755,-0.08999999999999997,-0.39,0.05396000000000001,0.018179999999999863,-0.08960000000000001,1742248586.362575
-0.265,0.32000000000000006,-0.19500000000000006,-0.0045199999999999685,0.024780000000000024,-0.04064000000000001,-0.44500000000000006,-0.08999999999999997,-0.09999999999999998,-0.05041999999999991,-0.07250000000000001,0.046640000000000015,1742248586.475092
-0.3400000000000001,0.30499999999999994,-0.30000000000000004,-0.0858199999999999,0.06678000000000006,0.05505999999999989,-0.26,-0.09999999999999998,0.040000000000000036,-0.04625999999999997,-0.03882000000000008,0.03942000000000001,1742248586.588566
-0.3400000000000001,0.24,-0.28,0.05054000000000003,0.016599999999999948,-0.012820000000000054,-0.29499999999999993,-0.18500000000000005,-0.04500000000000004,0.08838000000000013,0.06811999999999996,-0.043220000000000036,1742248586.702927
-0.30000000000000004,0.30000000000000004,-0.385,-0.055179999999999896,-0.14439999999999997,-0.011960000000000082,-0.56,-0.05500000000000005,-0.235,0.08338000000000001,0.08570000000000011,-0.08177999999999996,1742248586.822901
-0.25,0.2250000000000001,-0.20499999999999996,-0.09986000000000006,0.022820000000000062,0.038819999999999855,-0.59,-0.025000000000000022,-0.365,-0.15136000000000005,-0.012580000000000036,0.1165799999999999,1742248586.930527
-0.275,0.20500000000000007,-0.29000000000000004,-0.049799999999999955,0.12207999999999997,0.03088000000000002,-0.4,-0.07999999999999996,-0.015000000000000013,-0.20263999999999993,-0.059820000000000095,0.14769999999999994,1742248587.0445518
-0.255,0.2450000000000001,-0.20499999999999996,0.11670000000000003,-0.022460000000000035,-0.03503999999999996,-0.32000000000000006,-0.12,-0.15000000000000002,0.14808,-0.013679999999999914,-0.06665999999999994,1742248587.1631072
-0.17500000000000004,0.31499999999999995,-0.040000000000000036,0.0017000000000000348,-0.008419999999999983,-0.006960000000000077,-0.29499999999999993,-0.020000000000000018,-0.06499999999999995,0.09959999999999991,0.13707999999999987,-0.07128000000000001,1742248587.272427
-0.17000000000000004,0.24,-0.08499999999999996,-0.03748000000000007,-0.023320000000000007,-0.0031799999999999606,-0.595,-0.15000000000000002,-0.255,-0.11584000000000005,0.015020000000000033,0.034540000000000015,1742248587.386412
-0.235,0.2450000000000001,-0.15500000000000003,0.0045200000000000795,0.08972000000000002,0.02185999999999999,-0.39,-0.22999999999999998,-0.22499999999999998,0.03161999999999998,-0.06922000000000006,-0.027700000000000058,1742248587.502576
-0.505,0.3599999999999999,-0.41999999999999993,-0.05018,0.06651999999999991,0.08885999999999994,-0.245,-0.235,0.06499999999999995,0.08630000000000004,-0.021240000000000037,-0.01208000000000009,1742248587.6218638
-0.47,0.2650000000000001,-0.41500000000000004,0.09729999999999994,-0.05018,-0.012580000000000036,-0.32000000000000006,-0.16000000000000003,-0.08999999999999997,0.05018000000000011,0.09973999999999994,0.016240000000000032,1742248587.728267
-0.39,0.2450000000000001,-0.375,0.010380000000000056,-0.08972000000000002,-0.02210000000000001,-0.655,-0.06499999999999995,-0.24,0.03527999999999998,0.09899999999999998,-0.01208000000000009,1742248587.843157
-0.345,0.31499999999999995,-0.27,-0.037719999999999976,0.00878000000000001,-0.03736000000000006,-0.54,-0.08999999999999997,-0.235,0.0008600000000000829,-0.08531999999999995,-0.07335999999999998,1742248587.963056
-0.275,0.29499999999999993,-0.20999999999999996,-0.060799999999999965,0.027220000000000022,0.020380000000000065,-0.43999999999999995,-0.04500000000000004,-0.25,-0.19811999999999996,-0.04589999999999994,0.05797999999999992,1742248588.070463
-0.385,0.26,-0.33000000000000007,0.07409999999999983,-0.02100000000000002,-0.015139999999999931,-0.41500000000000004,-0.09999999999999998,-0.16000000000000003,0.08216000000000001,-0.04515999999999998,-0.039059999999999984,1742248588.18443
-0.29000000000000004,0.32499999999999996,-0.18999999999999995,-0.05286000000000002,-0.026000000000000023,0.008059999999999956,-0.31499999999999995,-0.13,-0.06499999999999995,0.02293999999999996,0.07103999999999999,0.019160000000000066,1742248588.303381
-0.19999999999999996,0.2549999999999999,-0.06000000000000005,0.04675999999999991,0.005120000000000013,-0.05152000000000001,-0.675,-0.13,-0.345,-0.07335999999999998,0.029900000000000038,0.0019599999999999618,1742248588.4123788
-0.235,0.31499999999999995,-0.17999999999999994,-0.05920000000000003,0.014780000000000015,-0.02185999999999999,-0.535,-0.10499999999999998,-0.21999999999999997,-0.09058,-0.07555999999999996,0.04527999999999999,1742248588.5264242
-0.21999999999999997,0.29499999999999993,-0.20999999999999996,-0.06591999999999998,0.06555999999999984,0.058720000000000105,-0.36,-0.15500000000000003,-0.10999999999999999,-0.14561999999999997,-0.07799999999999996,0.09007999999999994,1742248588.6430452
-0.30000000000000004,0.32499999999999996,-0.135,0.09777999999999998,0.011239999999999917,-0.03186,-0.42999999999999994,-0.16000000000000003,-0.17000000000000004,0.11304000000000003,-0.035519999999999996,-0.023679999999999923,1742248588.754477
-0.26,0.3900000000000001,-0.15000000000000002,-0.0034199999999999786,-0.07422000000000006,0.020999999999999908,-0.21499999999999997,-0.07000000000000006,-0.015000000000000013,0.10777999999999999,0.10899999999999999,-0.16186,1742248588.868355
-0.16500000000000004,0.2250000000000001,-0.030000000000000027,-0.035519999999999996,-0.03515999999999997,0.01868000000000003,-0.43999999999999995,-0.15000000000000002,-0.07999999999999996,0.008299999999999974,0.008920000000000039,-0.01855999999999991,1742248588.982802
-0.17999999999999994,0.33499999999999996,-0.14,-0.034540000000000015,0.05371999999999999,-0.025880000000000014,-0.41500000000000004,-0.020000000000000018,-0.10499999999999998,-0.10021999999999998,-0.07898000000000005,0.06909999999999994,1742248589.096396
-0.29499999999999993,0.28,-0.28,-0.07677999999999996,0.08421999999999996,0.06066000000000016,-0.22999999999999998,-0.22999999999999998,0.0,0.0672600000000001,0.012460000000000138,-0.01427999999999996,1742248589.210343
-0.42999999999999994,0.3599999999999999,-0.30499999999999994,0.07445999999999997,0.03222000000000014,0.005619999999999958,-0.33000000000000007,-0.17000000000000004,0.0,0.01990000000000003,0.09533999999999998,0.016839999999999966,1742248589.324105
-0.16000000000000003,0.2650000000000001,0.0,-0.040159999999999973,-0.021720000000000073,0.03088000000000002,-0.62,-0.09999999999999998,-0.345,0.0043999999999999595,0.006720000000000059,-0.011960000000000082,1742248589.443131
-0.30499999999999994,0.345,-0.32499999999999996,-0.08008000000000004,-0.027840000000000087,0.054079999999999906,-0.47,-0.13,-0.14500000000000002,0.043460000000000054,0.01990000000000003,-0.013299999999999979,1742248589.552335
-0.21499999999999997,0.28,-0.265,-0.10253999999999996,-0.037719999999999976,0.06323999999999996,-0.59,-0.08999999999999997,-0.33499999999999996,-0.056520000000000015,-0.09034000000000009,0.030399999999999983,1742248589.666444
-0.33499999999999996,0.2549999999999999,-0.26,-0.0045199999999999685,0.12158000000000002,0.04723999999999995,-0.27,-0.15500000000000003,0.07499999999999996,0.013299999999999867,0.05018000000000011,-0.0030599999999999516,1742248589.782696
-0.385,0.27,-0.29000000000000004,0.09301999999999988,0.09105999999999992,-0.04810000000000003,-0.44999999999999996,-0.135,-0.255,0.03394000000000008,-0.05958000000000008,-0.01660000000000006,1742248589.8944771
-0.32499999999999996,0.31499999999999995,-0.33499999999999996,0.08557999999999999,-0.08362000000000003,-0.08275999999999994,-0.45500000000000007,-0.025000000000000022,-0.14500000000000002,0.13392000000000004,0.08594000000000013,-0.03320000000000001,1742248590.008367
-0.13,0.19500000000000006,-0.03500000000000003,0.06494,0.04090000000000016,-0.09350000000000003,-0.51,0.03499999999999992,-0.15500000000000003,-0.09655999999999998,0.05908000000000002,0.012460000000000138,1742248590.122698
-0.18500000000000005,0.18999999999999995,-0.07499999999999996,-0.0502999999999999,0.1202399999999999,0.07177999999999995,-0.48,-0.025000000000000022,-0.020000000000000018,-0.16771999999999998,-0.021240000000000037,-0.014780000000000015,1742248590.2438242
-0.4650000000000001,0.3400000000000001,-0.43500000000000005,-0.10718000000000005,0.06896000000000013,0.1591800000000001,-0.22499999999999998,-0.125,0.06000000000000005,0.01868000000000003,0.0015800000000001369,0.020620000000000083,1742248590.350147
-0.5,0.33499999999999996,-0.36,0.0295399999999999,0.02075999999999989,0.0023200000000000998,-0.365,-0.14500000000000002,-0.14,0.04625999999999997,0.05078000000000005,-0.014399999999999968,1742248590.464341
-0.385,0.2749999999999999,-0.29499999999999993,0.08543999999999996,-0.11205999999999994,-0.09129999999999994,-0.535,0.010000000000000009,-0.16500000000000004,0.06042000000000014,0.13392000000000004,-0.04077999999999993,1742248590.586561
-0.14500000000000002,0.19999999999999996,-0.04500000000000004,0.0007399999999999629,-0.030399999999999983,-0.02758000000000005,-0.575,0.004999999999999893,-0.19500000000000006,-0.06274000000000002,0.04259999999999997,0.05932000000000004,1742248590.692235
-0.235,0.26,-0.17500000000000004,-0.040899999999999936,0.08874000000000004,0.02171999999999996,-0.48,-0.050000000000000044,-0.11499999999999999,-0.07728000000000002,-0.04039999999999999,0.07630000000000003,1742248590.80644
-0.44999999999999996,0.3599999999999999,-0.4,-0.07386000000000004,0.09338000000000002,0.07347999999999999,-0.20499999999999996,-0.15500000000000003,0.08000000000000007,0.00770000000000004,-0.00012000000000000899,0.056519999999999904,1742248590.9232068
-0.485,0.29000000000000004,-0.32000000000000006,0.07373999999999992,0.04944000000000015,-0.02501999999999993,-0.3400000000000001,-0.16000000000000003,-0.10999999999999999,0.04492000000000007,0.04027999999999987,-0.032340000000000035,1742248591.034314
-0.35,0.45999999999999996,-0.235,0.0908199999999999,-0.07116,-0.10572000000000004,-0.535,-0.010000000000000009,-0.07999999999999996,0.056400000000000006,0.13659999999999983,-0.04944000000000004,1742248591.148478
-0.125,0.19500000000000006,-0.010000000000000009,0.025519999999999987,0.02526000000000006,-0.02415999999999996,-0.605,-0.04500000000000004,-0.14500000000000002,-0.1311,0.06761999999999979,0.09742000000000006,1742248591.263065
-0.28,0.30499999999999994,-0.16500000000000004,-0.06262000000000001,0.11559999999999993,0.048579999999999846,-0.495,-0.10999999999999999,-0.27,-0.06541999999999992,-0.06616,0.0638399999999999,1742248591.3831282
-0.495,0.3599999999999999,-0.355,-0.047719999999999985,0.11988000000000021,0.037959999999999994,-0.19500000000000006,-0.16500000000000004,0.06000000000000005,-0.0012199999999999989,-0.0040200000000000236,0.07359999999999989,1742248591.490158
-0.475,0.2849999999999999,-0.26,-0.012319999999999998,0.11914000000000002,-0.00048000000000003595,-0.45999999999999996,-0.15500000000000003,-0.040000000000000036,0.054079999999999906,0.07079999999999997,-0.09789999999999999,1742248591.607403
-0.30499999999999994,0.41500000000000004,-0.245,0.025640000000000107,-0.08263999999999994,-0.023799999999999932,-0.44500000000000006,-0.07999999999999996,-0.07999999999999996,0.08850000000000002,0.09498000000000006,-0.06725999999999999,1742248591.72353
-0.10999999999999999,0.2749999999999999,-0.020000000000000018,0.017340000000000133,-0.006720000000000059,-0.02942,-0.61,-0.08999999999999997,-0.11499999999999999,-0.07496000000000003,0.03992000000000018,0.04845999999999995,1742248591.832243
-0.30499999999999994,0.30499999999999994,-0.18500000000000005,-0.0549400000000001,0.06603999999999988,0.041380000000000194,-0.4650000000000001,0.030000000000000027,-0.345,-0.06725999999999999,-0.11499999999999999,0.06323999999999996,1742248591.946222
-0.41999999999999993,0.31000000000000005,-0.3400000000000001,0.0008600000000000829,0.05396000000000001,0.021479999999999944,-0.245,-0.15500000000000003,-0.0050000000000000044,0.027700000000000058,-0.0012199999999999989,0.002080000000000082,1742248592.0657651
-0.45999999999999996,0.3400000000000001,-0.265,0.06018000000000012,0.06567999999999996,-0.02954000000000001,-0.35,-0.16000000000000003,-0.07999999999999996,0.018179999999999863,0.01550000000000007,-0.05125999999999997,1742248592.1744058
-0.32000000000000006,0.45999999999999996,-0.22999999999999998,-0.07946000000000009,-0.09826000000000001,0.04259999999999997,-0.51,-0.07499999999999996,-0.14,0.10033999999999987,0.08118000000000003,-0.07568000000000008,1742248592.288227
-0.12,0.24,0.010000000000000009,0.002080000000000082,-0.010739999999999972,-0.02501999999999993,-0.53,-0.06000000000000005,-0.10499999999999998,-0.07091999999999998,0.015260000000000051,0.021360000000000046,1742248592.403703
-0.22999999999999998,0.29000000000000004,-0.11499999999999999,-0.014900000000000024,0.09143999999999997,0.026980000000000004,-0.56,-0.06499999999999995,-0.21999999999999997,-0.13244,-0.10450000000000004,0.05797999999999992,1742248592.5243
-0.62,0.355,-0.49,-0.12208000000000008,0.12207999999999997,0.15820000000000012,-0.17999999999999994,-0.16000000000000003,0.11499999999999999,-0.04467999999999994,0.021600000000000064,0.09935999999999989,1742248592.630132
-0.42999999999999994,0.2749999999999999,-0.29499999999999993,0.014399999999999968,0.021600000000000064,-0.014900000000000024,-0.39,-0.16500000000000004,-0.07499999999999996,0.07776000000000005,0.043460000000000054,-0.08362000000000003,1742248592.744121
-0.33499999999999996,0.32499999999999996,-0.29000000000000004,0.03735999999999984,-0.07701999999999998,-0.047860000000000014,-0.545,0.004999999999999893,-0.14500000000000002,0.13561999999999985,0.14844000000000013,-0.14808,1742248592.863102
-0.15500000000000003,0.22999999999999998,0.02499999999999991,-0.034420000000000006,-0.0050000000000000044,0.016960000000000086,-0.5,-0.05500000000000005,-0.13,-0.07579999999999998,0.04688000000000003,0.0307599999999999,1742248592.972233
-0.265,0.2450000000000001,-0.18999999999999995,-0.02076,0.10021999999999998,0.062140000000000084,-0.505,-0.08499999999999996,-0.08999999999999997,-0.12561999999999995,-0.06981999999999988,0.04785999999999979,1742248593.086914
-0.45999999999999996,0.30499999999999994,-0.405,-0.04908000000000001,0.07835999999999999,0.1038800000000002,-0.33000000000000007,-0.14,0.0,-0.027220000000000022,-0.020019999999999927,0.06298000000000004,1742248593.203381
-0.41500000000000004,0.29000000000000004,-0.28,0.04188000000000014,-0.011240000000000028,-0.025399999999999978,-0.38,-0.135,-0.14500000000000002,0.06651999999999991,0.011600000000000055,-0.029779999999999918,1742248593.314142
-0.32000000000000006,0.2749999999999999,-0.18500000000000005,-0.03955999999999993,-0.08263999999999994,-0.0037800000000000056,-0.43999999999999995,-0.050000000000000044,-0.20999999999999996,0.07776000000000005,0.02635999999999994,-0.06799999999999995,1742248593.428133
-0.31499999999999995,0.2849999999999999,-0.19500000000000006,0.03527999999999998,-0.08557999999999999,-0.04418,-0.56,-0.025000000000000022,-0.235,0.011239999999999917,0.029059999999999864,-0.053220000000000045,1742248593.544926
-0.28,0.3500000000000001,-0.19999999999999996,-0.08629999999999993,0.018320000000000114,0.04956000000000005,-0.52,-0.04500000000000004,-0.22499999999999998,-0.021360000000000046,-0.07934000000000008,0.01550000000000007,1742248593.663178
-0.20499999999999996,0.2549999999999999,-0.16500000000000004,-0.07555999999999996,0.09472000000000014,0.045420000000000016,-0.365,-0.08499999999999996,-0.08999999999999997,-0.14490000000000003,-0.06701999999999997,0.0709200000000001,1742248593.7702
-0.39,0.32499999999999996,-0.31499999999999995,0.07177999999999995,-0.01317999999999997,-0.02198,-0.43999999999999995,-0.11499999999999999,-0.17000000000000004,0.07654000000000005,-0.02403999999999995,-0.0343,1742248593.884228
-0.32000000000000006,0.28,-0.18999999999999995,0.06359999999999988,-0.0700599999999999,-0.029899999999999927,-0.45999999999999996,-0.06499999999999995,-0.17500000000000004,0.03649999999999998,0.05479999999999996,-0.02942,1742248594.00335
-0.24,0.2849999999999999,-0.13,0.07068000000000008,-0.06213999999999997,-0.06762000000000001,-0.56,-0.050000000000000044,-0.235,0.041380000000000194,0.03064,-0.08362000000000003,1742248594.112104
-0.30000000000000004,0.3500000000000001,-0.25,-0.04503999999999997,0.014639999999999986,0.020499999999999963,-0.575,-0.04500000000000004,-0.235,-0.04858000000000007,-0.037959999999999994,0.017940000000000067,1742248594.22624
-0.33000000000000007,0.31000000000000005,-0.20499999999999996,-0.033440000000000025,0.0920399999999999,0.04601999999999995,-0.475,-0.015000000000000013,-0.33000000000000007,-0.04920000000000002,-0.10753999999999997,0.03394000000000008,1742248594.342711
-0.42999999999999994,0.33000000000000007,-0.36,0.00048000000000003595,0.02222000000000013,0.03283999999999998,-0.4099999999999999,-0.16500000000000004,-0.10499999999999998,0.01977999999999991,-0.021720000000000073,0.009519999999999973,1742248594.454147
-0.4,0.32000000000000006,-0.22999999999999998,0.044319999999999915,0.041020000000000056,-0.03527999999999998,-0.42999999999999994,-0.125,-0.20499999999999996,0.018799999999999928,-0.015619999999999967,-0.0010999999999999899,1742248594.568233
-0.31499999999999995,0.30499999999999994,-0.235,0.0031799999999999606,-0.059700000000000086,-0.008539999999999992,-0.4650000000000001,-0.08499999999999996,-0.18500000000000005,0.043339999999999934,0.07288000000000006,-0.01085999999999998,1742248594.683367
-0.26,0.2749999999999999,-0.15000000000000002,0.031239999999999934,-0.03198000000000001,-0.033440000000000025,-0.645,-0.07000000000000006,-0.31499999999999995,-0.03320000000000001,-0.0029199999999999227,-0.019540000000000002,1742248594.803572
-0.30499999999999994,0.345,-0.28,-0.036860000000000004,-0.02855999999999992,-0.0075599999999999,-0.495,-0.135,-0.18500000000000005,-0.03760000000000008,-0.026859999999999995,0.06896000000000013,1742248594.910262
-0.22499999999999998,0.29499999999999993,-0.16500000000000004,-0.021240000000000037,0.03259999999999996,0.0036599999999999966,-0.4099999999999999,-0.11499999999999999,-0.17999999999999994,-0.026000000000000023,-0.14246000000000003,0.03917999999999999,1742248595.0244522
-0.3400000000000001,0.31499999999999995,-0.22999999999999998,0.07776000000000005,0.018440000000000012,-0.011960000000000082,-0.41500000000000004,-0.09999999999999998,-0.17500000000000004,0.05944000000000016,-0.012580000000000036,-0.04491999999999996,1742248595.143517
-0.27,0.3500000000000001,-0.20499999999999996,0.009519999999999973,-0.04491999999999996,0.014399999999999968,-0.30000000000000004,-0.010000000000000009,-0.09999999999999998,0.09888000000000008,0.09814000000000012,-0.10229999999999995,1742248595.252154
-0.21499999999999997,0.29000000000000004,-0.125,0.00024000000000001798,-0.027100000000000013,-0.013419999999999987,-0.6,-0.10499999999999998,-0.25,-0.047719999999999985,0.01415999999999995,0.0031799999999999606,1742248595.3661098
-0.245,0.33000000000000007,-0.19500000000000006,-0.0026799999999999047,0.051140000000000185,-0.020259999999999945,-0.53,-0.11499999999999999,-0.14,-0.10705999999999993,-0.06323999999999996,0.08251999999999993,1742248595.483056
-0.41999999999999993,0.26,-0.2849999999999999,-0.030279999999999974,0.15052,0.03370000000000006,-0.26,-0.09999999999999998,0.050000000000000044,-0.11450000000000005,-0.016000000000000014,0.11158000000000001,1742248595.59403
-0.31499999999999995,0.26,-0.20499999999999996,0.11083999999999983,0.034660000000000135,-0.07201999999999997,-0.345,-0.17000000000000004,-0.09999999999999998,0.07811999999999997,0.05468000000000006,-0.06458000000000008,1742248595.708044
-0.345,0.385,-0.26,-0.06053999999999993,-0.07238,0.03723999999999994,-0.38,-0.025000000000000022,-0.10999999999999999,0.09777999999999998,0.13270000000000004,-0.10302,1742248595.8231502
-0.18999999999999995,0.21999999999999997,-0.015000000000000013,0.016240000000000032,0.021479999999999944,-0.019159999999999955,-0.43999999999999995,-0.07999999999999996,-0.125,-0.07287999999999994,0.010739999999999972,0.06555999999999984,1742248595.94323
-0.235,0.30499999999999994,-0.17000000000000004,-0.014039999999999941,0.05479999999999996,0.012939999999999952,-0.51,-0.15000000000000002,-0.14500000000000002,-0.07922000000000007,-0.06213999999999997,0.09400000000000008,1742248596.050121
-0.41999999999999993,0.30000000000000004,-0.26,-0.03295999999999999,0.11949999999999994,0.09582000000000002,-0.22999999999999998,-0.14,0.030000000000000027,-0.05920000000000003,-0.014399999999999968,0.09472000000000014,1742248596.1641018
-0.31000000000000005,0.25,-0.16000000000000003,0.07288000000000006,0.03869999999999996,-0.06053999999999993,-0.33499999999999996,-0.14500000000000002,-0.07999999999999996,0.11059999999999981,0.0014600000000000168,-0.08299999999999996,1742248596.283246
-0.31499999999999995,0.3400000000000001,-0.15500000000000003,0.07116000000000011,-0.12475999999999998,-0.053100000000000036,-0.395,-0.05500000000000005,-0.17500000000000004,0.13294000000000006,0.11743999999999999,-0.08204,1742248596.392071
-0.20499999999999996,0.26,-0.07499999999999996,0.027839999999999865,-0.02294000000000007,-0.05908000000000002,-0.54,-0.07000000000000006,-0.22999999999999998,-0.049679999999999946,0.019039999999999946,0.015859999999999985,1742248596.506034
-0.275,0.345,-0.20499999999999996,-0.008419999999999983,0.053220000000000045,0.01415999999999995,-0.545,-0.10999999999999999,-0.17999999999999994,-0.015859999999999985,-0.09265999999999996,0.025640000000000107,1742248596.6226392
-0.29000000000000004,0.33000000000000007,-0.20999999999999996,-0.026859999999999995,0.07190000000000007,0.035760000000000014,-0.475,-0.13,-0.14,-0.07213999999999998,-0.14002000000000003,0.054200000000000026,1742248596.742516
-0.47,0.365,-0.39,-0.02210000000000001,-0.0027999999999999137,0.00878000000000001,-0.355,-0.15500000000000003,-0.135,0.08338000000000001,-0.029299999999999993,-0.01208000000000009,1742248596.848159
-0.3400000000000001,0.30000000000000004,-0.28,0.022699999999999942,-0.08641999999999994,-0.026000000000000023,-0.32499999999999996,-0.12,-0.03500000000000003,0.025519999999999987,0.11194000000000015,0.018179999999999863,1742248596.963084
-0.31000000000000005,0.33000000000000007,-0.17999999999999994,0.0047600000000000975,-0.1433199999999999,-0.006099999999999994,-0.67,-0.025000000000000022,-0.31499999999999995,0.04064000000000001,0.0578599999999998,-0.09498000000000006,1742248597.076045
-0.29000000000000004,0.385,-0.22999999999999998,-0.05615999999999999,0.00011999999999989797,0.020620000000000083,-0.6,-0.025000000000000022,-0.30000000000000004,0.0036599999999999966,-0.06140000000000001,-0.0024400000000001087,1742248597.190164
-0.25,0.33499999999999996,-0.16000000000000003,-0.04200000000000004,0.07311999999999985,0.018059999999999965,-0.45999999999999996,-0.10499999999999998,-0.32499999999999996,-0.022220000000000018,-0.20775999999999994,0.01550000000000007,1742248597.304138
-0.54,0.395,-0.39,-0.0675,0.08094000000000001,0.07690000000000019,-0.33499999999999996,-0.15000000000000002,-0.040000000000000036,0.07618000000000014,-0.012580000000000036,-0.011240000000000028,1742248597.42317
-0.37,0.32000000000000006,-0.20999999999999996,0.15283999999999986,-0.10498000000000007,-0.05628,-0.5,-0.13,-0.10999999999999999,0.09020000000000006,0.10230000000000006,-0.02210000000000001,1742248597.532046
-0.30000000000000004,0.3500000000000001,-0.125,0.046499999999999986,-0.13573999999999997,-0.07079999999999997,-0.755,-0.06499999999999995,-0.385,0.035519999999999996,0.04468000000000005,-0.07555999999999996,1742248597.645958
-0.235,0.32000000000000006,-0.17999999999999994,-0.04870000000000008,0.018799999999999928,-0.006220000000000003,-0.55,-0.025000000000000022,-0.26,-0.01427999999999996,-0.07323999999999997,0.006340000000000012,1742248597.763183
-0.31000000000000005,0.3900000000000001,-0.20999999999999996,-0.04932000000000003,0.11524000000000001,0.07445999999999997,-0.495,-0.135,-0.16000000000000003,-0.045419999999999905,-0.15661999999999998,0.015139999999999931,1742248597.874073
-0.44500000000000006,0.355,-0.33000000000000007,-0.02307999999999999,0.025640000000000107,0.025880000000000125,-0.30499999999999994,-0.16000000000000003,-0.08499999999999996,0.059579999999999966,-0.015619999999999967,0.0007399999999999629,1742248597.988072
-0.36,0.3599999999999999,-0.22499999999999998,0.1311,-0.054200000000000026,-0.07128000000000001,-0.32499999999999996,-0.11499999999999999,-0.08499999999999996,0.0343,0.06469999999999998,0.025880000000000125,1742248598.10756
-0.275,0.28,-0.30499999999999994,-0.059820000000000095,-0.18603999999999998,-0.02954000000000001,-0.54,-0.05500000000000005,-0.25,-0.0013400000000000079,0.11633999999999989,-0.03479999999999994,1742248598.223632
-0.22999999999999998,0.30499999999999994,-0.15000000000000002,-0.029899999999999927,0.009759999999999991,-0.0048799999999999955,-0.6,-0.06499999999999995,-0.265,-0.06603999999999999,-0.014039999999999941,0.011719999999999953,1742248598.330077
-0.21999999999999997,0.29499999999999993,-0.14,-0.011099999999999999,0.08190000000000008,-0.00024000000000001798,-0.44500000000000006,-0.08999999999999997,-0.21499999999999997,-0.09448000000000001,-0.07177999999999995,0.04968000000000017,1742248598.444095
-0.44500000000000006,0.345,-0.32499999999999996,-0.05152000000000001,0.04747999999999997,0.11253999999999986,-0.21999999999999997,-0.17999999999999994,0.014999999999999902,-0.0017000000000000348,0.0042800000000000615,0.02185999999999999,1742248598.565127
-0.45999999999999996,0.2749999999999999,-0.4099999999999999,-0.03649999999999998,-0.04932000000000003,0.02088000000000001,-0.33000000000000007,-0.16000000000000003,-0.09499999999999997,0.038819999999999855,0.06922000000000006,0.010860000000000092,1742248598.671894
-0.31000000000000005,0.385,-0.29499999999999993,-0.15148000000000006,-0.1825,0.02404000000000006,-0.58,-0.07000000000000006,-0.235,0.08496000000000015,0.08460000000000001,-0.09986000000000006,1742248598.785974
-0.265,0.29499999999999993,-0.17999999999999994,-0.05274000000000001,0.00865999999999989,0.018059999999999965,-0.57,-0.030000000000000027,-0.30000000000000004,-0.05003999999999997,-0.02758000000000005,0.019279999999999964,1742248598.902747
-0.2849999999999999,0.3400000000000001,-0.17999999999999994,-0.023679999999999923,0.09802,0.02526000000000006,-0.495,-0.09999999999999998,-0.4099999999999999,-0.02307999999999999,-0.21153999999999995,0.029779999999999918,1742248599.014024
-0.52,0.45999999999999996,-0.43500000000000005,-0.06910000000000005,0.010380000000000056,0.05711999999999984,-0.37,-0.21499999999999997,-0.13,0.06335999999999986,-0.029299999999999993,0.005859999999999976,1742248599.127915
-0.42500000000000004,0.375,-0.42500000000000004,0.02635999999999994,-0.07996000000000003,0.001100000000000101,-0.32499999999999996,-0.125,-0.05500000000000005,0.0295399999999999,0.13378,0.005619999999999958,1742248599.243507
-0.38,0.355,-0.19500000000000006,-0.0393,-0.18200000000000005,-0.014519999999999977,-0.685,-0.05500000000000005,-0.32000000000000006,0.05042000000000013,0.05615999999999999,-0.11327999999999994,1742248599.363034
-0.21999999999999997,0.32000000000000006,-0.16000000000000003,-0.05003999999999997,0.0032999999999998586,0.016960000000000086,-0.59,-0.040000000000000036,-0.29499999999999993,0.010380000000000056,-0.031379999999999963,-0.0514,1742248599.470008
-0.21499999999999997,0.2650000000000001,-0.17500000000000004,-0.02100000000000002,0.07603999999999989,0.01305999999999985,-0.51,-0.09499999999999997,-0.12,-0.12536000000000003,-0.08936,0.059579999999999966,1742248599.586425
-0.45999999999999996,0.3400000000000001,-0.37,-0.01525999999999994,0.04601999999999995,0.05018000000000011,-0.24,-0.16500000000000004,-0.015000000000000013,0.005980000000000096,-0.014039999999999941,0.037839999999999874,1742248599.702681
-0.42999999999999994,0.30499999999999994,-0.3400000000000001,0.06433999999999984,-0.025519999999999987,-0.024899999999999922,-0.33000000000000007,-0.15000000000000002,-0.15000000000000002,-0.0026799999999999047,0.06761999999999979,0.03161999999999998,1742248599.811956
-0.31499999999999995,0.2250000000000001,-0.4,0.00537999999999994,-0.08240000000000003,-0.02525999999999995,-0.485,-0.06499999999999995,-0.19500000000000006,0.08801999999999999,0.10559999999999992,-0.11634,1742248599.925919
-0.17500000000000004,0.2450000000000001,-0.07499999999999996,-0.01208000000000009,0.0039000000000000146,-0.0037800000000000056,-0.55,-0.025000000000000022,-0.21499999999999997,-0.09704000000000002,0.02075999999999989,0.05235999999999996,1742248600.044757
-0.18999999999999995,0.2650000000000001,-0.10999999999999999,0.0007399999999999629,0.07714000000000021,-0.021480000000000055,-0.42999999999999994,-0.11499999999999999,-0.135,-0.08299999999999996,-0.06896000000000002,0.05468000000000006,1742248600.1540182
-0.595,0.385,-0.375,-0.10521999999999998,0.17491999999999996,0.12963999999999998,-0.22499999999999998,-0.18500000000000005,0.11499999999999999,0.023560000000000025,-0.06152000000000002,-0.012700000000000045,1742248600.267942
-0.485,0.33000000000000007,-0.49,0.016119999999999912,-0.12181999999999993,0.022699999999999942,-0.39,-0.18999999999999995,-0.13,0.06469999999999998,0.12683999999999984,0.0039000000000000146,1742248600.3830662
-0.42999999999999994,0.375,-0.525,-0.0009799999999999809,-0.19628,-0.08008000000000004,-0.595,-0.06499999999999995,-0.20999999999999996,0.11352000000000007,0.07068000000000008,-0.13244,1742248600.503262
-0.255,0.3599999999999999,-0.17000000000000004,-0.027959999999999985,-0.01636000000000004,-0.02855999999999992,-0.535,-0.04500000000000004,-0.245,-0.03858000000000006,0.009519999999999973,0.048960000000000115,1742248600.609945
-0.18999999999999995,0.2749999999999999,-0.15500000000000003,-0.00878000000000001,0.03735999999999984,-0.03295999999999999,-0.38,-0.04500000000000004,-0.12,-0.010739999999999972,-0.03601999999999994,0.06555999999999984,1742248600.723916
-0.29000000000000004,0.2849999999999999,-0.22499999999999998,-0.019039999999999946,0.10949999999999993,0.05821999999999994,-0.235,-0.16000000000000003,-0.050000000000000044,-0.04418,0.0042800000000000615,0.07496000000000014,1742248600.843319
-0.365,0.33000000000000007,-0.21499999999999997,0.13829999999999987,0.06188000000000016,-0.07740000000000002,-0.33499999999999996,-0.15500000000000003,-0.15000000000000002,0.10314000000000001,0.0029200000000000337,-0.03272000000000008,1742248600.951968
-0.255,0.29000000000000004,-0.25,0.08885999999999994,-0.10875999999999997,-0.037959999999999994,-0.54,-0.05500000000000005,-0.22499999999999998,0.15283999999999986,0.14246000000000003,-0.09118000000000004,1742248601.0658612
-0.19500000000000006,0.25,-0.09499999999999997,-0.03295999999999999,0.027220000000000022,0.007200000000000095,-0.555,-0.050000000000000044,-0.26,-0.10218000000000005,0.0023200000000000998,-0.0007399999999999629,1742248601.182509
-0.265,0.30499999999999994,-0.07999999999999996,0.034540000000000015,0.14808,0.007440000000000113,-0.45999999999999996,-0.09999999999999998,-0.405,-0.09265999999999996,-0.18286000000000002,0.05164000000000013,1742248601.302295
-0.5,0.43999999999999995,-0.375,-0.052000000000000046,0.037839999999999874,0.017079999999999984,-0.29000000000000004,-0.17500000000000004,-0.06000000000000005,0.03308,-0.038940000000000086,0.0025599999999998957,1742248601.407857
-0.4,0.33000000000000007,-0.32499999999999996,0.11083999999999983,-0.12951999999999997,-0.0502999999999999,-0.4650000000000001,-0.15500000000000003,-0.06499999999999995,0.09985999999999984,0.17101999999999995,0.011840000000000073,1742248601.523937
-0.25,0.2549999999999999,-0.17000000000000004,0.06457999999999986,-0.11181999999999992,-0.07055999999999996,-0.795,-0.06000000000000005,-0.4650000000000001,0.020999999999999908,0.035640000000000116,-0.04870000000000008,1742248601.643522
-0.2849999999999999,0.3500000000000001,-0.22999999999999998,-0.061880000000000046,0.008179999999999854,0.030999999999999917,-0.6,-0.07000000000000006,-0.29499999999999993,-0.03503999999999996,-0.08118000000000003,-0.019279999999999964,1742248601.750015
-0.32000000000000006,0.3400000000000001,-0.17000000000000004,0.029900000000000038,0.15270000000000006,0.049799999999999844,-0.475,-0.14500000000000002,-0.125,-0.10144000000000009,-0.14903999999999995,0.05699999999999994,1742248601.863915
-0.45999999999999996,0.375,-0.33499999999999996,-0.019039999999999946,0.015619999999999967,0.022340000000000027,-0.30499999999999994,-0.15500000000000003,-0.08999999999999997,0.033320000000000016,-0.029779999999999918,0.010380000000000056,1742248601.9830348
-0.39,0.3700000000000001,-0.28,0.06481999999999988,-0.09216000000000002,-0.041019999999999945,-0.32000000000000006,-0.125,-0.12,0.03308,0.06884000000000001,0.03516000000000008,1742248602.091788
-0.31499999999999995,0.3700000000000001,-0.32499999999999996,-0.05688000000000004,-0.16688000000000003,-0.07275999999999994,-0.57,-0.04500000000000004,-0.30499999999999994,0.04405999999999999,0.04248000000000007,-0.07508000000000004,1742248602.20584
-0.245,0.30499999999999994,-0.12,-0.05065999999999993,0.015859999999999985,0.01195999999999997,-0.56,-0.06499999999999995,-0.345,-0.08189999999999997,-0.0024400000000001087,0.08142000000000005,1742248602.323213
-0.22499999999999998,0.30499999999999994,-0.07999999999999996,-0.005859999999999976,0.19555999999999996,-0.0029199999999999227,-0.48,-0.17999999999999994,-0.14,-0.14624000000000004,-0.16370000000000007,0.10533999999999999,1742248602.433916
-0.495,0.4950000000000001,-0.42999999999999994,-0.025519999999999987,-0.013419999999999987,0.035519999999999996,-0.29000000000000004,-0.20499999999999996,-0.12,0.12353999999999998,-0.010619999999999963,-0.030279999999999974,1742248602.54793
-0.36,0.3500000000000001,-0.25,0.06555999999999984,-0.16174,0.0012199999999999989,-0.48,-0.12,-0.11499999999999999,0.03283999999999998,0.12182000000000004,-0.08299999999999996,1742248602.662865
-0.21999999999999997,0.2650000000000001,-0.08999999999999997,0.011479999999999935,-0.10058,-0.052240000000000064,-0.68,-0.07499999999999996,-0.33499999999999996,-0.005499999999999949,0.0343,-0.017220000000000013,1742248602.783359
-0.24,0.3400000000000001,-0.17500000000000004,-0.029899999999999927,0.018440000000000012,0.0040199999999999125,-0.525,-0.11499999999999999,-0.25,-0.016240000000000032,-0.05249999999999999,0.034660000000000135,1742248602.889904
-0.2849999999999999,0.31000000000000005,-0.19500000000000006,-0.017340000000000022,0.11229999999999984,-0.021120000000000028,-0.32000000000000006,-0.15500000000000003,0.014999999999999902,-0.13514000000000004,-0.012580000000000036,0.09349999999999992,1742248603.0041878
-0.345,0.33499999999999996,-0.30499999999999994,0.005740000000000078,-0.026859999999999995,0.004999999999999893,-0.31000000000000005,-0.15000000000000002,-0.18500000000000005,0.03968000000000016,0.01097999999999999,0.010620000000000074,1742248603.12262
-0.3400000000000001,0.45999999999999996,-0.20499999999999996,0.11914000000000002,-0.03834000000000004,-0.07446000000000008,-0.33499999999999996,-0.13,-0.06000000000000005,0.02942,0.08142000000000005,0.01195999999999997,1742248603.231699
-0.33499999999999996,0.28,-0.385,-0.09986000000000006,-0.17589999999999995,0.01635999999999993,-0.565,-0.125,-0.24,0.07166000000000006,0.08948,-0.10120000000000007,1742248603.345927
-0.32000000000000006,0.3500000000000001,-0.20499999999999996,0.013299999999999867,-0.06922000000000006,0.0029200000000000337,-0.53,-0.11499999999999999,-0.17999999999999994,0.09851999999999994,0.08081999999999989,-0.0966800000000001,1742250017.53086
-0.245,0.3500000000000001,-0.04500000000000004,-0.04920000000000002,-0.09692,0.010860000000000092,-0.605,-0.040000000000000036,-0.275,-0.0502999999999999,0.06788000000000016,0.07972000000000001,1742250017.6448169
-0.19999999999999996,0.29000000000000004,-0.125,-0.18896000000000002,-0.016120000000000023,0.09045999999999998,-0.18500000000000005,-0.14500000000000002,0.20999999999999996,-0.10887999999999998,0.007319999999999993,0.07543999999999995,1742250017.762381
-0.545,0.2650000000000001,-0.45999999999999996,-0.16955999999999993,0.14757999999999982,0.18530000000000002,-0.32499999999999996,-0.15000000000000002,0.02499999999999991,0.09400000000000008,0.08507999999999982,-0.04688000000000003,1742250017.872684
-0.605,0.2749999999999999,-0.525,0.12829999999999986,-0.03979999999999995,-0.0601799999999999,-0.855,0.06499999999999995,-0.485,0.12438000000000016,0.017220000000000013,-0.08862000000000003,1742250017.986737
-0.11499999999999999,0.2749999999999999,0.02499999999999991,0.06481999999999988,-0.07020000000000004,-0.10096000000000005,-0.52,0.0,-0.22499999999999998,-0.17381999999999997,-0.16064,0.04235999999999995,1742250018.103816
-0.33000000000000007,0.19999999999999996,-0.08499999999999996,-0.07629999999999992,0.10899999999999999,0.04418000000000011,-0.18500000000000005,-0.20499999999999996,0.10000000000000009,-0.0009799999999999809,-0.01648000000000005,0.026859999999999884,1742250018.21488
-0.57,0.4099999999999999,-0.45500000000000007,-0.014780000000000015,0.03161999999999998,0.017220000000000013,-0.48,-0.16000000000000003,-0.05500000000000005,0.12098000000000009,0.15257999999999994,-0.05113999999999996,1742250018.330204
-0.4099999999999999,0.21500000000000008,-0.13,-0.055419999999999914,-0.1532,-0.02100000000000002,-0.85,-0.0050000000000000044,-0.405,-0.047599999999999976,-0.017820000000000058,0.052240000000000064,1742250018.442863
-0.07999999999999996,0.2849999999999999,0.15999999999999992,-0.0041599999999999415,-0.05188000000000004,-0.046760000000000024,-0.385,-0.020000000000000018,-0.24,-0.13231999999999988,-0.17015999999999998,0.08216000000000001,1742250018.556871
-0.245,0.2749999999999999,-0.03500000000000003,-0.04858000000000007,0.21483999999999992,0.05274000000000001,-0.27,-0.25,0.0,0.10046,0.02844000000000002,-0.027840000000000087,1742250018.67071
-0.43500000000000005,0.3700000000000001,-0.21499999999999997,0.15966000000000014,0.01635999999999993,-0.08299999999999996,-0.71,-0.05500000000000005,-0.245,0.1847000000000001,0.08594000000000013,-0.16405999999999998,1742250018.784773
-0.29499999999999993,0.33000000000000007,-0.275,0.05003999999999986,-0.2669600000000001,-0.09204000000000001,-0.57,-0.010000000000000009,-0.33000000000000007,-0.08665999999999996,-0.026859999999999995,0.08409999999999984,1742250018.904657
-0.17500000000000004,0.31000000000000005,-0.07000000000000006,-0.10046,-0.021120000000000028,0.05176000000000003,-0.17000000000000004,-0.31499999999999995,0.27,-0.06335999999999997,0.031119999999999814,0.11340000000000017,1742250019.0164511
-0.58,0.3400000000000001,-0.55,-0.14294000000000007,0.14403999999999995,0.05920000000000014,-0.32000000000000006,-0.22499999999999998,0.02499999999999991,0.05090000000000017,0.10864000000000007,0.004999999999999893,1742250019.126614
-0.43999999999999995,0.365,-0.42999999999999994,0.09277999999999986,-0.09436,-0.13061999999999996,-0.94,-0.10499999999999998,-0.515,-0.0008599999999999719,-0.04503999999999997,-0.042360000000000064,1742250019.24395
-0.08499999999999996,0.3400000000000001,0.15999999999999992,0.04248000000000007,-0.060799999999999965,-0.008919999999999928,-0.41999999999999993,-0.15000000000000002,-0.20499999999999996,-0.17468000000000006,-0.12622,0.11426000000000003,1742250019.3548532
-0.29000000000000004,0.31000000000000005,-0.025000000000000022,-0.13561999999999996,0.19202000000000008,0.05346000000000006,-0.28,-0.29000000000000004,0.010000000000000009,0.10057999999999989,0.005740000000000078,-0.014039999999999941,1742250019.468721
-0.405,0.41500000000000004,-0.17500000000000004,0.08983999999999992,-0.06347999999999998,-0.036619999999999986,-0.43500000000000005,-0.17999999999999994,-0.22499999999999998,0.1814,0.13427999999999995,-0.06799999999999995,1742250019.583428
-0.18500000000000005,0.22999999999999998,-0.07000000000000006,0.09411999999999998,-0.10620000000000007,-0.026739999999999986,-0.825,-0.14500000000000002,-0.25,-0.005979999999999985,-0.0029199999999999227,-0.03637999999999997,1742250019.696842
-0.14500000000000002,0.28,-0.025000000000000022,-0.03698000000000001,-0.049799999999999955,0.06640000000000001,-0.45999999999999996,-0.21999999999999997,-0.11499999999999999,-0.23072000000000004,-0.24303999999999992,0.016599999999999948,1742250019.810949
-0.22999999999999998,0.17999999999999994,-0.17000000000000004,-0.17137999999999998,0.17271999999999998,0.09644000000000008,-0.245,-0.18999999999999995,-0.050000000000000044,0.16881999999999997,-0.054200000000000026,-0.13598,1742250019.9250538
-0.365,0.29499999999999993,-0.24,0.24694000000000016,0.11583999999999994,-0.13696000000000008,-0.71,-0.07999999999999996,-0.33499999999999996,0.17396000000000011,0.028939999999999966,-0.08679999999999999,1742250020.045208
-0.17500000000000004,0.17500000000000004,0.18999999999999995,0.08203999999999989,-0.07020000000000004,-0.08629999999999993,-0.55,-0.06499999999999995,-0.33499999999999996,-0.1986,-0.09105999999999992,0.11976000000000009,1742250020.152817
-0.21999999999999997,0.2749999999999999,-0.020000000000000018,-0.08716000000000002,0.0697000000000001,0.05164000000000013,-0.125,-0.265,0.19500000000000006,-0.02185999999999999,-0.008539999999999992,0.03503999999999996,1742250020.2668428
-0.58,0.43999999999999995,-0.54,-0.15942,0.012820000000000054,0.10192000000000001,-0.395,-0.17000000000000004,-0.10499999999999998,0.12220000000000009,0.2257,-0.01770000000000005,1742250020.384539
-0.33000000000000007,0.32000000000000006,-0.03500000000000003,-0.008299999999999974,-0.16748000000000007,0.027579999999999938,-0.71,-0.07499999999999996,-0.275,-0.04798000000000002,0.0043999999999999595,0.0354000000000001,1742250020.4947069
-0.19500000000000006,0.31000000000000005,-0.010000000000000009,0.019400000000000084,-0.02061999999999997,-0.03064,-0.39,-0.20499999999999996,-0.17500000000000004,-0.15394000000000008,-0.22387999999999997,0.03088000000000002,1742250020.608803
-0.21999999999999997,0.22999999999999998,-0.14500000000000002,-0.21058,0.19446000000000008,0.06298000000000004,-0.29000000000000004,-0.275,-0.05500000000000005,0.08935999999999988,-0.03320000000000001,-0.03870000000000007,1742250020.728531
-0.4,0.31499999999999995,-0.21999999999999997,0.21873999999999993,0.11376000000000008,-0.14379999999999993,-0.735,-0.07499999999999996,-0.26,0.17090000000000005,0.036619999999999875,-0.15222000000000002,1742250020.836703
-0.235,0.23499999999999988,0.05499999999999994,0.11146000000000011,-0.21118000000000003,-0.07531999999999994,-0.525,-0.16000000000000003,-0.245,-0.08789999999999998,-0.050779999999999936,0.08972000000000002,1742250020.9507232
-0.20499999999999996,0.2650000000000001,-0.08499999999999996,-0.043220000000000036,0.05090000000000017,-0.0008599999999999719,-0.07000000000000006,-0.30499999999999994,0.3400000000000001,-0.09020000000000006,0.016240000000000032,0.043339999999999934,1742250021.064877
-0.615,0.43999999999999995,-0.65,-0.21105999999999991,0.0578599999999998,0.17053999999999991,-0.37,-0.17500000000000004,0.014999999999999902,0.08790000000000009,0.2086199999999998,0.012199999999999989,1742250021.1785111
-0.345,0.28,-0.21499999999999997,0.06298000000000004,-0.16076000000000001,-0.03710000000000002,-0.665,-0.08999999999999997,-0.235,-0.01317999999999997,0.009519999999999973,0.04027999999999987,1742250021.291699
-0.15000000000000002,0.29499999999999993,0.040000000000000036,-0.0017000000000000348,-0.013539999999999996,-0.005619999999999958,-0.385,-0.20499999999999996,-0.355,-0.19323999999999997,-0.2060599999999999,0.0341800000000001,1742250021.405733
-0.22499999999999998,0.31000000000000005,-0.18999999999999995,-0.16224000000000005,0.11095999999999995,0.11524000000000001,-0.35,-0.265,-0.12,0.08679999999999999,-0.04479999999999995,0.021360000000000046,1742250021.524576
-0.33499999999999996,0.3500000000000001,-0.17999999999999994,0.19933999999999985,0.12768000000000002,-0.16027999999999998,-0.715,0.030000000000000027,-0.17999999999999994,0.19996000000000014,0.14136000000000015,-0.13318000000000008,1742250021.63363
-0.25,0.27,-0.07000000000000006,0.18103999999999987,-0.24012,-0.1322000000000001,-0.53,-0.07499999999999996,-0.35,-0.14318000000000008,-0.04712000000000005,0.09973999999999994,1742250021.7481952
-0.13,0.33000000000000007,-0.0050000000000000044,-0.08520000000000005,0.04638000000000009,-0.03917999999999999,-0.05500000000000005,-0.42999999999999994,0.2650000000000001,-0.042360000000000064,0.05675999999999992,0.045660000000000034,1742250021.865995
-0.5,0.42500000000000004,-0.57,-0.2257,-0.008059999999999956,0.17149999999999999,-0.345,-0.15500000000000003,0.07000000000000006,0.16271999999999998,0.22155999999999998,-0.04822000000000004,1742250021.9755368
-0.32000000000000006,0.41500000000000004,-0.17500000000000004,-0.040159999999999973,-0.1925,-0.03161999999999998,-0.56,-0.06499999999999995,-0.16500000000000004,-0.10729999999999995,0.04161999999999999,0.09558,1742250022.089666
-0.18999999999999995,0.3400000000000001,0.010000000000000009,-0.05944000000000005,-0.036860000000000004,0.025020000000000042,-0.4,-0.21999999999999997,-0.17000000000000004,-0.15501999999999994,-0.1814,0.02391999999999994,1742250022.208536
-0.31000000000000005,0.22999999999999998,-0.14,-0.15539999999999998,0.19848,0.10888000000000009,-0.36,-0.265,-0.15500000000000003,0.08435999999999999,-0.07618000000000003,-0.09216000000000002,1742250022.325957
-0.42500000000000004,0.29499999999999993,-0.245,0.12047999999999992,0.12316000000000016,-0.08984000000000003,-0.885,0.010000000000000009,-0.39,0.11414000000000013,0.0968,-0.11218000000000006,1742250022.432255
-0.16500000000000004,0.2450000000000001,0.03499999999999992,0.026619999999999866,-0.16724000000000006,-0.014639999999999986,-0.49,-0.025000000000000022,-0.29000000000000004,-0.1320800000000001,-0.09851999999999994,0.06433999999999984,1742250022.545697
-0.25,0.27,-0.015000000000000013,-0.028679999999999928,0.09729999999999994,0.04492000000000007,-0.22499999999999998,-0.14500000000000002,0.09000000000000008,0.004999999999999893,-0.00782000000000005,-0.00048000000000003595,1742250022.668568
-0.575,0.375,-0.545,-0.05371999999999999,-0.032480000000000064,0.04200000000000004,-0.41999999999999993,-0.07000000000000006,-0.19500000000000006,0.15295999999999998,0.08153999999999995,-0.10986000000000007,1742250022.7736478
-0.30000000000000004,0.44999999999999996,-0.17500000000000004,0.11316000000000015,-0.07629999999999992,-0.08228000000000002,-0.61,-0.12,-0.14500000000000002,-0.08557999999999999,0.11865999999999999,0.13159999999999994,1742250022.8876429
-0.29000000000000004,0.32000000000000006,-0.16000000000000003,-0.04310000000000003,-0.04589999999999994,0.008059999999999956,-0.27,-0.20499999999999996,0.24,-0.22094000000000003,-0.10289999999999999,0.07288000000000006,1742250023.0060549
-0.48,0.27,-0.33000000000000007,-0.08251999999999993,0.17408,0.04920000000000013,-0.33499999999999996,-0.21499999999999997,-0.04500000000000004,0.054200000000000026,0.00550000000000006,-0.06262000000000001,1742250023.115563
-0.485,0.29000000000000004,-0.4,0.016000000000000014,0.029900000000000038,-0.046499999999999986,-0.75,-0.08499999999999996,-0.355,0.10572000000000004,0.027839999999999865,-0.11096000000000006,1742250023.229928
-0.18999999999999995,0.26,0.09000000000000008,0.13172000000000006,-0.1127999999999999,-0.032340000000000035,-0.485,-0.08499999999999996,-0.18500000000000005,-0.10144000000000009,-0.08240000000000003,0.08570000000000011,1742250023.345495
-0.30499999999999994,0.345,-0.09999999999999998,-0.0393,0.07044000000000006,-0.02734000000000003,-0.11499999999999999,-0.345,0.20999999999999996,-0.06323999999999996,0.033320000000000016,0.09388000000000019,1742250023.466779
-0.495,0.3799999999999999,-0.485,-0.15796,0.05750000000000011,0.06603999999999988,-0.41999999999999993,-0.19500000000000006,0.05499999999999994,0.04956000000000005,0.22546,0.05848000000000009,1742250023.571323
-0.27,0.2650000000000001,-0.07999999999999996,0.06909999999999994,-0.16968000000000005,-0.01537999999999995,-0.645,-0.125,-0.26,-0.021600000000000064,-0.012700000000000045,-0.015499999999999958,1742250023.689057
-0.14500000000000002,0.3400000000000001,0.09499999999999997,0.007940000000000058,-0.04491999999999996,-0.006460000000000021,-0.42500000000000004,-0.17000000000000004,-0.29499999999999993,-0.09411999999999998,-0.20775999999999994,0.010739999999999972,1742250023.806704
-0.275,0.2549999999999999,-0.22499999999999998,-0.11303999999999992,0.11853999999999987,0.06066000000000016,-0.35,-0.235,-0.13,0.11268000000000011,-0.06458000000000008,-0.043340000000000045,1742250023.9126232
-0.375,0.33499999999999996,-0.15500000000000003,0.15759999999999996,0.13305999999999996,-0.11146,-0.475,-0.0050000000000000044,-0.17500000000000004,0.2118,0.04797999999999991,-0.13990000000000002,1742250024.026541
-0.27,0.31499999999999995,-0.29499999999999993,0.07850000000000001,-0.19738,-0.11938000000000004,-0.655,-0.04500000000000004,-0.355,-0.08410000000000006,0.05505999999999989,0.1038800000000002,1742250024.146548
-0.17999999999999994,0.32000000000000006,-0.050000000000000044,-0.19128,-0.0030599999999999516,0.09509999999999996,-0.245,-0.18500000000000005,0.23499999999999988,-0.1277999999999999,0.006099999999999994,0.09742000000000006,1742250024.254457
-0.505,0.3400000000000001,-0.395,-0.06677999999999995,0.11583999999999994,0.11914000000000002,-0.3400000000000001,-0.17999999999999994,-0.06499999999999995,0.09620000000000006,0.07591999999999999,-0.03491999999999995,1742250024.36851
-0.43999999999999995,0.30499999999999994,-0.345,0.053099999999999925,-0.06176000000000004,-0.04601999999999995,-0.775,-0.09999999999999998,-0.365,0.14002000000000003,0.021479999999999944,-0.10498000000000007,1742250024.486807
-0.19500000000000006,0.29499999999999993,0.03499999999999992,0.11633999999999989,-0.07079999999999997,-0.03382000000000007,-0.45999999999999996,-0.08999999999999997,-0.235,-0.10560000000000003,-0.10438000000000003,0.04394000000000009,1742250024.59662
-0.25,0.3700000000000001,-0.09499999999999997,-0.01636000000000004,0.022460000000000147,0.03320000000000012,-0.21999999999999997,-0.275,0.06000000000000005,-0.0026799999999999047,-0.0048799999999999955,0.023560000000000025,1742250024.710452
-0.505,0.44500000000000006,-0.44999999999999996,0.08874000000000004,-0.03613999999999995,0.008920000000000039,-0.385,-0.125,-0.08499999999999996,0.12083999999999984,0.11572000000000005,-0.06541999999999992,1742250024.828177
-0.35,0.44999999999999996,-0.10499999999999998,-0.06176000000000004,-0.09765999999999997,-0.03710000000000002,-0.665,-0.08499999999999996,-0.32499999999999996,-0.0907,0.020499999999999963,0.07678000000000007,1742250024.9461749
-0.15000000000000002,0.3900000000000001,0.05499999999999994,-0.006720000000000059,-0.008660000000000001,-0.04200000000000004,-0.385,-0.17000000000000004,-0.24,-0.08177999999999996,-0.11718000000000006,0.06738000000000022,1742250025.0526369
-0.28,0.3500000000000001,-0.16500000000000004,-0.14478000000000002,0.14856000000000003,0.033440000000000136,-0.385,-0.245,-0.05500000000000005,0.11705999999999994,-0.03710000000000002,-0.0675,1742250025.168223
-0.37,0.3700000000000001,-0.19500000000000006,0.08594000000000013,0.03698000000000001,-0.014039999999999941,-0.375,-0.09999999999999998,-0.13,0.11816000000000004,0.04468000000000005,-0.09350000000000003,1742250025.286442
-0.29000000000000004,0.3400000000000001,-0.235,0.12304000000000004,-0.13184000000000007,-0.07568000000000008,-0.64,-0.135,-0.20999999999999996,-0.04370000000000007,0.052119999999999944,0.046499999999999986,1742250025.39447
-0.255,0.345,-0.14500000000000002,-0.06872,-0.04503999999999997,0.03685999999999989,-0.275,-0.21999999999999997,0.15500000000000003,-0.19213999999999998,-0.08898000000000006,0.026980000000000004,1742250025.508428
-0.45500000000000007,0.28,-0.31499999999999995,-0.16101999999999994,0.18018,0.10155999999999987,-0.39,-0.255,-0.020000000000000018,0.08948,-0.01746000000000003,-0.03064,1742250025.626991
-0.44500000000000006,0.3500000000000001,-0.43500000000000005,0.05750000000000011,-0.011600000000000055,-0.09631999999999996,-0.7,-0.15000000000000002,-0.32499999999999996,0.13868000000000014,0.0650599999999999,-0.07568000000000008,1742250025.736418
-0.18500000000000005,0.2849999999999999,0.014999999999999902,0.11340000000000017,-0.08410000000000006,-0.031120000000000037,-0.49,-0.15000000000000002,-0.21999999999999997,-0.11512,-0.15112000000000003,0.01953999999999989,1742250025.850529
-0.28,0.355,-0.050000000000000044,-0.0625,0.10899999999999999,0.053099999999999925,-0.10999999999999999,-0.345,0.23499999999999988,0.0041599999999999415,-0.005859999999999976,0.03186,1742250025.968144
-0.525,0.4750000000000001,-0.52,-0.07641999999999993,0.04188000000000014,0.017079999999999984,-0.20499999999999996,-0.17500000000000004,-0.03500000000000003,0.09129999999999994,0.1373199999999999,-0.017940000000000067,1742250026.08733
-0.21499999999999997,0.47,-0.08499999999999996,0.12342000000000009,-0.10229999999999995,-0.09204000000000001,-0.625,-0.17500000000000004,-0.20499999999999996,-0.06640000000000001,0.0030599999999998406,0.04968000000000017,1742250026.192409
-0.135,0.3599999999999999,0.09499999999999997,0.025760000000000005,-0.02624000000000004,-0.0017000000000000348,-0.31499999999999995,-0.27,-0.0050000000000000044,-0.24853999999999998,-0.14903999999999995,0.0638399999999999,1742250026.3095832
-0.39,0.345,-0.24,-0.14672000000000007,0.2176600000000002,0.05577999999999994,-0.20999999999999996,-0.265,-0.06000000000000005,0.05761999999999978,-0.02636000000000005,-0.04271999999999998,1742250026.4280472
-0.43500000000000005,0.3599999999999999,-0.375,0.059700000000000086,0.016119999999999912,-0.05737999999999999,-0.955,-0.14500000000000002,-0.5,0.1533199999999999,-0.019399999999999973,-0.12036000000000002,1742250026.534451
-0.07499999999999996,0.32499999999999996,0.1100000000000001,0.11646000000000001,-0.13146000000000002,-0.03076000000000001,-0.48,-0.18500000000000005,-0.26,-0.12548000000000004,-0.15379999999999994,0.04479999999999995,1742250026.64856
-0.20999999999999996,0.30000000000000004,-0.08999999999999997,-0.03760000000000008,0.13853999999999989,0.03503999999999996,-0.18500000000000005,-0.3400000000000001,0.15500000000000003,-0.026980000000000004,-0.0048799999999999955,0.041140000000000176,1742250026.767275
-0.43999999999999995,0.44999999999999996,-0.45500000000000007,-0.041139999999999954,0.027220000000000022,-0.00537999999999994,-0.31000000000000005,-0.255,0.020000000000000018,0.03233999999999981,0.19446000000000008,0.04200000000000004,1742250026.87636
-0.22499999999999998,0.385,-0.13,-0.02648000000000006,-0.14770000000000005,-0.0022000000000000908,-0.74,-0.22499999999999998,-0.43999999999999995,0.010620000000000074,-0.023440000000000016,-0.022340000000000027,1742250026.9905589
-0.125,0.4099999999999999,0.10000000000000009,0.11729999999999996,-0.03736000000000006,-0.046760000000000024,-0.36,-0.25,-0.20999999999999996,-0.11926000000000003,-0.11962000000000006,0.056519999999999904,1742250027.10822
-0.235,0.42999999999999994,-0.14500000000000002,-0.10108000000000006,0.15417999999999998,0.028079999999999883,-0.31499999999999995,-0.29499999999999993,-0.08499999999999996,0.09814000000000012,-0.07763999999999993,-0.030399999999999983,1742250027.218529
-0.27,0.42500000000000004,-0.08999999999999997,0.16088000000000013,0.09118000000000004,-0.07689999999999997,-0.55,-0.14500000000000002,-0.15000000000000002,0.07835999999999999,0.1775,-0.0034199999999999786,1742250027.332435
-0.18500000000000005,0.3400000000000001,-0.25,0.04711999999999983,-0.17652,-0.05884,-0.56,-0.19500000000000006,-0.26,-0.10753999999999997,0.07728000000000002,0.13134,1742250027.447804
-0.22999999999999998,0.365,-0.14500000000000002,-0.06738,-0.03149999999999997,-0.00782000000000005,-0.32499999999999996,-0.29000000000000004,-0.025000000000000022,-0.19544000000000006,-0.11351999999999995,0.06872000000000011,1742250027.568485
-0.33499999999999996,0.385,-0.31000000000000005,-0.12585999999999997,0.13440000000000007,0.05675999999999992,-0.255,-0.30499999999999994,0.10499999999999998,0.13122000000000011,-0.011600000000000055,-0.07763999999999993,1742250027.674321
-0.385,0.4099999999999999,-0.42500000000000004,-0.00048000000000003595,-0.07116,-0.01867999999999992,-0.8,-0.245,-0.41500000000000004,0.11059999999999981,0.017079999999999984,-0.06677999999999995,1742250027.788316
-0.07000000000000006,0.345,0.1499999999999999,0.09655999999999998,-0.06958000000000009,-0.04932000000000003,-0.41500000000000004,-0.17500000000000004,-0.06000000000000005,-0.12536000000000003,-0.10572000000000004,0.03272000000000008,1742250027.90775
-0.22499999999999998,0.3700000000000001,-0.04500000000000004,-0.07629999999999992,0.15307999999999988,0.05126000000000008,-0.235,-0.405,0.19500000000000006,0.09522000000000008,-0.012319999999999998,-0.028200000000000003,1742250028.016324
-0.385,0.47,-0.44999999999999996,0.019039999999999946,-0.034540000000000015,0.00878000000000001,-0.365,-0.20499999999999996,-0.020000000000000018,0.16333999999999982,0.15111999999999992,-0.06359999999999999,1742250028.13037
-0.21999999999999997,0.385,-0.05500000000000005,0.12098000000000009,-0.1582,-0.01978000000000002,-0.605,-0.16500000000000004,-0.20499999999999996,-0.06922000000000006,0.06176000000000004,0.13159999999999994,1742250028.248318
-0.18500000000000005,0.44999999999999996,0.0,0.01317999999999997,-0.05467999999999995,-0.04259999999999997,-0.365,-0.24,-0.17999999999999994,-0.21716000000000002,-0.19116,0.02868000000000004,1742250028.369111
-0.19999999999999996,0.29000000000000004,-0.16500000000000004,-0.16455999999999993,0.20677999999999996,0.021600000000000064,-0.275,-0.29499999999999993,-0.07000000000000006,0.09045999999999998,-0.05235999999999996,-0.011600000000000055,1742250028.472446
-0.255,0.375,-0.18500000000000005,0.14659999999999984,0.06054000000000004,-0.09204000000000001,-0.62,-0.22999999999999998,-0.18999999999999995,0.17236000000000007,0.12719999999999998,-0.07787999999999995,1742250028.5887392
-0.21499999999999997,0.41500000000000004,-0.19500000000000006,0.06591999999999998,-0.24108000000000007,-0.060799999999999965,-0.53,-0.24,-0.255,-0.06372,-0.03491999999999995,0.08094000000000001,1742250028.712212
-0.16500000000000004,0.3900000000000001,-0.10499999999999998,-0.027700000000000058,-0.01758000000000004,-0.027840000000000087,-0.22499999999999998,-0.33000000000000007,0.14500000000000002,-0.19213999999999998,-0.09911999999999999,0.02624000000000004,1742250028.814355
-0.29000000000000004,0.3599999999999999,-0.26,-0.13134,0.15772000000000008,0.12853999999999988,-0.22499999999999998,-0.25,0.010000000000000009,0.12475999999999998,0.0023200000000000998,-0.09338000000000002,1742250028.929652
-0.345,0.3999999999999999,-0.4,0.06494,0.007319999999999993,-0.04027999999999998,-0.775,-0.21999999999999997,-0.395,0.13978000000000002,0.04638000000000009,-0.11170000000000002,1742250029.049112
-0.07499999999999996,0.3400000000000001,0.06000000000000005,0.03492000000000006,-0.07311999999999996,0.021360000000000046,-0.515,-0.24,-0.20499999999999996,-0.14246000000000003,-0.08520000000000005,0.09192,1742250029.156538
-0.22499999999999998,0.4099999999999999,-0.10999999999999999,-0.017340000000000022,0.07288000000000006,0.022460000000000147,-0.07000000000000006,-0.3400000000000001,0.2650000000000001,-0.07141999999999993,0.016599999999999948,0.06824000000000008,1742250029.2702
-0.52,0.565,-0.525,-0.07689999999999997,0.005980000000000096,0.046640000000000015,-0.16000000000000003,-0.20999999999999996,0.06000000000000005,0.04747999999999997,0.24731999999999998,0.015619999999999967,1742250029.389237
-0.245,0.44500000000000006,-0.22999999999999998,0.036739999999999995,-0.19787999999999994,-0.02403999999999995,-0.605,-0.17500000000000004,-0.20999999999999996,-0.14781999999999995,0.05553999999999992,0.13061999999999996,1742250029.50911
-0.21999999999999997,0.3500000000000001,-0.010000000000000009,0.01550000000000007,0.022699999999999942,-0.01966000000000001,-0.37,-0.245,-0.13,-0.06713999999999998,-0.13537999999999994,0.015020000000000033,1742250029.61254
-0.21999999999999997,0.395,-0.20499999999999996,-0.03394000000000008,0.10888000000000009,0.02929999999999988,-0.20999999999999996,-0.2849999999999999,-0.10499999999999998,0.04833999999999983,-0.052000000000000046,-0.01758000000000004,1742250029.732568
-0.31499999999999995,0.42500000000000004,-0.16000000000000003,0.09777999999999998,0.07153999999999994,-0.03710000000000002,-0.41500000000000004,-0.10499999999999998,-0.050000000000000044,0.26561999999999997,0.12414000000000014,-0.17955999999999994,1742250029.849149
-0.235,0.33000000000000007,-0.29000000000000004,0.0014600000000000168,-0.23596000000000006,0.018920000000000048,-0.62,-0.15000000000000002,-0.345,-0.06811999999999996,0.036619999999999875,0.07445999999999997,1742250029.9543009
-0.22499999999999998,0.385,-0.16500000000000004,-0.026980000000000004,-0.00878000000000001,0.01990000000000003,-0.375,-0.33499999999999996,0.1200000000000001,-0.2266800000000001,-0.07665999999999995,0.08996000000000004,1742250030.068613
-0.39,0.355,-0.33499999999999996,-0.14844000000000002,0.20520000000000005,0.02966000000000002,-0.245,-0.255,-0.10499999999999998,0.07835999999999999,-0.04200000000000004,-0.04625999999999997,1742250030.190567
-0.345,0.355,-0.275,0.03405999999999998,0.041020000000000056,-0.03283999999999998,-0.835,-0.15000000000000002,-0.32499999999999996,0.2545200000000001,0.05164000000000013,-0.24694000000000005,1742250030.2962
-0.14,0.24,-0.05500000000000005,0.13294000000000006,-0.11768000000000012,-0.0035399999999999876,-0.54,-0.20499999999999996,-0.255,-0.06738,-0.10631999999999997,0.048699999999999966,1742250030.410434
-0.21999999999999997,0.3700000000000001,-0.14500000000000002,-0.012940000000000063,0.0578599999999998,-0.008059999999999956,-0.17999999999999994,-0.28,0.1499999999999999,-0.13244,0.02966000000000002,0.10253999999999985,1742250030.5288692
-0.4,0.41999999999999993,-0.41999999999999993,-0.09448000000000001,0.09851999999999994,0.026859999999999884,-0.32499999999999996,-0.29000000000000004,0.1100000000000001,0.03210000000000002,0.07496000000000014,-0.02513999999999994,1742250030.6486368
-0.29499999999999993,0.3700000000000001,-0.27,-0.026739999999999986,-0.12890000000000001,0.00011999999999989797,-1.0,-0.18500000000000005,-0.63,0.07764000000000015,0.03992000000000018,-0.026980000000000004,1742250030.752219
-0.025000000000000022,0.345,0.2849999999999999,0.06188000000000016,-0.05920000000000003,0.0034199999999999786,-0.3400000000000001,-0.125,-0.12,-0.1521,-0.13903999999999994,0.04845999999999995,1742250030.868242
-0.28,0.41500000000000004,-0.08499999999999996,-0.022460000000000035,0.16906,0.07397999999999993,-0.22999999999999998,-0.28,0.05499999999999994,0.05066000000000015,-0.032340000000000035,-0.022700000000000053,1742250030.989151
-0.42500000000000004,0.43500000000000005,-0.41500000000000004,0.03064,-0.016240000000000032,-0.016120000000000023,-0.31499999999999995,-0.14500000000000002,-0.07999999999999996,0.05396000000000001,0.21142000000000016,-0.006840000000000068,1742250031.0942998
-0.21999999999999997,0.44999999999999996,-0.025000000000000022,-0.032340000000000035,-0.19410000000000005,-0.0025599999999998957,-0.73,-0.10499999999999998,-0.32000000000000006,-0.05822000000000005,0.0024399999999999977,0.05066000000000015,1742250031.212402
-0.14500000000000002,0.33000000000000007,0.06000000000000005,0.007200000000000095,-0.008539999999999992,-0.015859999999999985,-0.525,-0.21499999999999997,-0.29000000000000004,-0.07934000000000008,-0.14588,0.03479999999999994,1742250031.3289511
-0.15500000000000003,0.31000000000000005,-0.07000000000000006,0.013800000000000034,0.08409999999999984,0.02540000000000009,-0.27,-0.32000000000000006,-0.07000000000000006,0.041380000000000194,0.0046399999999999775,0.008539999999999992,1742250031.436128
-0.42999999999999994,0.4750000000000001,-0.32499999999999996,0.07996000000000003,0.010000000000000009,-0.010619999999999963,-0.245,-0.08999999999999997,-0.015000000000000013,0.11450000000000005,0.17223999999999995,-0.016720000000000068,1742250031.550186
-0.33499999999999996,0.3400000000000001,-0.45500000000000007,0.04357999999999995,-0.18579999999999997,-0.05298000000000003,-0.585,-0.14500000000000002,-0.255,-0.12146000000000001,0.04638000000000009,0.12548000000000004,1742250031.669533
-0.255,0.3700000000000001,-0.030000000000000027,0.009039999999999937,0.05003999999999986,-0.03588000000000002,-0.485,-0.29499999999999993,0.040000000000000036,-0.3872000000000001,-0.09374000000000005,0.16784,1742250031.7862852
-0.345,0.375,-0.255,-0.15881999999999996,0.14990000000000014,0.09105999999999992,-0.17000000000000004,-0.22999999999999998,-0.06000000000000005,0.1324400000000001,-0.027100000000000013,-0.08287999999999995,1742250031.892303
-0.32499999999999996,0.29499999999999993,-0.19500000000000006,0.09483999999999981,0.07373999999999992,-0.07850000000000001,-0.67,-0.12,-0.255,0.10572000000000004,0.10155999999999987,-0.13696000000000008,1742250032.009433
-0.31499999999999995,0.3900000000000001,0.0,0.16345999999999994,-0.19177999999999995,0.0041599999999999415,-0.515,-0.19999999999999996,-0.17000000000000004,-0.20189999999999997,0.006220000000000114,0.07752000000000003,1742250032.129397
-0.275,0.44999999999999996,-0.10999999999999999,-0.11181999999999992,0.06542000000000003,0.03685999999999989,-0.45500000000000007,-0.20999999999999996,-0.18500000000000005,-0.06872,-0.09289999999999998,0.07264000000000004,1742250032.2344372
-0.3400000000000001,0.385,-0.20499999999999996,-0.08055999999999996,0.13671999999999995,-0.013299999999999979,-0.21999999999999997,-0.30499999999999994,-0.04500000000000004,0.024900000000000144,0.025880000000000125,0.04809999999999981,1742250032.349192
-0.31000000000000005,0.3500000000000001,-0.13,-0.018059999999999965,0.007560000000000011,0.01428000000000007,-0.45500000000000007,-0.050000000000000044,-0.015000000000000013,0.030160000000000187,0.26428000000000007,-0.07020000000000004,1742250032.468937
-0.17500000000000004,0.2849999999999999,-0.030000000000000027,0.13916000000000017,-0.19934000000000007,-0.08189999999999997,-0.575,-0.16500000000000004,-0.16000000000000003,0.04283999999999999,-0.16358000000000006,-0.03394000000000008,1742250032.576234
-0.235,0.385,-0.07499999999999996,-0.13842,0.08251999999999993,0.08129999999999993,-0.25,-0.2849999999999999,0.31499999999999995,-0.10144000000000009,-0.07311999999999996,0.018179999999999863,1742250032.6916952
-0.555,0.30000000000000004,-0.385,-0.039059999999999984,0.16174,0.12280000000000002,-0.235,-0.265,-0.015000000000000013,0.015260000000000051,0.07250000000000001,0.026000000000000023,1742250032.8082602
-0.44999999999999996,0.345,-0.44999999999999996,0.10179999999999989,-0.1018,-0.11327999999999994,-0.965,-0.135,-0.44999999999999996,0.16955999999999993,-0.01660000000000006,-0.21716000000000002,1742250032.928738
-0.07999999999999996,0.24,-0.06000000000000005,0.023679999999999923,-0.15649999999999997,0.027579999999999938,-0.54,-0.15000000000000002,-0.25,-0.06103999999999998,-0.12122,0.06396000000000002,1742250033.032245
-0.21999999999999997,0.31499999999999995,-0.13,-0.06799999999999995,0.08801999999999999,0.07153999999999994,-0.10499999999999998,-0.31000000000000005,0.19999999999999996,-0.02966000000000002,0.01317999999999997,0.05821999999999994,1742250033.148911
-0.505,0.41500000000000004,-0.505,-0.05455999999999994,0.0023200000000000998,0.011360000000000037,-0.21999999999999997,-0.16500000000000004,-0.03500000000000003,0.05396000000000001,0.21386000000000016,0.04675999999999991,1742250033.269035
-0.245,0.2650000000000001,-0.31499999999999995,0.09606000000000003,-0.1274400000000001,-0.04527999999999999,-0.59,-0.19500000000000006,-0.17500000000000004,-0.09960000000000002,0.05493999999999999,0.14466,1742250033.374115
-0.21999999999999997,0.3500000000000001,-0.06000000000000005,-0.0043999999999999595,0.018799999999999928,-0.036619999999999986,-0.30499999999999994,-0.24,0.14500000000000002,-0.28576,-0.052240000000000064,0.10218000000000016,1742250033.488644
-0.43500000000000005,0.395,-0.33000000000000007,-0.11926000000000003,0.1301199999999998,0.07214000000000009,-0.26,-0.255,-0.020000000000000018,0.09373999999999993,0.05164000000000013,-0.04955999999999994,1742250033.608385
-0.4,0.3599999999999999,-0.33000000000000007,0.009640000000000093,-0.0031799999999999606,-0.017820000000000058,-0.73,-0.18500000000000005,-0.22499999999999998,0.09460000000000002,0.02746000000000004,-0.19481999999999988,1742250033.716156
-0.24,0.3799999999999999,-0.135,0.13928000000000007,-0.11902000000000001,-0.03858000000000006,-0.485,-0.18500000000000005,-0.18999999999999995,-0.06872,-0.10741999999999996,0.03929999999999989,1742250033.830202
-0.28,0.405,-0.12,-0.04700000000000004,0.07957999999999998,0.013299999999999867,-0.19999999999999996,-0.345,0.17500000000000004,-0.09045999999999998,-0.014639999999999986,0.09373999999999993,1742250033.948927
-0.45999999999999996,0.3799999999999999,-0.355,-0.09411999999999998,0.10925999999999991,0.026739999999999986,-0.365,-0.26,0.02499999999999991,0.07543999999999995,0.16198,-0.012460000000000027,1742250034.064818
-0.29000000000000004,0.345,-0.18999999999999995,-0.01415999999999995,-0.11170000000000002,0.016599999999999948,-0.78,-0.22999999999999998,-0.33499999999999996,0.02429999999999999,0.05176000000000003,-0.01966000000000001,1742250034.1721191
-0.11499999999999999,0.3999999999999999,0.09499999999999997,0.028079999999999883,-0.019399999999999973,-0.005619999999999958,-0.42999999999999994,-0.24,0.03499999999999992,-0.07031999999999994,-0.10668000000000011,0.0283199999999999,1742250034.2887082
-0.275,0.405,-0.135,-0.04798000000000002,0.08496000000000015,0.016720000000000068,-0.04500000000000004,-0.29000000000000004,0.15999999999999992,0.023440000000000127,0.019400000000000084,0.009039999999999937,1742250034.4094038
-0.395,0.565,-0.345,-0.09789999999999999,-0.019159999999999955,0.04944000000000015,-0.3400000000000001,-0.12,-0.10499999999999998,0.14440000000000008,0.12719999999999998,-0.07910000000000006,1742250034.5140648
-0.22999999999999998,0.31499999999999995,-0.25,0.0018400000000000638,-0.10572000000000004,-0.014639999999999986,-0.585,-0.15000000000000002,-0.18999999999999995,-0.09838000000000002,-0.011960000000000082,0.01966000000000001,1742250034.628449
-0.24,0.3799999999999999,-0.09999999999999998,-0.08629999999999993,-0.0012199999999999989,0.06030000000000002,-0.42500000000000004,-0.25,-0.245,-0.019540000000000002,-0.16052,0.053220000000000045,1742250034.747479
-0.19500000000000006,0.32000000000000006,-0.14,-0.05041999999999991,0.08898000000000006,-0.008419999999999983,-0.265,-0.29499999999999993,-0.010000000000000009,0.15355999999999992,-0.03465999999999991,-0.01770000000000005,1742250034.856235
-0.29000000000000004,0.3700000000000001,-0.125,0.17566000000000015,0.03723999999999994,-0.10986000000000007,-0.615,-0.09499999999999997,-0.26,0.125,0.07347999999999999,-0.11621999999999999,1742250034.97011
-0.22999999999999998,0.3799999999999999,-0.13,0.06640000000000001,-0.12708000000000008,-0.03527999999999998,-0.535,-0.15000000000000002,-0.17999999999999994,-0.15124000000000004,-0.040039999999999965,0.09033999999999986,1742250035.088227
-0.19500000000000006,0.3599999999999999,-0.05500000000000005,-0.08960000000000001,0.06761999999999979,0.036619999999999875,-0.2849999999999999,-0.28,0.08499999999999996,-0.1643,-0.06677999999999995,0.07531999999999983,1742250035.198046
-0.345,0.3700000000000001,-0.25,-0.024540000000000006,0.08373999999999993,0.019039999999999946,-0.3400000000000001,-0.25,-0.015000000000000013,0.17357999999999985,0.05688000000000004,-0.12475999999999998,1742250035.312032
-0.32499999999999996,0.3400000000000001,-0.14,0.06298000000000004,-0.06616,-0.016240000000000032,-0.69,-0.19500000000000006,-0.35,-0.0047599999999999865,0.008920000000000039,0.00048000000000003595,1742250035.428535
-0.16000000000000003,0.3900000000000001,0.125,0.04711999999999983,-0.03076000000000001,0.008419999999999872,-0.4,-0.22499999999999998,0.020000000000000018,-0.12670000000000003,-0.05565999999999993,0.06702000000000008,1742250035.548638
-0.2849999999999999,0.41999999999999993,-0.10999999999999999,-0.04798000000000002,0.07055999999999996,0.008539999999999992,-0.12,-0.35,0.10499999999999998,-0.015859999999999985,-0.0027999999999999137,0.054440000000000044,1742250035.654155
-0.43999999999999995,0.47,-0.345,-0.09960000000000002,-0.0041599999999999415,0.06773999999999991,-0.35,-0.245,-0.010000000000000009,0.09594000000000014,0.07835999999999999,-0.02624000000000004,1742250035.768287
-0.2849999999999999,0.3700000000000001,-0.06499999999999995,-0.006960000000000077,-0.07275999999999994,0.012700000000000156,-0.67,-0.17999999999999994,-0.32000000000000006,-0.006960000000000077,0.01855999999999991,-0.011099999999999999,1742250035.88836
-0.09499999999999997,0.365,0.07000000000000006,-0.0050000000000000044,-0.008179999999999965,0.0025599999999998957,-0.41999999999999993,-0.20999999999999996,-0.015000000000000013,-0.04700000000000004,-0.06640000000000001,0.027220000000000022,1742250035.99612
-0.24,0.41999999999999993,-0.125,-0.05506,0.0709200000000001,-0.0022000000000000908,-0.16000000000000003,-0.32499999999999996,0.135,0.04638000000000009,0.0025599999999998957,-0.0040200000000000236,1742250036.109908
-0.41500000000000004,0.4849999999999999,-0.41500000000000004,-0.02061999999999997,-0.027959999999999985,0.018059999999999965,-0.275,-0.22499999999999998,-0.0050000000000000044,0.06603999999999988,0.1825000000000001,0.014780000000000015,1742250036.231562
-0.265,0.45999999999999996,-0.15500000000000003,0.1190199999999999,-0.057499999999999996,-0.08763999999999994,-0.66,-0.18999999999999995,-0.275,-0.05798000000000003,0.016000000000000014,0.010860000000000092,1742250036.348465
-0.18999999999999995,0.29000000000000004,0.0,-0.04358000000000006,-0.001960000000000073,0.030399999999999983,-0.395,-0.245,-0.18999999999999995,-0.05737999999999999,-0.13305999999999996,0.0662799999999999,1742250036.4521348
-0.24,0.42999999999999994,-0.17000000000000004,-0.1139,0.10777999999999999,0.04405999999999999,-0.18999999999999995,-0.265,0.10000000000000009,0.11426000000000003,0.02210000000000001,-0.026980000000000004,1742250036.568448
-0.365,0.44999999999999996,-0.28,0.06529999999999991,-0.029299999999999993,-0.02942,-0.71,-0.11499999999999999,-0.20499999999999996,0.19055999999999984,0.0650599999999999,-0.21239999999999992,1742250036.690038
-0.19999999999999996,0.375,-0.14,0.08543999999999996,-0.14978000000000002,-0.07153999999999994,-0.54,-0.06000000000000005,-0.29499999999999993,-0.06274000000000002,-0.14002000000000003,-0.007440000000000002,1742250036.794358
-0.235,0.3599999999999999,-0.06499999999999995,-0.08299999999999996,0.07311999999999985,0.04468000000000005,-0.24,-0.30499999999999994,0.08499999999999996,-0.11485999999999996,-0.02942,0.053099999999999925,1742250036.90867
-0.37,0.3700000000000001,-0.29499999999999993,-0.06103999999999998,0.09411999999999998,0.06909999999999994,-0.33000000000000007,-0.26,-0.09499999999999997,0.08325999999999989,0.07702000000000009,-0.04200000000000004,1742250037.02781
-0.37,0.3599999999999999,-0.24,0.10620000000000007,-0.03649999999999998,-0.07165999999999995,-0.6,-0.10499999999999998,-0.235,-0.00036000000000002697,0.054200000000000026,-0.05688000000000004,1742250037.1361191
-0.17500000000000004,0.3400000000000001,0.09000000000000008,0.038819999999999855,-0.04870000000000008,-0.01415999999999995,-0.5,-0.14500000000000002,-0.08499999999999996,-0.09558,-0.06799999999999995,0.04027999999999987,1742250037.250144
-0.27,0.44500000000000006,-0.07999999999999996,-0.08862000000000003,0.06152000000000002,0.0354000000000001,-0.20999999999999996,-0.355,0.22999999999999998,-0.03967999999999994,0.03051999999999988,0.05761999999999978,1742250037.3678038
-0.505,0.43500000000000005,-0.4,-0.09144000000000008,0.02733999999999992,0.05944000000000016,-0.30000000000000004,-0.24,0.010000000000000009,0.07225999999999999,0.10119999999999996,0.051020000000000065,1742250037.488555
-0.3400000000000001,0.4099999999999999,-0.21999999999999997,0.0026800000000000157,-0.09094000000000002,-0.036739999999999995,-0.755,-0.14,-0.35,0.00550000000000006,-0.001960000000000073,-0.028200000000000003,1742250037.5921888
-0.06499999999999995,0.365,0.18500000000000005,0.04785999999999979,-0.01097999999999999,-0.025399999999999978,-0.44500000000000006,-0.20999999999999996,-0.05500000000000005,-0.14391999999999994,-0.0514,0.08264000000000005,1742250037.712008
-0.30499999999999994,0.42999999999999994,-0.10999999999999999,-0.08374000000000004,0.11328000000000005,0.04577999999999993,-0.16000000000000003,-0.255,0.135,-0.05506,0.020140000000000047,0.03747999999999996,1742250037.827635
-0.45999999999999996,0.41999999999999993,-0.32499999999999996,-0.06152000000000002,-0.00036000000000002697,0.04968000000000017,-0.38,-0.235,-0.0050000000000000044,0.11524000000000001,0.13707999999999987,-0.09570000000000001,1742250037.934137
-0.25,0.29000000000000004,-0.14,0.037959999999999994,-0.08299999999999996,-0.029899999999999927,-0.665,-0.24,-0.245,-0.07201999999999997,-0.008059999999999956,0.04625999999999997,1742250038.048238
-0.17500000000000004,0.32499999999999996,0.014999999999999902,-0.06335999999999997,0.01537999999999995,0.0042800000000000615,-0.43500000000000005,-0.21999999999999997,-0.11499999999999999,-0.12536000000000003,-0.12378,0.09582000000000002,1742250038.1698089
-0.30000000000000004,0.3500000000000001,-0.17500000000000004,-0.06053999999999993,0.10155999999999987,-0.00660000000000005,-0.265,-0.255,0.06499999999999995,0.1691800000000001,0.00024000000000001798,-0.07238,1742250038.2759008
-0.4099999999999999,0.4099999999999999,-0.24,0.18713999999999986,0.013539999999999885,-0.08763999999999994,-0.7,-0.12,-0.235,0.15759999999999996,0.1324400000000001,-0.11729999999999996,1742250038.389895
-0.21999999999999997,0.385,-0.18500000000000005,0.07922000000000007,-0.1593,-0.055179999999999896,-0.52,-0.14500000000000002,-0.21999999999999997,-0.13024000000000002,-0.012940000000000063,0.1445399999999999,1742250038.5079958
-0.19999999999999996,0.29499999999999993,-0.05500000000000005,-0.06541999999999992,0.10033999999999987,0.044440000000000035,-0.275,-0.31000000000000005,0.04499999999999993,-0.09387999999999996,-0.07103999999999999,0.020620000000000083,1742250038.627952
-0.37,0.3900000000000001,-0.235,0.02171999999999996,0.08338000000000001,0.013539999999999885,-0.365,-0.29000000000000004,0.030000000000000027,0.08349999999999991,0.09522000000000008,0.020380000000000065,1742250038.7317178
-0.345,0.3599999999999999,-0.14500000000000002,0.06773999999999991,-0.053220000000000045,-0.07213999999999998,-0.705,-0.19500000000000006,-0.30000000000000004,0.07421999999999995,0.035880000000000134,-0.048820000000000086,1742250038.84863
-0.07999999999999996,0.355,0.16500000000000004,0.07373999999999992,-0.04932000000000003,-0.0232,-0.43999999999999995,-0.235,-0.050000000000000044,-0.05565999999999993,-0.08557999999999999,-0.0013400000000000079,1742250038.968395
-0.255,0.395,-0.08999999999999997,-0.06420000000000003,0.08349999999999991,0.04747999999999997,-0.22999999999999998,-0.345,0.10000000000000009,-0.04955999999999994,-0.0050000000000000044,0.03833999999999982,1742250039.073907
-0.42999999999999994,0.43999999999999995,-0.31499999999999995,-0.015139999999999931,0.0023200000000000998,0.05371999999999999,-0.37,-0.255,-0.06000000000000005,0.15283999999999986,0.02966000000000002,-0.05737999999999999,1742250039.189802
-0.30000000000000004,0.3900000000000001,-0.11499999999999999,-0.02942,-0.04920000000000002,-0.05737999999999999,-0.66,-0.20499999999999996,-0.33000000000000007,-0.07740000000000002,-0.016840000000000077,0.056400000000000006,1742250039.307709
-0.10999999999999999,0.30499999999999994,0.1299999999999999,0.038819999999999855,-0.009519999999999973,-0.008179999999999965,-0.35,-0.22999999999999998,-0.17999999999999994,-0.07752000000000003,-0.15270000000000006,0.006599999999999939,1742250039.416031
-0.19999999999999996,0.395,-0.13,-0.08299999999999996,0.08923999999999999,0.041260000000000074,-0.3400000000000001,-0.255,0.004999999999999893,0.11988000000000021,0.031500000000000083,-0.05884,1742250039.52979
-0.33499999999999996,0.3999999999999999,-0.17500000000000004,0.06788000000000016,0.0040199999999999125,-0.04358000000000006,-0.57,-0.17999999999999994,-0.18500000000000005,0.08421999999999996,0.03614000000000006,-0.09155999999999997,1742250039.648224
-0.22499999999999998,0.365,-0.07000000000000006,0.036619999999999875,-0.08801999999999999,-0.04932000000000003,-0.58,-0.15000000000000002,-0.17999999999999994,-0.10327999999999993,-0.05346000000000006,0.007440000000000113,1742250039.767843
-0.25,0.3999999999999999,-0.06499999999999995,-0.09887999999999997,0.01317999999999997,0.06103999999999998,-0.275,-0.32000000000000006,0.08000000000000007,-0.12072000000000005,-0.04259999999999997,0.02442000000000011,1742250039.871797
-0.31499999999999995,0.3799999999999999,-0.20999999999999996,-0.0043999999999999595,0.06957999999999998,0.03917999999999999,-0.4099999999999999,-0.29499999999999993,-0.015000000000000013,0.08166000000000007,0.07445999999999997,-0.013539999999999996,1742250039.98862
-0.29000000000000004,0.3599999999999999,-0.14,0.03820000000000001,-0.04248000000000007,-0.03479999999999994,-0.64,-0.14500000000000002,-0.22499999999999998,0.12670000000000003,0.001100000000000101,-0.13172000000000006,1742250040.107611
-0.10499999999999998,0.365,0.050000000000000044,0.1275599999999999,-0.05920000000000003,-0.045539999999999914,-0.535,-0.15500000000000003,-0.15000000000000002,-0.08216000000000001,-0.11268000000000011,0.01868000000000003,1742250040.213969
-0.20499999999999996,0.42999999999999994,-0.07000000000000006,-0.04822000000000004,0.07946000000000009,0.02185999999999999,-0.19999999999999996,-0.255,0.04499999999999993,-0.11315999999999993,-0.027700000000000058,0.037719999999999976,1742250040.327935
-0.41500000000000004,0.3799999999999999,-0.35,-0.06762000000000001,0.07531999999999983,0.14954,-0.3400000000000001,-0.26,-0.020000000000000018,0.07079999999999997,0.07142000000000004,-0.014039999999999941,1742250040.447238
-0.42999999999999994,0.3999999999999999,-0.36,-0.012580000000000036,-0.09399999999999997,-0.03405999999999998,-0.68,-0.12,-0.235,0.017340000000000133,0.10498000000000007,-0.042240000000000055,1742250040.555786
-0.535,-0.030000000000000027,-0.36,0.17271999999999998,-0.0122000000000001,-0.07020000000000004,-0.17500000000000004,-0.16500000000000004,0.15999999999999992,-0.04810000000000003,0.05711999999999984,-0.017940000000000067,1742257767.262864
-0.43500000000000005,0.02499999999999991,-0.38,0.24583999999999984,-0.11229999999999996,-0.09887999999999997,-0.4650000000000001,-0.09499999999999997,-0.09499999999999997,0.11414000000000013,0.16662,-0.09155999999999997,1742257767.372233
-0.27,0.125,-0.0050000000000000044,-0.06396000000000002,-0.021120000000000028,-0.0035399999999999876,-0.755,-0.125,-0.24,-0.04027999999999998,-0.0024400000000001087,0.036739999999999995,1742257767.48636
-0.48,0.06000000000000005,-0.485,-0.27525999999999995,0.02624000000000004,0.1360999999999999,-0.36,-0.06000000000000005,-0.030000000000000027,-0.34374000000000005,-0.07055999999999996,0.28918,1742257767.602666
-0.6,0.014999999999999902,-0.55,-0.008059999999999956,0.020259999999999945,-0.0045199999999999685,-0.24,-0.18999999999999995,0.07000000000000006,-0.1541800000000001,-0.05188000000000004,0.04174000000000011,1742257767.7142558
-0.49,0.010000000000000009,-0.275,0.062140000000000084,-0.055419999999999914,-0.08263999999999994,-0.43999999999999995,-0.27,-0.015000000000000013,0.22388000000000008,0.1447799999999999,-0.16003999999999996,1742257767.8282392
-0.22499999999999998,0.10000000000000009,-0.050000000000000044,0.005859999999999976,-0.018320000000000003,-0.03173999999999999,-0.75,-0.235,-0.26,0.11083999999999983,-0.05358000000000007,-0.07091999999999998,1742257767.943338
-0.42500000000000004,0.14500000000000002,-0.32000000000000006,-0.23363999999999996,0.0611600000000001,0.07898000000000005,-0.4650000000000001,0.08499999999999996,-0.21499999999999997,-0.19274000000000002,-0.0795800000000001,0.17199999999999993,1742257768.063966
-0.605,0.02499999999999991,-0.475,0.18333999999999984,-0.030159999999999965,-0.03625999999999996,-0.19999999999999996,-0.18500000000000005,0.16999999999999993,0.01758000000000015,-0.00024000000000001798,0.005740000000000078,1742257768.170211
-0.495,0.16999999999999993,-0.2849999999999999,0.25538000000000016,-0.06458000000000008,-0.13488,-0.45500000000000007,-0.135,-0.11499999999999999,0.18640000000000012,0.11816000000000004,-0.19934000000000007,1742257768.284311
-0.30000000000000004,0.19500000000000006,-0.010000000000000009,0.0013400000000001189,-0.048820000000000086,-0.029179999999999984,-0.715,-0.08999999999999997,-0.32000000000000006,0.02293999999999996,-0.03088000000000002,-0.0029199999999999227,1742257768.40399
-0.39,0.08000000000000007,-0.29499999999999993,-0.24951999999999996,0.048819999999999864,0.05333999999999994,-0.395,0.05499999999999994,-0.010000000000000009,-0.1689400000000001,-0.021600000000000064,0.17420000000000013,1742257768.512091
-0.635,-0.025000000000000022,-0.42999999999999994,0.04272000000000009,0.022820000000000062,0.07630000000000003,-0.26,-0.17000000000000004,0.040000000000000036,-0.027220000000000022,-0.09936,0.018920000000000048,1742257768.626094
-0.49,-0.030000000000000027,-0.29000000000000004,0.10777999999999999,-0.08031999999999995,-0.05041999999999991,-0.375,-0.16000000000000003,-0.020000000000000018,0.055420000000000025,0.1433199999999999,-0.07311999999999996,1742257768.7438788
-0.28,0.09499999999999997,-0.125,0.09105999999999992,-0.06286000000000003,-0.047860000000000014,-0.69,-0.07499999999999996,-0.30499999999999994,0.10376000000000007,0.07214000000000009,-0.10914000000000001,1742257768.8542368
-0.36,0.030000000000000027,-0.15500000000000003,-0.15466000000000002,0.08983999999999992,0.03320000000000012,-0.605,-0.07999999999999996,-0.31499999999999995,-0.12365999999999999,-0.1825,0.07933999999999997,1742257768.9681458
-0.605,-0.07999999999999996,-0.53,-0.11853999999999998,0.07752000000000003,0.024780000000000024,-0.20499999999999996,-0.20999999999999996,0.20999999999999996,-0.04747999999999997,-0.024780000000000024,0.07153999999999994,1742257769.083311
-0.52,-0.06499999999999995,-0.3400000000000001,0.14561999999999986,0.006220000000000114,-0.04736000000000007,-0.385,-0.17500000000000004,0.06000000000000005,-0.036860000000000004,0.1177999999999999,-0.040159999999999973,1742257769.196204
-0.36,0.10499999999999998,-0.10499999999999998,0.13659999999999983,-0.08739999999999992,-0.08177999999999996,-0.635,-0.06499999999999995,-0.14500000000000002,0.14588,0.1471,-0.14513999999999994,1742257769.3103812
-0.31000000000000005,0.05499999999999994,-0.06499999999999995,-0.15501999999999994,0.056400000000000006,0.004999999999999893,-0.69,-0.135,-0.32499999999999996,-0.05676000000000003,-0.054440000000000044,0.11340000000000017,1742257769.424494
-0.54,-0.015000000000000013,-0.235,-0.006220000000000003,0.17626000000000008,-0.00036000000000002697,-0.345,-0.22499999999999998,0.23499999999999988,-0.057499999999999996,-0.17322000000000004,0.09436,1742257769.544307
-0.555,-0.0050000000000000044,-0.31499999999999995,0.05090000000000017,-0.12255999999999989,-0.00878000000000001,-0.30000000000000004,-0.20499999999999996,0.08000000000000007,0.03968000000000016,0.07776000000000005,0.0032999999999998586,1742257769.652243
-0.43999999999999995,-0.015000000000000013,-0.4650000000000001,0.24268,-0.061880000000000046,-0.12818000000000007,-0.54,-0.125,-0.15000000000000002,0.16456000000000004,0.052240000000000064,-0.20775999999999994,1742257769.766216
-0.3400000000000001,0.125,-0.05500000000000005,-0.04137999999999997,0.010000000000000009,-0.025760000000000005,-0.67,-0.20499999999999996,-0.20499999999999996,-0.02198,-0.03748000000000007,0.056640000000000024,1742257769.886493
-0.43500000000000005,0.02499999999999991,-0.255,-0.12378,0.10925999999999991,0.07238000000000011,-0.405,-0.15000000000000002,-0.20499999999999996,-0.03210000000000002,-0.22558,0.02429999999999999,1742257769.994163
-0.525,0.014999999999999902,-0.29000000000000004,0.09289999999999998,0.031380000000000186,-0.046640000000000015,-0.30499999999999994,-0.255,0.040000000000000036,0.03492000000000006,0.03638000000000008,-0.0022000000000000908,1742257770.1080909
-0.365,0.15500000000000003,-0.04500000000000004,0.13853999999999989,-0.02624000000000004,-0.09692,-0.53,-0.08999999999999997,-0.135,0.05371999999999999,0.21873999999999993,-0.06458000000000008,1742257770.224519
-0.375,0.10499999999999998,-0.475,-0.1947000000000001,-0.14844000000000002,0.07740000000000014,-0.37,-0.17999999999999994,-0.010000000000000009,-0.21887999999999996,0.09875999999999996,0.18811999999999984,1742257770.3361568
-0.43500000000000005,0.02499999999999991,-0.125,-0.11608000000000007,0.08861999999999992,0.04785999999999979,-0.605,-0.19500000000000006,-0.28,0.029059999999999864,-0.20422000000000007,0.05164000000000013,1742257770.4500391
-0.58,0.004999999999999893,-0.43999999999999995,-0.07544000000000006,-0.00024000000000001798,0.10289999999999999,-0.245,-0.21999999999999997,0.07000000000000006,-0.13160000000000005,-0.04310000000000003,0.08692000000000011,1742257770.564538
-0.48,0.0,-0.245,0.11352000000000007,-0.09570000000000001,-0.021120000000000028,-0.42500000000000004,-0.18500000000000005,-0.015000000000000013,0.08251999999999993,0.17345999999999995,-0.08605999999999991,1742257770.6782022
-0.37,0.21999999999999997,-0.050000000000000044,0.07933999999999997,-0.04724000000000006,-0.0034199999999999786,-0.635,-0.15500000000000003,-0.24,0.028939999999999966,0.1408600000000002,-0.0625,1742257770.792086
-0.42500000000000004,0.135,-0.19999999999999996,-0.05615999999999999,0.08898000000000006,-0.030399999999999983,-0.51,-0.21499999999999997,-0.17000000000000004,-0.10070000000000001,-0.07618000000000003,0.10973999999999995,1742257770.906438
-0.41999999999999993,0.030000000000000027,-0.27,-0.07091999999999998,0.05920000000000014,0.00550000000000006,-0.375,-0.18999999999999995,-0.125,-0.011360000000000037,-0.12829999999999997,0.04932000000000003,1742257771.027296
-0.485,0.010000000000000009,-0.345,0.04845999999999995,0.007940000000000058,0.005859999999999976,-0.31000000000000005,-0.18999999999999995,-0.0050000000000000044,0.07800000000000007,0.015139999999999931,-0.07544000000000006,1742257771.133873
-0.35,0.18999999999999995,-0.07000000000000006,0.2118,0.04188000000000014,-0.08287999999999995,-0.63,-0.07999999999999996,-0.25,0.16784,0.07020000000000004,-0.1945800000000001,1742257771.24798
-0.345,0.10000000000000009,-0.135,0.12268000000000012,0.05285999999999991,-0.020379999999999954,-0.63,0.02499999999999991,-0.29499999999999993,-0.011960000000000082,0.0920399999999999,0.01770000000000005,1742257771.36605
-0.495,0.09000000000000008,-0.22499999999999998,-0.19653999999999994,0.027579999999999938,0.13427999999999995,-0.39,-0.11499999999999999,-0.18500000000000005,-0.10327999999999993,-0.12573999999999996,0.10021999999999998,1742257771.4759822
-0.48,-0.03500000000000003,-0.35,0.06922000000000006,0.020380000000000065,0.0031799999999999606,-0.31000000000000005,-0.08499999999999996,0.004999999999999893,-0.028940000000000077,0.016000000000000014,0.021120000000000028,1742257771.5900009
-0.43500000000000005,-0.015000000000000013,-0.24,0.13707999999999987,-0.034420000000000006,-0.028799999999999937,-0.595,-0.135,-0.14500000000000002,0.16405999999999987,0.09509999999999996,-0.1875,1742257771.70913
-0.4099999999999999,0.14500000000000002,-0.10499999999999998,-0.09715999999999991,-0.12451999999999996,0.06140000000000012,-0.61,-0.15000000000000002,-0.05500000000000005,0.00024000000000001798,0.10242000000000018,0.014520000000000088,1742257771.825348
-0.4099999999999999,-0.010000000000000009,-0.16500000000000004,-0.08448,0.08496000000000015,0.07630000000000003,-0.585,-0.18999999999999995,-0.19999999999999996,-0.17113999999999996,-0.06591999999999998,0.16405999999999987,1742257771.9320588
-0.62,0.014999999999999902,-0.4,-0.10741999999999996,-0.02746000000000004,0.03723999999999994,-0.19999999999999996,-0.07999999999999996,0.135,-0.06774000000000002,0.022460000000000147,0.04479999999999995,1742257772.045999
-0.4650000000000001,-0.020000000000000018,-0.26,0.09266000000000019,-0.1189,-0.03846000000000005,-0.475,-0.08999999999999997,-0.020000000000000018,-0.06176000000000004,0.17432000000000003,-0.024540000000000006,1742257772.167797
-0.345,0.09000000000000008,-0.09999999999999998,0.07909999999999995,-0.00048000000000003595,-0.025399999999999978,-0.57,-0.050000000000000044,-0.11499999999999999,0.03051999999999988,0.08618000000000015,-0.06041999999999992,1742257772.274049
-0.355,0.02499999999999991,-0.14,-0.07835999999999999,0.06666000000000016,0.037839999999999874,-0.62,-0.12,-0.29000000000000004,-0.08362000000000003,-0.09326000000000001,0.12182000000000004,1742257772.388032
-0.395,0.004999999999999893,-0.255,-0.08960000000000001,0.02844000000000002,0.026739999999999986,-0.44500000000000006,-0.15000000000000002,-0.235,-0.0045199999999999685,-0.12012,0.05126000000000008,1742257772.505918
-0.485,-0.020000000000000018,-0.33499999999999996,0.029900000000000038,-0.026980000000000004,-0.018799999999999928,-0.32499999999999996,-0.14,0.014999999999999902,0.020259999999999945,0.043460000000000054,-0.010000000000000009,1742257772.61616
-0.485,0.040000000000000036,-0.29000000000000004,0.16369999999999996,-0.0232,-0.06652000000000002,-0.51,-0.06499999999999995,-0.135,0.13781999999999983,0.07373999999999992,-0.19262,1742257772.730106
-0.41500000000000004,0.0,-0.15500000000000003,-0.06005999999999989,-0.0047599999999999865,0.05590000000000006,-0.685,-0.125,-0.10999999999999999,-0.006720000000000059,-0.010499999999999954,-0.041139999999999954,1742257772.845332
-0.515,0.04499999999999993,-0.20999999999999996,-0.28137999999999996,0.03527999999999998,0.11170000000000013,-0.375,0.0,-0.09999999999999998,-0.07287999999999994,-0.09605999999999992,0.049799999999999844,1742257772.965869
-0.54,-0.0050000000000000044,-0.39,-0.02513999999999994,-0.005240000000000022,0.0040199999999999125,-0.2849999999999999,-0.10499999999999998,0.05499999999999994,-0.05113999999999996,-0.01537999999999995,0.06164000000000014,1742257773.072159
-0.48,-0.015000000000000013,-0.33000000000000007,0.10681999999999992,-0.09239999999999993,-0.04810000000000003,-0.365,-0.09999999999999998,-0.0050000000000000044,0.02942,0.09338000000000002,-0.07189999999999996,1742257773.189131
-0.4,0.014999999999999902,-0.22499999999999998,0.0577399999999999,-0.08287999999999995,-0.047860000000000014,-0.635,-0.08499999999999996,-0.125,0.10498000000000007,0.08814000000000011,-0.09533999999999998,1742257773.306714
-0.33499999999999996,-0.025000000000000022,-0.08999999999999997,-0.1016800000000001,0.06457999999999986,0.011360000000000037,-0.62,-0.05500000000000005,-0.19999999999999996,-0.08716000000000002,-0.054200000000000026,0.10596000000000005,1742257773.414086
-0.42999999999999994,0.02499999999999991,-0.2849999999999999,-0.048820000000000086,0.08874000000000004,0.006599999999999939,-0.51,-0.09499999999999997,-0.22499999999999998,-0.0031799999999999606,-0.19886000000000004,0.03614000000000006,1742257773.5278962
-0.42999999999999994,-0.06000000000000005,-0.29000000000000004,0.03405999999999998,-0.00048000000000003595,-0.042240000000000055,-0.30499999999999994,-0.14500000000000002,-0.030000000000000027,0.010000000000000009,0.045539999999999914,0.018179999999999863,1742257773.6479008
-0.405,0.014999999999999902,-0.24,0.09436,-0.034420000000000006,-0.033320000000000016,-0.555,-0.09999999999999998,-0.06499999999999995,0.0674999999999999,0.15344000000000002,-0.16015999999999997,1742257773.7561312
-0.33000000000000007,0.06499999999999995,-0.14,0.04711999999999983,-0.007080000000000086,0.005740000000000078,-0.67,-0.050000000000000044,-0.235,0.10792000000000002,-0.0075599999999999,-0.08886000000000005,1742257773.869926
-0.39,0.014999999999999902,-0.235,-0.12438000000000005,0.005120000000000013,0.08507999999999982,-0.56,-0.06499999999999995,-0.09999999999999998,-0.13024000000000002,-0.04955999999999994,0.11107999999999985,1742257773.986884
-0.625,0.0,-0.41500000000000004,-0.07275999999999994,0.03917999999999999,0.04625999999999997,-0.26,-0.09499999999999997,0.14500000000000002,-0.05235999999999996,0.012199999999999989,0.029900000000000038,1742257774.107082
-0.485,0.030000000000000027,-0.32499999999999996,0.06591999999999998,-0.10399999999999998,-0.03283999999999998,-0.38,-0.08999999999999997,0.0,-0.01660000000000006,0.13525999999999994,0.014780000000000015,1742257774.212044
-0.33000000000000007,0.040000000000000036,-0.06000000000000005,0.11194000000000015,-0.04039999999999999,-0.04027999999999998,-0.685,-0.05500000000000005,-0.19500000000000006,0.03442000000000012,0.08385999999999982,-0.008539999999999992,1742257774.326699
-0.365,0.030000000000000027,-0.17500000000000004,-0.08275999999999994,0.05396000000000001,0.02391999999999994,-0.64,-0.03500000000000003,-0.21499999999999997,-0.015619999999999967,-0.050899999999999945,0.03845999999999994,1742257774.4461389
-0.45999999999999996,-0.020000000000000018,-0.31000000000000005,-0.043460000000000054,0.12890000000000001,0.03685999999999989,-0.44500000000000006,-0.07999999999999996,-0.16500000000000004,-0.035640000000000005,-0.17053999999999991,0.024780000000000024,1742257774.553997
-0.515,-0.015000000000000013,-0.345,0.014520000000000088,-0.036739999999999995,-0.008539999999999992,-0.355,-0.15000000000000002,0.010000000000000009,-0.021120000000000028,0.047719999999999985,0.02210000000000001,1742257774.6691022
-0.385,-0.010000000000000009,-0.18500000000000005,0.20043999999999995,-0.06029999999999991,-0.12487999999999999,-0.52,-0.050000000000000044,-0.06000000000000005,0.1408600000000002,0.08666000000000018,-0.17286,1742257774.78615
-0.39,0.06499999999999995,-0.15000000000000002,0.052240000000000064,0.010000000000000009,-0.02403999999999995,-0.615,-0.06499999999999995,-0.17999999999999994,0.03198000000000012,-0.04296,0.00550000000000006,1742257774.895902
-0.41999999999999993,0.03499999999999992,-0.20499999999999996,-0.12915999999999994,0.0684800000000001,0.055420000000000025,-0.45500000000000007,0.050000000000000044,-0.125,-0.12438000000000005,-0.10498000000000007,0.15233999999999992,1742257775.009899
-0.555,0.050000000000000044,-0.405,-0.05358000000000007,-0.06225999999999998,0.03735999999999984,-0.275,-0.15500000000000003,0.050000000000000044,0.015260000000000051,0.016599999999999948,0.007560000000000011,1742257775.127082
-0.45500000000000007,0.08499999999999996,-0.265,0.08885999999999994,-0.0697000000000001,-0.042360000000000064,-0.47,-0.12,-0.08999999999999997,0.13134,0.051140000000000185,-0.16174,1742257775.247314
-0.28,0.09000000000000008,-0.10999999999999999,0.014899999999999913,-0.006099999999999994,0.022820000000000062,-0.515,-0.050000000000000044,-0.15000000000000002,-0.08044000000000007,0.06603999999999988,0.0009799999999999809,1742257775.351892
-0.345,-0.020000000000000018,-0.17000000000000004,-0.10803999999999991,0.0954600000000001,0.060799999999999965,-0.64,-0.12,-0.32499999999999996,-0.09362000000000004,-0.14746000000000004,0.10559999999999992,1742257775.466944
-0.52,0.02499999999999991,-0.31000000000000005,-0.11146,0.06128,-0.0041599999999999415,-0.385,-0.08999999999999997,0.1100000000000001,-0.0958199999999999,-0.10572000000000004,0.10474000000000006,1742257775.587239
-0.505,0.014999999999999902,-0.35,0.0578599999999998,-0.07799999999999996,-0.04810000000000003,-0.275,-0.08999999999999997,0.014999999999999902,0.011239999999999917,0.04283999999999999,-0.03698000000000001,1742257775.694043
-0.4099999999999999,-0.06000000000000005,-0.29499999999999993,0.04675999999999991,-0.09498000000000006,-0.015139999999999931,-0.635,-0.235,-0.18999999999999995,0.03222000000000014,0.08373999999999993,-0.05712000000000006,1742257775.808298
-0.365,0.050000000000000044,-0.15000000000000002,-0.029899999999999927,0.022699999999999942,0.021360000000000046,-0.625,-0.135,-0.22999999999999998,0.04688000000000003,-0.0549400000000001,-0.025760000000000005,1742257775.92882
-0.505,0.02499999999999991,-0.29000000000000004,-0.12902000000000002,0.07835999999999999,0.022340000000000027,-0.39,-0.06499999999999995,-0.08499999999999996,-0.04405999999999999,-0.08299999999999996,0.09179999999999988,1742257776.035839
-0.565,0.05499999999999994,-0.385,-0.03308,-0.02513999999999994,0.0023200000000000998,-0.24,-0.10499999999999998,0.0,-0.014780000000000015,0.05078000000000005,0.04039999999999999,1742257776.15004
-0.41999999999999993,0.040000000000000036,-0.19999999999999996,0.10546000000000011,-0.07275999999999994,-0.02648000000000006,-0.48,-0.135,-0.0050000000000000044,0.016720000000000068,0.19544000000000006,-0.03295999999999999,1742257776.267493
-0.345,0.05499999999999994,-0.17500000000000004,0.08288000000000006,-0.03149999999999997,-0.01427999999999996,-0.71,-0.16500000000000004,-0.235,0.11170000000000013,0.10961999999999983,-0.08838000000000001,1742257776.387681
-0.47,0.08000000000000007,-0.17500000000000004,-0.10803999999999991,0.048960000000000115,0.042240000000000055,-0.555,-0.12,-0.10499999999999998,-0.025519999999999987,-0.17125999999999997,0.05908000000000002,1742257776.4918458
-0.54,-0.03500000000000003,-0.30000000000000004,-0.10899999999999999,0.12475999999999998,0.031500000000000083,-0.35,-0.14500000000000002,0.08499999999999996,-0.014519999999999977,-0.15161999999999998,0.0329600000000001,1742257776.607828
-0.52,0.004999999999999893,-0.32499999999999996,0.0578599999999998,-0.02185999999999999,0.002080000000000082,-0.32499999999999996,-0.14500000000000002,0.020000000000000018,0.05285999999999991,0.056519999999999904,-0.047860000000000014,1742257776.728003
-0.38,-0.015000000000000013,-0.17999999999999994,0.19213999999999998,-0.08228000000000002,-0.1079199999999999,-0.545,-0.13,-0.125,0.09301999999999988,0.08129999999999993,-0.09802,1742257776.83405
-0.41500000000000004,0.10000000000000009,-0.09999999999999998,-0.0023200000000000998,0.015139999999999931,-0.018919999999999937,-0.66,-0.16000000000000003,-0.18999999999999995,0.015619999999999967,-0.034540000000000015,0.0015800000000001369,1742257776.948512
-0.44500000000000006,0.08499999999999996,-0.245,-0.07713999999999999,0.11229999999999984,-0.08775999999999995,-0.4099999999999999,-0.050000000000000044,-0.07999999999999996,-0.0018400000000000638,-0.09448000000000001,0.11803999999999992,1742257777.06742
-0.555,0.08499999999999996,-0.4099999999999999,-0.052240000000000064,-0.03064,0.01635999999999993,-0.18999999999999995,-0.16000000000000003,0.09499999999999997,-0.015499999999999958,-0.020139999999999936,0.04932000000000003,1742257777.175883
-0.4,0.05499999999999994,-0.32499999999999996,0.09742000000000006,-0.03260000000000007,-0.038940000000000086,-0.32499999999999996,-0.020000000000000018,0.014999999999999902,0.12731999999999988,0.09216000000000002,-0.14722000000000002,1742257777.289932
-0.365,0.22999999999999998,0.09499999999999997,0.01635999999999993,-0.06396000000000002,0.04944000000000015,-0.705,-0.04500000000000004,-0.22499999999999998,-0.30152,0.21998000000000006,0.24890000000000012,1742257777.407671
-0.355,0.10499999999999998,-0.13,-0.03967999999999994,0.09129999999999994,0.05761999999999978,-0.56,-0.21499999999999997,-0.15500000000000003,-0.0502999999999999,-0.14160000000000006,0.059940000000000104,1742257777.527185
-0.57,0.02499999999999991,-0.365,-0.11548000000000003,0.04614000000000007,0.08349999999999991,-0.3400000000000001,-0.15500000000000003,0.15500000000000003,-0.06701999999999997,-0.05798000000000003,0.05797999999999992,1742257777.631884
-0.52,0.020000000000000018,-0.365,-0.05346000000000006,-0.08008000000000004,0.01110000000000011,-0.365,-0.17500000000000004,-0.07000000000000006,-0.021600000000000064,0.01550000000000007,0.02185999999999999,1742257777.747822
-0.42500000000000004,0.125,-0.255,0.18652000000000002,-0.09094000000000002,-0.043220000000000036,-0.485,-0.09499999999999997,-0.08999999999999997,0.10206000000000004,0.10230000000000006,-0.17577999999999994,1742257777.868248
-0.36,0.1200000000000001,-0.10499999999999998,-0.005120000000000013,-0.0036599999999999966,0.021479999999999944,-0.675,-0.125,-0.20999999999999996,0.046640000000000015,-0.046640000000000015,-0.060919999999999974,1742257777.9739368
-0.49,0.06499999999999995,-0.26,-0.19299999999999995,0.08338000000000001,0.04516000000000009,-0.41999999999999993,-0.08499999999999996,-0.13,-0.09484000000000004,-0.06579999999999997,0.12426000000000004,1742257778.08782
