L-AccX,L-AccY,L-AccZ,L-GyrX,L-GyrY,L-GyrZ,R-AccX,R-AccY,R-AccZ,R-GyrX,R-GyrY,R-GyrZ,timestamp
0.17500000000000004,-0.44999999999999996,0.15500000000000003,0.011719999999999953,-0.05908000000000002,-0.03527999999999998,0.125,0.41500000000000004,0.21999999999999997,-0.03539999999999999,-0.12963999999999998,-0.0039000000000000146,1742259734.077141
0.16999999999999993,-0.42999999999999994,0.19500000000000006,0.011360000000000037,0.02185999999999999,-0.010259999999999936,0.08000000000000007,0.4099999999999999,0.32000000000000006,-0.05577999999999994,-0.035760000000000014,0.02540000000000009,1742259734.1914911
0.20999999999999996,-0.43999999999999995,0.1100000000000001,0.045420000000000016,-0.0015800000000000258,-0.02746000000000004,0.09000000000000008,0.41999999999999993,0.27,-0.05944000000000005,0.00865999999999989,0.03222000000000014,1742259734.311457
0.1499999999999999,-0.475,0.08499999999999996,0.06494,-0.02415999999999996,-0.051019999999999954,0.08499999999999996,0.42500000000000004,0.20999999999999996,-0.08398000000000005,-0.0018400000000000638,0.06481999999999988,1742259734.41914
0.09499999999999997,-0.5,0.07499999999999996,0.04503999999999997,0.01415999999999995,-0.03846000000000005,0.0,0.43500000000000005,0.21500000000000008,-0.01660000000000006,0.0,0.052000000000000046,1742259734.534088
0.09499999999999997,-0.495,0.06000000000000005,0.0029200000000000337,0.0043999999999999595,0.0035399999999998766,0.02499999999999991,0.4750000000000001,0.20500000000000007,-0.07604,0.008539999999999992,-0.0122000000000001,1742259734.651126
0.125,-0.45999999999999996,0.08000000000000007,-0.04467999999999994,0.040159999999999973,0.006340000000000012,0.030000000000000027,0.4750000000000001,0.16500000000000004,-0.005120000000000013,0.07531999999999983,-0.03064,1742259734.761069
0.1200000000000001,-0.485,0.07499999999999996,0.026739999999999986,-0.020499999999999963,-0.010379999999999945,0.06000000000000005,0.4650000000000001,0.16500000000000004,-0.04944000000000004,0.0329600000000001,0.00865999999999989,1742259734.875139
0.10499999999999998,-0.45999999999999996,0.08499999999999996,0.00537999999999994,-0.013919999999999932,-0.015739999999999976,0.07499999999999996,0.5,0.1499999999999999,-0.04503999999999997,0.006599999999999939,0.021360000000000046,1742259734.992598
0.1100000000000001,-0.4650000000000001,0.08499999999999996,0.046640000000000015,-0.009279999999999955,-0.023799999999999932,0.04499999999999993,0.47,0.125,-0.047599999999999976,0.020999999999999908,0.01868000000000003,1742259735.110379
0.07000000000000006,-0.51,0.030000000000000027,0.07359999999999989,-0.007440000000000002,-0.011360000000000037,0.040000000000000036,0.4950000000000001,0.09499999999999997,-0.02954000000000001,0.06176000000000004,0.041020000000000056,1742259735.217244
0.09000000000000008,-0.5,0.004999999999999893,0.030399999999999983,-0.012319999999999998,0.007940000000000058,0.020000000000000018,0.53,0.06499999999999995,-0.011960000000000082,0.07666000000000017,0.052240000000000064,1742259735.331058
0.09499999999999997,-0.505,0.0,0.025880000000000125,-0.03870000000000007,-0.002080000000000082,-0.010000000000000009,0.4849999999999999,0.05499999999999994,0.0018400000000000638,0.036619999999999875,0.02648000000000006,1742259735.451506
0.08000000000000007,-0.495,-0.015000000000000013,-0.0012199999999999989,-0.02088000000000001,0.0019599999999999618,0.014999999999999902,0.51,0.06499999999999995,-0.010739999999999972,0.02088000000000001,0.007440000000000113,1742259735.559142
0.09499999999999997,-0.485,-0.010000000000000009,-0.007200000000000095,-0.01525999999999994,0.0021999999999999797,0.004999999999999893,0.4950000000000001,0.06499999999999995,-0.0036599999999999966,-0.01648000000000005,-0.007320000000000104,1742259735.673144
0.09499999999999997,-0.475,0.0,-0.01305999999999996,-0.013679999999999914,0.0,-0.015000000000000013,0.5049999999999999,0.06499999999999995,0.010000000000000009,-0.0015800000000000258,-0.010379999999999945,1742259735.790836
0.08499999999999996,-0.47,0.014999999999999902,0.0024399999999999977,0.0018400000000000638,-0.0023200000000000998,0.014999999999999902,0.5,0.07000000000000006,0.010259999999999936,0.0014600000000000168,-0.009279999999999955,1742259735.900948
0.08000000000000007,-0.47,0.010000000000000009,0.014040000000000052,0.010739999999999972,-0.0048799999999999955,0.020000000000000018,0.49,0.07499999999999996,-0.007080000000000086,-0.007200000000000095,0.009160000000000057,1742259736.014955
0.07000000000000006,-0.4650000000000001,0.004999999999999893,0.05003999999999986,0.017819999999999947,-0.030159999999999965,0.02499999999999991,0.4750000000000001,0.07000000000000006,-0.022820000000000062,-0.024780000000000024,0.015859999999999985,1742259736.130838
0.06000000000000005,-0.47,-0.050000000000000044,0.07323999999999997,0.024540000000000006,-0.03272000000000008,0.004999999999999893,0.45999999999999996,0.040000000000000036,-0.054320000000000035,-0.039059999999999984,0.0283199999999999,1742259736.2510002
0.06499999999999995,-0.535,-0.08999999999999997,0.02185999999999999,0.013679999999999914,-0.008299999999999974,-0.040000000000000036,0.565,0.004999999999999893,-0.057499999999999996,-0.04161999999999999,0.04174000000000011,1742259736.3570628
0.06499999999999995,-0.4650000000000001,-0.07999999999999996,-0.0032999999999999696,0.006720000000000059,-0.0007399999999999629,-0.05500000000000005,0.5249999999999999,0.004999999999999893,0.011719999999999953,-0.024540000000000006,-0.0022000000000000908,1742259736.4718442
0.06499999999999995,-0.525,-0.07499999999999996,-0.0036599999999999966,-0.018179999999999974,0.0032999999999998586,-0.06000000000000005,0.47,-0.020000000000000018,-0.0012199999999999989,-0.0006199999999999539,-0.0006199999999999539,1742259736.59093
0.06000000000000005,-0.47,-0.05500000000000005,-0.03979999999999995,-0.02855999999999992,0.0343,-0.03500000000000003,0.5249999999999999,0.010000000000000009,0.02307999999999999,0.0030599999999998406,-0.01636000000000004,1742259736.699276
0.07499999999999996,-0.505,-0.03500000000000003,-0.04149999999999998,-0.026120000000000032,0.024540000000000006,-0.030000000000000027,0.4950000000000001,0.02499999999999991,0.031380000000000186,0.01635999999999993,-0.018320000000000003,1742259736.81317
0.09000000000000008,-0.495,-0.015000000000000013,-0.04161999999999999,-0.018179999999999974,0.020380000000000065,-0.015000000000000013,0.5249999999999999,0.050000000000000044,0.06103999999999998,0.009519999999999973,-0.03539999999999999,1742259736.930266
0.1100000000000001,-0.495,0.020000000000000018,-0.0601799999999999,-0.020379999999999954,0.038939999999999975,0.004999999999999893,0.52,0.07499999999999996,0.04797999999999991,0.010739999999999972,-0.04149999999999998,1742259737.041079
0.11499999999999999,-0.475,0.050000000000000044,-0.05565999999999993,-0.012820000000000054,0.03723999999999994,0.02499999999999991,0.4849999999999999,0.10000000000000009,0.05030000000000001,0.016720000000000068,-0.03370000000000006,1742259737.155061
0.125,-0.42500000000000004,0.06499999999999995,-0.042360000000000064,-0.0018400000000000638,0.01990000000000003,0.040000000000000036,0.45999999999999996,0.1100000000000001,0.059940000000000104,0.012460000000000138,-0.02734000000000003,1742259737.269583
0.1299999999999999,-0.475,0.08000000000000007,-0.008919999999999928,-0.0048799999999999955,-0.0006199999999999539,0.030000000000000027,0.47,0.125,0.002080000000000082,0.010739999999999972,-0.009039999999999937,1742259737.391532
0.135,-0.44500000000000006,0.09000000000000008,0.0035399999999998766,0.0015800000000001369,-0.008299999999999974,0.06000000000000005,0.48,0.14000000000000012,0.0045200000000000795,-0.008059999999999956,-0.017080000000000095,1742259737.496938
0.135,-0.47,0.08000000000000007,0.0034199999999999786,-0.0024400000000001087,-0.0013400000000000079,0.05499999999999994,0.4849999999999999,0.14000000000000012,-0.008299999999999974,-0.001960000000000073,-0.00048000000000003595,1742259737.611053
0.135,-0.45999999999999996,0.08499999999999996,0.0014600000000000168,-0.0029199999999999227,-0.0017000000000000348,0.05499999999999994,0.49,0.1299999999999999,0.00550000000000006,-0.0012199999999999989,-0.006720000000000059,1742259737.730992
0.1299999999999999,-0.475,0.08499999999999996,-0.006099999999999994,0.0019599999999999618,-0.0013400000000000079,0.05499999999999994,0.4750000000000001,0.1299999999999999,-0.0009799999999999809,0.0021999999999999797,-0.0029199999999999227,1742259737.839036
0.1299999999999999,-0.47,0.08499999999999996,-0.0040200000000000236,0.0007399999999999629,-0.001960000000000073,0.06000000000000005,0.48,0.1299999999999999,-0.00024000000000001798,-0.0007399999999999629,-0.007200000000000095,1742259737.952975
0.1299999999999999,-0.475,0.08499999999999996,-0.0032999999999999696,0.0014600000000000168,-0.0006199999999999539,0.06000000000000005,0.48,0.1299999999999999,-0.0007399999999999629,-0.0012199999999999989,-0.00660000000000005,1742259738.0697742
0.1299999999999999,-0.47,0.09000000000000008,-0.0047599999999999865,0.0024399999999999977,0.0013400000000001189,0.06000000000000005,0.48,0.1299999999999999,0.0013400000000001189,-0.0041599999999999415,-0.0042799999999999505,1742259738.18084
0.1299999999999999,-0.4650000000000001,0.09499999999999997,-0.002080000000000082,0.0043999999999999595,-0.0007399999999999629,0.06499999999999995,0.4750000000000001,0.135,0.0030599999999998406,-0.00537999999999994,-0.002080000000000082,1742259738.294931
0.135,-0.47,0.09000000000000008,0.00011999999999989797,0.0030599999999998406,-0.0035399999999999876,0.06499999999999995,0.47,0.135,-0.0015800000000000258,-0.001960000000000073,-0.0007399999999999629,1742259738.4100218
0.135,-0.47,0.09000000000000008,-0.005859999999999976,0.0009799999999999809,0.0014600000000000168,0.06000000000000005,0.48,0.135,-0.00036000000000002697,-0.0040200000000000236,-0.00012000000000000899,1742259738.522845
0.1299999999999999,-0.4650000000000001,0.09499999999999997,-0.0047599999999999865,0.0014600000000000168,0.00011999999999989797,0.06499999999999995,0.48,0.14000000000000012,0.0045200000000000795,-0.0015800000000000258,-0.0025599999999998957,1742259738.636842
0.135,-0.47,0.10000000000000009,-0.0045199999999999685,0.002080000000000082,-0.0024400000000001087,0.06499999999999995,0.4750000000000001,0.14000000000000012,0.0031799999999999606,-0.0008599999999999719,-0.0036599999999999966,1742259738.7515972
0.135,-0.4650000000000001,0.10000000000000009,-0.0045199999999999685,0.0019599999999999618,-0.002080000000000082,0.06499999999999995,0.4750000000000001,0.14000000000000012,0.001100000000000101,-0.0013400000000000079,-0.0031799999999999606,1742259738.870647
0.1299999999999999,-0.45999999999999996,0.10000000000000009,-0.0039000000000000146,0.00035999999999991594,-0.00036000000000002697,0.07000000000000006,0.4750000000000001,0.14000000000000012,0.002080000000000082,-0.0007399999999999629,-0.0015800000000000258,1742259738.9789052
0.1299999999999999,-0.45999999999999996,0.10000000000000009,-0.0006199999999999539,0.001100000000000101,-0.0023200000000000998,0.07000000000000006,0.4750000000000001,0.14500000000000002,0.0009799999999999809,-0.0006199999999999539,-0.0009799999999999809,1742259739.092972
0.1299999999999999,-0.47,0.10000000000000009,0.00024000000000001798,0.0,-0.002080000000000082,0.07000000000000006,0.4750000000000001,0.14000000000000012,-0.001960000000000073,-0.00048000000000003595,-0.00036000000000002697,1742259739.209833
0.1299999999999999,-0.47,0.10000000000000009,-0.0009799999999999809,0.00035999999999991594,-0.0025599999999998957,0.06499999999999995,0.4750000000000001,0.14000000000000012,-0.0008599999999999719,-0.00048000000000003595,-0.002080000000000082,1742259739.320918
0.1299999999999999,-0.47,0.10000000000000009,-0.0022000000000000908,-0.00012000000000000899,-0.0023200000000000998,0.06499999999999995,0.48,0.14000000000000012,0.00011999999999989797,0.00048000000000003595,-0.001960000000000073,1742259739.434943
0.125,-0.47,0.10499999999999998,-0.002080000000000082,-0.00036000000000002697,-0.0017000000000000348,0.07000000000000006,0.4750000000000001,0.14000000000000012,0.0023200000000000998,-0.00048000000000003595,-0.0015800000000000258,1742259739.553555
0.125,-0.47,0.10499999999999998,-0.0009799999999999809,0.00048000000000003595,-0.0015800000000000258,0.07000000000000006,0.47,0.14000000000000012,0.00011999999999989797,0.00035999999999991594,-0.0022000000000000908,1742259739.66917
0.125,-0.47,0.10499999999999998,-0.001960000000000073,0.001100000000000101,-0.0029199999999999227,0.07000000000000006,0.4750000000000001,0.14000000000000012,-0.00048000000000003595,0.0008600000000000829,-0.0027999999999999137,1742259739.777048
0.125,-0.47,0.10499999999999998,-0.0009799999999999809,0.0012199999999999989,-0.0037800000000000056,0.07499999999999996,0.4750000000000001,0.14000000000000012,-0.0008599999999999719,-0.0007399999999999629,-0.0025599999999998957,1742259739.8908548
0.1200000000000001,-0.47,0.10499999999999998,-0.00048000000000003595,0.0015800000000001369,-0.0026799999999999047,0.07499999999999996,0.4750000000000001,0.14000000000000012,-0.0014600000000000168,-0.00024000000000001798,-0.0030599999999999516,1742259740.0118558
0.1200000000000001,-0.47,0.1100000000000001,-0.001960000000000073,0.0021999999999999797,-0.0022000000000000908,0.07499999999999996,0.4750000000000001,0.135,-0.0008599999999999719,-0.0015800000000000258,-0.0025599999999998957,1742259740.118853
0.1200000000000001,-0.47,0.1100000000000001,-0.0029199999999999227,0.0018400000000000638,-0.0027999999999999137,0.07499999999999996,0.4750000000000001,0.14000000000000012,0.0,-0.0012199999999999989,-0.0026799999999999047,1742259740.2328398
0.1200000000000001,-0.475,0.1100000000000001,-0.0042799999999999505,0.0018400000000000638,-0.0018400000000000638,0.07499999999999996,0.4750000000000001,0.135,-0.00048000000000003595,-0.0018400000000000638,-0.0025599999999998957,1742259740.349329
0.1200000000000001,-0.47,0.1100000000000001,-0.0009799999999999809,0.0037799999999998946,-0.0035399999999999876,0.08000000000000007,0.4650000000000001,0.135,0.00024000000000001798,-0.0023200000000000998,-0.0036599999999999966,1742259740.4608471
0.1200000000000001,-0.475,0.1100000000000001,-0.0025599999999998957,0.0035399999999998766,-0.0024400000000001087,0.08000000000000007,0.47,0.135,-0.0027999999999999137,-0.005979999999999985,-0.0031799999999999606,1742259740.574843
0.1200000000000001,-0.47,0.10499999999999998,-0.0015800000000000258,0.0007399999999999629,-0.001960000000000073,0.07499999999999996,0.4750000000000001,0.135,0.00011999999999989797,-0.0031799999999999606,-0.0007399999999999629,1742259740.68914
0.11499999999999999,-0.47,0.1100000000000001,-0.0025599999999998957,0.00011999999999989797,-0.0025599999999998957,0.08000000000000007,0.4750000000000001,0.135,-0.0012199999999999989,-0.00024000000000001798,-0.0039000000000000146,1742259740.809089
0.11499999999999999,-0.4650000000000001,0.1100000000000001,-0.00036000000000002697,0.0036599999999999966,-0.0024400000000001087,0.08000000000000007,0.4750000000000001,0.135,-0.00024000000000001798,-0.0013400000000000079,-0.002080000000000082,1742259740.916832
0.1100000000000001,-0.4650000000000001,0.10499999999999998,0.0021999999999999797,0.0026800000000000157,-0.00024000000000001798,0.08000000000000007,0.4750000000000001,0.1299999999999999,-0.0023200000000000998,-0.00048000000000003595,0.0046399999999999775,1742259741.032226
0.1200000000000001,-0.475,0.1100000000000001,0.0030599999999998406,0.0047600000000000975,-0.0009799999999999809,0.08000000000000007,0.47,0.135,-0.0034199999999999786,-0.0043999999999999595,0.005239999999999911,1742259741.149131
0.1200000000000001,-0.47,0.10499999999999998,0.0026800000000000157,-0.0014600000000000168,-0.00012000000000000899,0.07000000000000006,0.4750000000000001,0.1299999999999999,-0.0006199999999999539,-0.001960000000000073,0.0031799999999999606,1742259741.258848
0.1100000000000001,-0.475,0.10499999999999998,0.0025599999999998957,-0.005120000000000013,0.0006200000000000649,0.07000000000000006,0.47,0.1299999999999999,-0.0015800000000000258,0.008539999999999992,0.0037799999999998946,1742259741.372729
0.1100000000000001,-0.4650000000000001,0.10499999999999998,0.0023200000000000998,0.0013400000000001189,-0.002080000000000082,0.08000000000000007,0.48,0.135,-0.0014600000000000168,0.0019599999999999618,0.0019599999999999618,1742259741.490541
0.1100000000000001,-0.475,0.10000000000000009,0.0023200000000000998,0.0030599999999998406,-0.0014600000000000168,0.07499999999999996,0.48,0.1299999999999999,-0.0014600000000000168,-0.0009799999999999809,0.0009799999999999809,1742259741.600786
0.11499999999999999,-0.48,0.10499999999999998,0.0037799999999998946,0.0040199999999999125,-0.0018400000000000638,0.07499999999999996,0.4750000000000001,0.1299999999999999,-0.00048000000000003595,-0.006340000000000012,-0.0032999999999999696,1742259741.714813
0.11499999999999999,-0.475,0.10000000000000009,0.0023200000000000998,0.0039000000000000146,-0.0029199999999999227,0.06499999999999995,0.48,0.1299999999999999,0.0015800000000001369,-0.0050000000000000044,-0.0006199999999999539,1742259741.828769
0.1100000000000001,-0.48,0.09499999999999997,-0.00537999999999994,-0.00012000000000000899,0.0015800000000001369,0.06000000000000005,0.48,0.125,-0.0018400000000000638,0.0045200000000000795,0.0014600000000000168,1742259741.948618
0.10499999999999998,-0.47,0.10000000000000009,-0.012460000000000027,0.0041599999999999415,0.0,0.07499999999999996,0.48,0.1299999999999999,0.005619999999999958,0.005859999999999976,-0.0047599999999999865,1742259742.0566342
0.1200000000000001,-0.45999999999999996,0.1100000000000001,0.0019599999999999618,-0.0006199999999999539,-0.00024000000000001798,0.07499999999999996,0.48,0.135,0.0030599999999998406,-0.010000000000000009,-0.0010999999999999899,1742259742.17084
0.10499999999999998,-0.485,0.10000000000000009,0.010259999999999936,-0.0036599999999999966,-0.00878000000000001,0.06499999999999995,0.47,0.135,-0.008539999999999992,0.0019599999999999618,-0.00048000000000003595,1742259742.288842
0.10499999999999998,-0.485,0.10000000000000009,-0.007940000000000058,0.006460000000000132,-0.0030599999999999516,0.08000000000000007,0.48,0.1299999999999999,-0.006220000000000003,-0.0008599999999999719,-0.0046399999999999775,1742259742.398845
0.11499999999999999,-0.47,0.1100000000000001,-0.0014600000000000168,0.0042800000000000615,-0.0007399999999999629,0.07499999999999996,0.47,0.125,0.0032999999999998586,-0.011360000000000037,-0.0023200000000000998,1742259742.512769
0.10499999999999998,-0.475,0.10000000000000009,0.0026800000000000157,0.007319999999999993,-0.0013400000000000079,0.07000000000000006,0.47,0.1299999999999999,0.00048000000000003595,0.0,-0.00012000000000000899,1742259742.62767
0.1100000000000001,-0.4650000000000001,0.10000000000000009,0.0007399999999999629,0.00537999999999994,0.0007399999999999629,0.07499999999999996,0.48,0.1299999999999999,0.00024000000000001798,-0.005979999999999985,0.0017000000000000348,1742259742.740561
0.1100000000000001,-0.475,0.09499999999999997,0.0030599999999998406,-0.00012000000000000899,0.0024399999999999977,0.06499999999999995,0.4750000000000001,0.1299999999999999,-0.0035399999999999876,-0.0031799999999999606,0.006099999999999994,1742259742.853627
0.11499999999999999,-0.475,0.09499999999999997,0.0031799999999999606,-0.0025599999999998957,0.0019599999999999618,0.06499999999999995,0.4750000000000001,0.125,0.002080000000000082,0.0045200000000000795,0.0037799999999998946,1742259742.9690628
0.1100000000000001,-0.47,0.09499999999999997,0.006220000000000114,-0.005619999999999958,0.0012199999999999989,0.06000000000000005,0.48,0.1299999999999999,-0.00012000000000000899,0.0027999999999999137,0.005980000000000096,1742259743.081632
0.1100000000000001,-0.48,0.09000000000000008,0.0031799999999999606,-0.0022000000000000908,-0.0014600000000000168,0.06499999999999995,0.4750000000000001,0.125,-0.005979999999999985,0.005619999999999958,0.005859999999999976,1742259743.194766
0.1100000000000001,-0.475,0.09000000000000008,0.0019599999999999618,0.00048000000000003595,-0.0026799999999999047,0.06000000000000005,0.48,0.125,-0.0013400000000000079,0.001100000000000101,0.0007399999999999629,1742259743.308661
0.10499999999999998,-0.475,0.09000000000000008,0.0025599999999998957,0.005239999999999911,-0.002080000000000082,0.06000000000000005,0.4849999999999999,0.125,-0.0010999999999999899,0.00035999999999991594,-0.00012000000000000899,1742259743.427901
0.1100000000000001,-0.475,0.08499999999999996,0.0021999999999999797,0.009759999999999991,-0.0015800000000000258,0.06499999999999995,0.48,0.125,-0.0047599999999999865,-0.007320000000000104,0.0009799999999999809,1742259743.5366368
0.11499999999999999,-0.48,0.08499999999999996,0.0024399999999999977,0.0047600000000000975,-0.00036000000000002697,0.05499999999999994,0.48,0.1200000000000001,-0.001960000000000073,-0.007200000000000095,0.0027999999999999137,1742259743.650666
0.1100000000000001,-0.47,0.08499999999999996,0.0030599999999998406,-0.0030599999999999516,0.0027999999999999137,0.05499999999999994,0.49,0.1200000000000001,0.0008600000000000829,-0.0024400000000001087,0.0023200000000000998,1742259743.767612
0.1100000000000001,-0.48,0.08000000000000007,0.006599999999999939,-0.0035399999999999876,-0.0015800000000000258,0.050000000000000044,0.4750000000000001,0.1200000000000001,-0.00024000000000001798,0.0021999999999999797,0.0046399999999999775,1742259743.878704
0.1100000000000001,-0.48,0.07499999999999996,0.00550000000000006,-0.0045199999999999685,-0.0017000000000000348,0.050000000000000044,0.4849999999999999,0.11499999999999999,-0.0036599999999999966,0.0035399999999998766,0.0042800000000000615,1742259743.992728
0.10499999999999998,-0.475,0.07499999999999996,-0.0012199999999999989,-0.006099999999999994,0.005980000000000096,0.050000000000000044,0.49,0.11499999999999999,0.0017000000000000348,-0.0008599999999999719,0.0026800000000000157,1742259744.107928
0.11499999999999999,-0.48,0.08000000000000007,0.0007399999999999629,-0.0075599999999999,0.008539999999999992,0.050000000000000044,0.4849999999999999,0.11499999999999999,0.006599999999999939,-0.00024000000000001798,0.0027999999999999137,1742259744.220703
0.11499999999999999,-0.4650000000000001,0.08000000000000007,-0.00036000000000002697,-0.009399999999999964,0.01195999999999997,0.050000000000000044,0.49,0.1200000000000001,0.013800000000000034,0.0021999999999999797,0.0019599999999999618,1742259744.334671
0.11499999999999999,-0.47,0.08000000000000007,0.0035399999999998766,-0.00770000000000004,0.005859999999999976,0.050000000000000044,0.47,0.1299999999999999,0.006720000000000059,0.004999999999999893,0.007079999999999975,1742259744.44857
0.125,-0.49,0.08000000000000007,0.008920000000000039,-0.005739999999999967,0.0019599999999999618,0.050000000000000044,0.4750000000000001,0.1299999999999999,0.0035399999999998766,0.007079999999999975,0.005740000000000078,1742259744.5615518
0.125,-0.485,0.08000000000000007,-0.0042799999999999505,-0.0041599999999999415,0.0041599999999999415,0.040000000000000036,0.49,0.135,0.004999999999999893,0.0025599999999998957,0.0014600000000000168,1742259744.675642
0.1200000000000001,-0.47,0.07499999999999996,0.006220000000000114,-0.001960000000000073,-0.0047599999999999865,0.04499999999999993,0.4650000000000001,0.135,0.005740000000000078,0.0040199999999999125,-0.0023200000000000998,1742259744.789649
0.1200000000000001,-0.475,0.07499999999999996,0.0040199999999999125,-0.001960000000000073,0.0030599999999998406,0.04499999999999993,0.4849999999999999,0.135,-0.007320000000000104,-0.0048799999999999955,0.0035399999999998766,1742259744.907157
0.125,-0.475,0.07499999999999996,0.010620000000000074,0.0034199999999999786,0.0021999999999999797,0.04499999999999993,0.48,0.135,0.0014600000000000168,-0.006220000000000003,0.0042800000000000615,1742259745.0174122
0.125,-0.475,0.06499999999999995,0.009400000000000075,0.0007399999999999629,0.0024399999999999977,0.03499999999999992,0.48,0.135,-0.0032999999999999696,-0.0007399999999999629,0.011719999999999953,1742259745.130482
0.1299999999999999,-0.475,0.06499999999999995,-0.00036000000000002697,-0.008179999999999965,0.007560000000000011,0.02499999999999991,0.49,0.125,-0.0036599999999999966,0.0015800000000001369,0.009400000000000075,1742259745.247356
0.125,-0.4650000000000001,0.07000000000000006,0.0009799999999999809,-0.006220000000000003,0.007940000000000058,0.030000000000000027,0.4849999999999999,0.1299999999999999,0.006599999999999939,0.0031799999999999606,0.0023200000000000998,1742259745.357609
0.125,-0.4650000000000001,0.06000000000000005,0.02648000000000006,0.0041599999999999415,-0.0027999999999999137,0.03499999999999992,0.47,0.135,0.0035399999999998766,0.0039000000000000146,0.01097999999999999,1742259745.471604
0.1299999999999999,-0.48,0.040000000000000036,0.023320000000000007,0.008059999999999956,-0.0024400000000001087,0.02499999999999991,0.48,0.1299999999999999,-0.023559999999999914,0.00550000000000006,0.026859999999999884,1742259745.587242
0.125,-0.45999999999999996,0.030000000000000027,0.03917999999999999,0.011360000000000037,-0.015619999999999967,0.004999999999999893,0.4849999999999999,0.1200000000000001,-0.016120000000000023,-0.0045199999999999685,0.01953999999999989,1742259745.6995451
0.125,-0.495,0.010000000000000009,0.03845999999999994,0.01746000000000003,-0.018919999999999937,-0.0050000000000000044,0.45500000000000007,0.11499999999999999,-0.04798000000000002,-0.0075599999999999,0.03601999999999994,1742259745.812549
0.11499999999999999,-0.49,-0.0050000000000000044,-0.0036599999999999966,0.007319999999999993,-0.0024400000000001087,-0.025000000000000022,0.4950000000000001,0.09000000000000008,-0.03820000000000001,0.00024000000000001798,0.02088000000000001,1742259745.9267788
0.1200000000000001,-0.5,0.004999999999999893,-0.0026799999999999047,0.005859999999999976,-0.0010999999999999899,-0.025000000000000022,0.5,0.08000000000000007,-0.001960000000000073,-0.005240000000000022,-0.0075599999999999,1742259746.0406332
0.125,-0.485,0.004999999999999893,0.006340000000000012,0.0046399999999999775,-0.0014600000000000168,-0.025000000000000022,0.5049999999999999,0.08499999999999996,0.006340000000000012,-0.005619999999999958,-0.006099999999999994,1742259746.1545448
0.11499999999999999,-0.49,-0.0050000000000000044,0.01317999999999997,0.00011999999999989797,-0.0045199999999999685,-0.025000000000000022,0.4950000000000001,0.08000000000000007,-0.002080000000000082,0.008419999999999872,0.0021999999999999797,1742259746.26761
0.11499999999999999,-0.51,0.0,-0.012319999999999998,-0.005499999999999949,0.008920000000000039,-0.025000000000000022,0.51,0.07499999999999996,-0.0010999999999999899,0.0009799999999999809,-0.00036000000000002697,1742259746.3817768
0.11499999999999999,-0.485,0.004999999999999893,-0.03051999999999999,-0.008919999999999928,0.015020000000000033,-0.020000000000000018,0.5150000000000001,0.08000000000000007,0.024900000000000144,-0.0023200000000000998,-0.01746000000000003,1742259746.495649
0.1299999999999999,-0.47,0.030000000000000027,-0.027100000000000013,-0.0023200000000000998,0.011719999999999953,-0.0050000000000000044,0.5049999999999999,0.10000000000000009,0.03370000000000006,-0.00770000000000004,-0.024780000000000024,1742259746.609652
0.125,-0.47,0.030000000000000027,-0.012319999999999998,-0.0035399999999999876,0.0013400000000001189,-0.0050000000000000044,0.49,0.10499999999999998,0.02293999999999996,-0.0027999999999999137,-0.01855999999999991,1742259746.7262878
0.125,-0.475,0.040000000000000036,-0.01415999999999995,-0.001960000000000073,0.0023200000000000998,0.010000000000000009,0.49,0.11499999999999999,0.012320000000000109,-0.0017000000000000348,-0.009279999999999955,1742259746.8376782
0.1299999999999999,-0.485,0.05499999999999994,-0.010739999999999972,-0.0014600000000000168,-0.0026799999999999047,0.010000000000000009,0.4750000000000001,0.11499999999999999,0.0046399999999999775,-0.0034199999999999786,-0.008059999999999956,1742259746.951669
0.1299999999999999,-0.475,0.06000000000000005,-0.02415999999999996,0.0,0.0047600000000000975,0.014999999999999902,0.5049999999999999,0.1299999999999999,-0.0007399999999999629,-0.005979999999999985,-0.01085999999999998,1742259747.0661938
0.1299999999999999,-0.47,0.07000000000000006,-0.031000000000000028,0.0019599999999999618,0.008179999999999854,0.020000000000000018,0.49,0.125,0.02210000000000001,-0.0042799999999999505,-0.01427999999999996,1742259747.1794
0.14000000000000012,-0.475,0.08499999999999996,-0.018799999999999928,0.0014600000000000168,0.009879999999999889,0.02499999999999991,0.48,0.135,0.03638000000000008,-0.005619999999999958,-0.017080000000000095,1742259747.292436
0.14500000000000002,-0.4650000000000001,0.09000000000000008,-0.02758000000000005,-0.006960000000000077,0.012820000000000054,0.030000000000000027,0.4750000000000001,0.15500000000000003,0.030399999999999983,0.0035399999999998766,-0.013539999999999996,1742259747.406985
0.1499999999999999,-0.45500000000000007,0.10499999999999998,-0.028799999999999937,-0.009399999999999964,0.015859999999999985,0.03499999999999992,0.4650000000000001,0.16500000000000004,0.035519999999999996,0.0006200000000000649,-0.01758000000000004,1742259747.519544
0.1499999999999999,-0.44999999999999996,0.1200000000000001,-0.0232,-0.00770000000000004,0.011479999999999935,0.050000000000000044,0.45500000000000007,0.18500000000000005,0.03272000000000008,0.0025599999999998957,-0.014519999999999977,1742259747.6335511
0.15500000000000003,-0.44999999999999996,0.1299999999999999,-0.024899999999999922,-0.005739999999999967,0.009279999999999955,0.05499999999999994,0.45999999999999996,0.19999999999999996,0.027099999999999902,0.0008600000000000829,-0.01097999999999999,1742259747.747527
0.14500000000000002,-0.42999999999999994,0.125,-0.008660000000000001,0.0024399999999999977,0.006720000000000059,0.06000000000000005,0.45500000000000007,0.20999999999999996,0.02635999999999994,0.00035999999999991594,-0.008660000000000001,1742259747.861443
0.16999999999999993,-0.48,0.135,0.006960000000000077,0.0037799999999998946,-0.00036000000000002697,0.05499999999999994,0.42500000000000004,0.20999999999999996,0.0025599999999998957,0.00035999999999991594,-0.0014600000000000168,1742259747.974414
0.16500000000000004,-0.44999999999999996,0.135,-0.005739999999999967,0.006960000000000077,-0.0036599999999999966,0.06000000000000005,0.44500000000000006,0.20999999999999996,0.010259999999999936,0.007940000000000058,-0.010259999999999936,1742259748.087549
0.16500000000000004,-0.44999999999999996,0.135,0.0025599999999998957,0.0032999999999998586,-0.0045199999999999685,0.06000000000000005,0.43500000000000005,0.21500000000000008,-0.006720000000000059,0.0,-0.005979999999999985,1742259748.201418
0.15999999999999992,-0.44999999999999996,0.1299999999999999,0.006960000000000077,-0.009039999999999937,-0.005120000000000013,0.05499999999999994,0.44999999999999996,0.20500000000000007,-0.01427999999999996,0.00537999999999994,0.0048799999999999955,1742259748.315563
0.1499999999999999,-0.43999999999999995,0.1299999999999999,0.01195999999999997,-0.0013400000000000079,-0.007440000000000002,0.06499999999999995,0.45999999999999996,0.20500000000000007,-0.013419999999999987,0.010860000000000092,0.0007399999999999629,1742259748.429537
0.15500000000000003,-0.45999999999999996,0.1299999999999999,0.01415999999999995,0.0035399999999998766,-0.010379999999999945,0.07499999999999996,0.45500000000000007,0.19500000000000006,-0.020139999999999936,0.0042800000000000615,0.006460000000000132,1742259748.543411
0.1499999999999999,-0.45999999999999996,0.1200000000000001,0.012700000000000156,0.0027999999999999137,-0.005979999999999985,0.06499999999999995,0.4750000000000001,0.17999999999999994,-0.02185999999999999,0.0041599999999999415,0.0018400000000000638,1742259748.657408
0.14500000000000002,-0.47,0.10499999999999998,-0.01636000000000004,0.0015800000000001369,0.005740000000000078,0.07000000000000006,0.49,0.17999999999999994,-0.0024400000000001087,-0.0029199999999999227,-0.0037800000000000056,1742259748.771415
0.15999999999999992,-0.43999999999999995,0.125,0.0036599999999999966,0.009160000000000057,-0.005120000000000013,0.07499999999999996,0.44999999999999996,0.16999999999999993,0.012199999999999989,-0.011480000000000046,-0.017340000000000022,1742259748.886828
0.14500000000000002,-0.45500000000000007,0.10499999999999998,0.03503999999999996,0.008419999999999872,-0.023679999999999923,0.07000000000000006,0.42999999999999994,0.17500000000000004,-0.01415999999999995,0.0032999999999998586,-0.007080000000000086,1742259748.9994218
0.14500000000000002,-0.475,0.09000000000000008,0.017220000000000013,0.0036599999999999966,-0.0045199999999999685,0.07000000000000006,0.4849999999999999,0.15999999999999992,-0.04027999999999998,-0.005499999999999949,0.018799999999999928,1742259749.11343
0.14000000000000012,-0.4650000000000001,0.08000000000000007,0.017940000000000067,-0.0017000000000000348,-0.011480000000000046,0.06000000000000005,0.47,0.1499999999999999,-0.006960000000000077,0.0031799999999999606,0.008059999999999956,1742259749.227514
0.14000000000000012,-0.48,0.08499999999999996,0.013919999999999932,-0.0034199999999999786,-0.009039999999999937,0.05499999999999994,0.45999999999999996,0.14000000000000012,-0.027840000000000087,0.006099999999999994,0.015619999999999967,1742259749.341542
0.1299999999999999,-0.48,0.07499999999999996,0.005740000000000078,0.0006200000000000649,-0.008299999999999974,0.05499999999999994,0.48,0.135,-0.01636000000000004,-0.0029199999999999227,0.00550000000000006,1742259749.455446
0.125,-0.475,0.07000000000000006,0.016240000000000032,0.0032999999999998586,-0.010379999999999945,0.050000000000000044,0.48,0.125,-0.008919999999999928,-0.0037800000000000056,0.00024000000000001798,1742259749.569441
0.11499999999999999,-0.4650000000000001,0.06499999999999995,0.013919999999999932,0.0040199999999999125,-0.009159999999999946,0.050000000000000044,0.4750000000000001,0.1200000000000001,-0.013419999999999987,0.0021999999999999797,0.0023200000000000998,1742259749.686882
0.11499999999999999,-0.48,0.05499999999999994,0.027700000000000058,0.0021999999999999797,-0.01537999999999995,0.04499999999999993,0.47,0.10499999999999998,-0.02966000000000002,0.0013400000000001189,0.006960000000000077,1742259749.79743
0.10499999999999998,-0.49,0.040000000000000036,0.03807999999999989,0.00035999999999991594,-0.02100000000000002,0.040000000000000036,0.4849999999999999,0.09499999999999997,-0.03748000000000007,-0.002080000000000082,0.014520000000000088,1742259749.911403
0.10000000000000009,-0.495,0.02499999999999991,0.024540000000000006,-0.012820000000000054,-0.005979999999999985,0.030000000000000027,0.51,0.07000000000000006,-0.04822000000000004,0.005859999999999976,0.018920000000000048,1742259750.025614
0.09000000000000008,-0.485,0.014999999999999902,0.031500000000000083,-0.019399999999999973,-0.005739999999999967,0.03499999999999992,0.5,0.06000000000000005,-0.012940000000000063,0.006720000000000059,0.004999999999999893,1742259750.139619
0.10000000000000009,-0.5,0.004999999999999893,0.018179999999999863,-0.017340000000000022,-0.00048000000000003595,0.030000000000000027,0.4849999999999999,0.05499999999999994,-0.014519999999999977,0.007940000000000058,0.011719999999999953,1742259750.253456
0.09499999999999997,-0.4650000000000001,-0.015000000000000013,0.02320000000000011,-0.01415999999999995,-0.017820000000000058,0.020000000000000018,0.5049999999999999,0.050000000000000044,-0.007320000000000104,0.007319999999999993,0.010140000000000038,1742259750.36762
0.08000000000000007,-0.52,-0.010000000000000009,0.02293999999999996,-0.021480000000000055,-0.02501999999999993,0.0,0.4849999999999999,0.03499999999999992,-0.023679999999999923,-0.0046399999999999775,0.013299999999999867,1742259750.481571
0.06499999999999995,-0.48,-0.025000000000000022,0.018920000000000048,-0.0046399999999999775,-0.011360000000000037,0.014999999999999902,0.54,0.02499999999999991,-0.020139999999999936,-0.00988,-0.0008599999999999719,1742259750.595551
0.05499999999999994,-0.485,-0.050000000000000044,0.04503999999999997,0.0026800000000000157,-0.022700000000000053,0.014999999999999902,0.4849999999999999,0.02499999999999991,-0.024780000000000024,0.0037799999999998946,0.010140000000000038,1742259750.709412
0.05499999999999994,-0.5,-0.06499999999999995,0.025020000000000042,-0.008419999999999983,-0.02100000000000002,-0.0050000000000000044,0.4950000000000001,-0.010000000000000009,-0.04625999999999997,0.00770000000000004,0.018059999999999965,1742259750.8265889
0.04499999999999993,-0.485,-0.07000000000000006,0.0048799999999999955,0.00048000000000003595,-0.010499999999999954,-0.0050000000000000044,0.5150000000000001,-0.025000000000000022,-0.03320000000000001,0.005980000000000096,0.0007399999999999629,1742259750.937408
0.04499999999999993,-0.505,-0.06499999999999995,0.0045200000000000795,0.006599999999999939,-0.006099999999999994,-0.0050000000000000044,0.51,-0.025000000000000022,-0.024660000000000015,0.0039000000000000146,0.006460000000000132,1742259751.051426
0.04499999999999993,-0.48,-0.07000000000000006,0.006839999999999957,0.0013400000000001189,0.0025599999999998957,-0.015000000000000013,0.51,-0.040000000000000036,-0.018059999999999965,0.007079999999999975,0.0037799999999998946,1742259751.166514
0.04499999999999993,-0.49,-0.07999999999999996,0.009879999999999889,-0.0024400000000001087,-0.0012199999999999989,-0.015000000000000013,0.49,-0.04500000000000004,-0.015739999999999976,0.007560000000000011,0.006460000000000132,1742259751.279558
0.04499999999999993,-0.48,-0.07999999999999996,0.010860000000000092,-0.007440000000000002,-0.00012000000000000899,-0.020000000000000018,0.5,-0.05500000000000005,-0.009159999999999946,0.00024000000000001798,0.005740000000000078,1742259751.3949609
0.05499999999999994,-0.49,-0.07999999999999996,0.009160000000000057,-0.00782000000000005,0.0041599999999999415,-0.025000000000000022,0.49,-0.05500000000000005,-0.006460000000000021,-0.0024400000000001087,0.005980000000000096,1742259751.509546
0.04499999999999993,-0.475,-0.08999999999999997,0.009400000000000075,0.00048000000000003595,0.0008600000000000829,-0.025000000000000022,0.5,-0.04500000000000004,-0.0012199999999999989,-0.008299999999999974,0.0041599999999999415,1742259751.621471
0.04499999999999993,-0.48,-0.09999999999999998,-0.0018400000000000638,-0.0048799999999999955,0.00537999999999994,-0.025000000000000022,0.4950000000000001,-0.06000000000000005,0.001100000000000101,-0.006340000000000012,0.009279999999999955,1742259751.73543
0.050000000000000044,-0.475,-0.08499999999999996,-0.005240000000000022,-0.012820000000000054,0.0024399999999999977,-0.030000000000000027,0.49,-0.06499999999999995,0.009640000000000093,0.0006200000000000649,-0.007440000000000002,1742259751.849546
0.04499999999999993,-0.485,-0.07999999999999996,-0.006460000000000021,-0.027959999999999985,0.0047600000000000975,-0.020000000000000018,0.49,-0.050000000000000044,0.008920000000000039,0.009039999999999937,-0.008299999999999974,1742259751.963582
0.050000000000000044,-0.485,-0.07999999999999996,0.00048000000000003595,-0.02076,0.010860000000000092,-0.010000000000000009,0.5049999999999999,-0.05500000000000005,0.005619999999999958,0.020999999999999908,0.005859999999999976,1742259752.077438
0.06000000000000005,-0.485,-0.07999999999999996,0.0030599999999998406,-0.0036599999999999966,0.0031799999999999606,-0.015000000000000013,0.5049999999999999,-0.040000000000000036,0.005859999999999976,0.01746000000000003,0.012199999999999989,1742259752.191447
0.06499999999999995,-0.5,-0.08999999999999997,-0.0037800000000000056,0.010860000000000092,-0.005619999999999958,-0.030000000000000027,0.5,-0.040000000000000036,-0.0029199999999999227,0.006099999999999994,0.010000000000000009,1742259752.306478
0.05499999999999994,-0.48,-0.08499999999999996,-0.01636000000000004,0.027099999999999902,-0.009519999999999973,-0.030000000000000027,0.51,-0.04500000000000004,0.0030599999999998406,-0.012580000000000036,-0.007320000000000104,1742259752.419447
0.050000000000000044,-0.485,-0.07499999999999996,-0.018919999999999937,0.03320000000000012,-0.011240000000000028,-0.020000000000000018,0.4950000000000001,-0.040000000000000036,0.0025599999999998957,-0.02746000000000004,-0.015859999999999985,1742259752.533579
0.050000000000000044,-0.485,-0.06499999999999995,-0.00988,0.028799999999999937,-0.005240000000000022,-0.015000000000000013,0.4950000000000001,-0.040000000000000036,-0.00036000000000002697,-0.031120000000000037,-0.013679999999999914,1742259752.647383
0.04499999999999993,-0.49,-0.07000000000000006,-0.0014600000000000168,0.017819999999999947,-0.005120000000000013,-0.020000000000000018,0.5,-0.040000000000000036,-0.0008599999999999719,-0.022820000000000062,-0.0041599999999999415,1742259752.7613308
0.040000000000000036,-0.49,-0.06499999999999995,-0.007200000000000095,0.00537999999999994,-0.0009799999999999809,-0.015000000000000013,0.4950000000000001,-0.050000000000000044,-0.0037800000000000056,-0.00770000000000004,-0.0009799999999999809,1742259752.875414
0.03499999999999992,-0.48,-0.05500000000000005,-0.0034199999999999786,0.0009799999999999809,-0.0045199999999999685,-0.015000000000000013,0.4950000000000001,-0.04500000000000004,0.0040199999999999125,-0.0013400000000000079,-0.0040200000000000236,1742259752.989413
0.030000000000000027,-0.49,-0.06000000000000005,0.0023200000000000998,-0.0009799999999999809,-0.010259999999999936,-0.0050000000000000044,0.4950000000000001,-0.040000000000000036,-0.0013400000000000079,0.0025599999999998957,-0.00537999999999994,1742259753.106689
0.020000000000000018,-0.49,-0.06000000000000005,-0.005619999999999958,0.0029200000000000337,-0.0050000000000000044,0.0,0.5049999999999999,-0.050000000000000044,-0.006960000000000077,0.0040199999999999125,-0.005499999999999949,1742259753.217421
0.020000000000000018,-0.49,-0.05500000000000005,-0.005499999999999949,0.0008600000000000829,0.0012199999999999989,0.004999999999999893,0.5,-0.05500000000000005,0.0013400000000001189,0.00048000000000003595,-0.006960000000000077,1742259753.33138
0.030000000000000027,-0.49,-0.05500000000000005,0.0007399999999999629,0.0,0.006599999999999939,0.004999999999999893,0.5,-0.050000000000000044,0.005980000000000096,-0.0041599999999999415,-0.0027999999999999137,1742259753.447209
0.03499999999999992,-0.49,-0.06000000000000005,0.0018400000000000638,-0.001960000000000073,0.007200000000000095,0.0,0.5049999999999999,-0.040000000000000036,0.006099999999999994,0.0007399999999999629,0.005120000000000013,1742259753.55934
0.03499999999999992,-0.49,-0.06499999999999995,0.005740000000000078,-0.0045199999999999685,0.00537999999999994,-0.0050000000000000044,0.5,-0.040000000000000036,0.0030599999999998406,0.0008600000000000829,0.006220000000000114,1742259753.6733272
0.040000000000000036,-0.49,-0.05500000000000005,-0.008919999999999928,-0.0009799999999999809,0.006340000000000012,-0.0050000000000000044,0.5049999999999999,-0.04500000000000004,0.0019599999999999618,0.002080000000000082,0.006599999999999939,1742259753.787435
0.04499999999999993,-0.495,-0.050000000000000044,-0.0007399999999999629,-0.0025599999999998957,0.00011999999999989797,-0.0050000000000000044,0.5,-0.030000000000000027,0.011360000000000037,0.0025599999999998957,-0.0015800000000000258,1742259753.901654
0.040000000000000036,-0.49,-0.050000000000000044,0.0006200000000000649,-0.0026799999999999047,0.0030599999999998406,0.0,0.5150000000000001,-0.025000000000000022,0.0037799999999998946,0.00024000000000001798,-0.0026799999999999047,1742259754.0152729
0.04499999999999993,-0.495,-0.050000000000000044,0.0006200000000000649,-0.0018400000000000638,0.006839999999999957,0.0,0.5049999999999999,-0.030000000000000027,0.0029200000000000337,0.0042800000000000615,0.0036599999999999966,1742259754.129493
0.050000000000000044,-0.495,-0.050000000000000044,0.00024000000000001798,0.0006200000000000649,0.007200000000000095,-0.0050000000000000044,0.5049999999999999,-0.030000000000000027,0.00550000000000006,0.0007399999999999629,0.0039000000000000146,1742259754.247741
0.04499999999999993,-0.485,-0.06000000000000005,0.0017000000000000348,0.006720000000000059,0.0008600000000000829,-0.010000000000000009,0.5049999999999999,-0.025000000000000022,0.0039000000000000146,-0.0034199999999999786,0.0042800000000000615,1742259754.359329
0.050000000000000044,-0.485,-0.06000000000000005,-0.00036000000000002697,0.00782000000000016,-0.0036599999999999966,-0.010000000000000009,0.49,-0.030000000000000027,-0.0014600000000000168,-0.006960000000000077,0.0013400000000001189,1742259754.473345
0.050000000000000044,-0.495,-0.050000000000000044,-0.01427999999999996,-0.0008599999999999719,0.005980000000000096,-0.015000000000000013,0.5,-0.03500000000000003,-0.0042799999999999505,-0.010619999999999963,-0.0029199999999999227,1742259754.587927
0.05499999999999994,-0.475,-0.050000000000000044,0.012199999999999989,-0.0029199999999999227,0.0014600000000000168,-0.0050000000000000044,0.51,-0.025000000000000022,0.01635999999999993,-0.0027999999999999137,-0.005739999999999967,1742259754.70144
0.05499999999999994,-0.5,-0.05500000000000005,-0.009399999999999964,-0.0036599999999999966,0.010000000000000009,-0.015000000000000013,0.4950000000000001,-0.025000000000000022,-0.00878000000000001,0.0015800000000001369,0.010140000000000038,1742259754.815302
0.06499999999999995,-0.49,-0.04500000000000004,-0.0024400000000001087,0.00024000000000001798,0.005239999999999911,-0.010000000000000009,0.51,-0.015000000000000013,0.016240000000000032,0.0030599999999998406,-0.00048000000000003595,1742259754.9292648
0.06499999999999995,-0.49,-0.040000000000000036,-0.0048799999999999955,0.0029200000000000337,0.0030599999999998406,-0.010000000000000009,0.5049999999999999,-0.010000000000000009,0.007079999999999975,0.0013400000000001189,0.001100000000000101,1742259755.043312
0.06499999999999995,-0.49,-0.040000000000000036,-0.0013400000000000079,-0.00024000000000001798,-0.0008599999999999719,-0.010000000000000009,0.5,-0.010000000000000009,0.0046399999999999775,-0.0025599999999998957,-0.0007399999999999629,1742259755.157397
0.06499999999999995,-0.49,-0.040000000000000036,-0.0034199999999999786,-0.0036599999999999966,0.0037799999999998946,-0.010000000000000009,0.5049999999999999,-0.010000000000000009,0.001100000000000101,0.0007399999999999629,-0.0017000000000000348,1742259755.271408
0.06499999999999995,-0.49,-0.03500000000000003,0.0007399999999999629,-0.0023200000000000998,0.0043999999999999595,-0.010000000000000009,0.5049999999999999,-0.0050000000000000044,0.007200000000000095,0.0046399999999999775,0.0,1742259755.387083
0.07000000000000006,-0.485,-0.040000000000000036,0.0043999999999999595,-0.0010999999999999899,0.0009799999999999809,-0.010000000000000009,0.5,0.0,0.0037799999999998946,0.0036599999999999966,0.0031799999999999606,1742259755.499278
0.06499999999999995,-0.485,-0.04500000000000004,0.0048799999999999955,-0.0009799999999999809,-0.0024400000000001087,-0.015000000000000013,0.4950000000000001,0.0,-0.002080000000000082,0.0007399999999999629,0.0039000000000000146,1742259755.613991
0.07000000000000006,-0.495,-0.04500000000000004,0.0012199999999999989,0.00011999999999989797,-0.0039000000000000146,-0.015000000000000013,0.5,-0.0050000000000000044,-0.0048799999999999955,-0.0024400000000001087,0.001100000000000101,1742259755.727235
0.06000000000000005,-0.485,-0.04500000000000004,-0.0012199999999999989,0.00048000000000003595,-0.005619999999999958,-0.020000000000000018,0.5049999999999999,-0.010000000000000009,-0.0031799999999999606,-0.0006199999999999539,-0.0024400000000001087,1742259755.84145
0.06000000000000005,-0.485,-0.04500000000000004,-0.002080000000000082,-0.0006199999999999539,-0.0046399999999999775,-0.015000000000000013,0.5,-0.010000000000000009,-0.0017000000000000348,0.0012199999999999989,-0.0048799999999999955,1742259755.955453
0.06000000000000005,-0.49,-0.030000000000000027,-0.014900000000000024,0.0007399999999999629,-0.0040200000000000236,-0.010000000000000009,0.5,-0.015000000000000013,-0.00036000000000002697,0.00048000000000003595,-0.005499999999999949,1742259756.069396
0.04499999999999993,-0.48,-0.050000000000000044,0.014040000000000052,-0.0048799999999999955,-0.009279999999999955,-0.0050000000000000044,0.49,0.0,0.0045200000000000795,-0.0018400000000000638,-0.012460000000000027,1742259756.188631
0.05499999999999994,-0.5,-0.03500000000000003,-0.016840000000000077,0.00024000000000001798,0.005740000000000078,-0.0050000000000000044,0.5,-0.030000000000000027,-0.01317999999999997,0.0040199999999999125,0.001100000000000101,1742259756.297284
0.050000000000000044,-0.48,-0.03500000000000003,0.009039999999999937,0.0039000000000000146,-0.007320000000000104,0.0,0.5049999999999999,-0.0050000000000000044,0.016720000000000068,-0.00048000000000003595,-0.007320000000000104,1742259756.411222
0.050000000000000044,-0.5,-0.040000000000000036,-0.0050000000000000044,-0.0007399999999999629,-0.0006199999999999539,0.0,0.4950000000000001,-0.010000000000000009,-0.011240000000000028,-0.0012199999999999989,0.00024000000000001798,1742259756.525491
0.050000000000000044,-0.495,-0.025000000000000022,-0.011480000000000046,-0.00048000000000003595,0.0023200000000000998,0.0,0.5150000000000001,-0.015000000000000013,0.005619999999999958,-0.002080000000000082,-0.005619999999999958,1742259756.639339
0.05499999999999994,-0.485,-0.020000000000000018,-0.0041599999999999415,0.002080000000000082,0.0,0.010000000000000009,0.5,0.0,0.010259999999999936,0.0029200000000000337,-0.005240000000000022,1742259756.7534652
0.050000000000000044,-0.495,-0.025000000000000022,0.0029200000000000337,0.0,-0.00048000000000003595,0.010000000000000009,0.4950000000000001,0.0,0.002080000000000082,0.0027999999999999137,-0.0018400000000000638,1742259756.867392
0.050000000000000044,-0.49,-0.025000000000000022,0.0015800000000001369,-0.00036000000000002697,0.0017000000000000348,0.010000000000000009,0.5049999999999999,-0.0050000000000000044,-0.001960000000000073,0.00011999999999989797,0.0014600000000000168,1742259756.981148
0.050000000000000044,-0.495,-0.030000000000000027,0.006340000000000012,0.00048000000000003595,-0.0007399999999999629,0.004999999999999893,0.5,-0.0050000000000000044,-0.00036000000000002697,-0.0012199999999999989,0.002080000000000082,1742259757.095386
0.050000000000000044,-0.49,-0.03500000000000003,0.0042800000000000615,0.00048000000000003595,0.00024000000000001798,0.004999999999999893,0.51,-0.0050000000000000044,-0.0043999999999999595,-0.0014600000000000168,0.0032999999999998586,1742259757.2090318
0.05499999999999994,-0.495,-0.040000000000000036,0.0030599999999998406,0.0013400000000001189,0.00035999999999991594,0.0,0.5,-0.010000000000000009,-0.0023200000000000998,-0.0008599999999999719,0.0030599999999998406,1742259757.326669
0.05499999999999994,-0.49,-0.040000000000000036,0.0026800000000000157,0.00048000000000003595,0.0006200000000000649,0.0,0.5049999999999999,-0.010000000000000009,-0.0012199999999999989,-0.0017000000000000348,0.002080000000000082,1742259757.436061
0.05499999999999994,-0.495,-0.040000000000000036,-0.00012000000000000899,-0.00036000000000002697,0.0009799999999999809,-0.0050000000000000044,0.5049999999999999,-0.010000000000000009,-0.0009799999999999809,-0.0010999999999999899,0.0019599999999999618,1742259757.5522828
0.05499999999999994,-0.49,-0.040000000000000036,0.00011999999999989797,-0.00024000000000001798,-0.00036000000000002697,-0.0050000000000000044,0.5049999999999999,-0.010000000000000009,0.0018400000000000638,-0.0010999999999999899,-0.00036000000000002697,1742259757.666832
0.05499999999999994,-0.49,-0.040000000000000036,0.00024000000000001798,-0.0013400000000000079,-0.0015800000000000258,-0.0050000000000000044,0.5,-0.010000000000000009,-0.00036000000000002697,0.0006200000000000649,-0.0009799999999999809,1742259757.778262
0.05499999999999994,-0.49,-0.03500000000000003,-0.0006199999999999539,-0.002080000000000082,0.00048000000000003595,0.0,0.5049999999999999,-0.010000000000000009,-0.00036000000000002697,0.001100000000000101,-0.0017000000000000348,1742259757.892262
0.050000000000000044,-0.49,-0.040000000000000036,0.0019599999999999618,-0.0009799999999999809,0.001100000000000101,0.0,0.5,-0.010000000000000009,0.0012199999999999989,0.0007399999999999629,-0.00048000000000003595,1742259758.010554
0.05499999999999994,-0.495,-0.040000000000000036,0.00024000000000001798,0.00024000000000001798,0.0008600000000000829,0.0,0.5,-0.010000000000000009,-0.00024000000000001798,0.00048000000000003595,0.0018400000000000638,1742259758.1200562
0.05499999999999994,-0.49,-0.040000000000000036,-0.005619999999999958,0.0006200000000000649,0.0024399999999999977,0.0,0.5049999999999999,-0.010000000000000009,0.0018400000000000638,-0.00012000000000000899,-0.0012199999999999989,1742259758.234282
0.05499999999999994,-0.495,-0.03500000000000003,-0.0046399999999999775,-0.00024000000000001798,0.0026800000000000157,0.0,0.5,-0.010000000000000009,0.006220000000000114,-0.0022000000000000908,-0.0042799999999999505,1742259758.348223
0.05499999999999994,-0.48,-0.03500000000000003,-0.0024400000000001087,0.00011999999999989797,0.0009799999999999809,0.0,0.5,-0.0050000000000000044,0.008299999999999974,-0.0008599999999999719,-0.0042799999999999505,1742259758.4621282
0.06000000000000005,-0.5,-0.030000000000000027,0.00024000000000001798,0.00048000000000003595,-0.0014600000000000168,0.0,0.5,-0.0050000000000000044,0.0027999999999999137,0.0007399999999999629,-0.0010999999999999899,1742259758.5763
0.06000000000000005,-0.49,-0.030000000000000027,-0.011480000000000046,0.00024000000000001798,0.006099999999999994,0.004999999999999893,0.5150000000000001,0.0,0.0017000000000000348,0.002080000000000082,-0.001960000000000073,1742259758.690161
0.05499999999999994,-0.49,-0.030000000000000027,-0.0025599999999998957,0.00011999999999989797,-0.0008599999999999719,0.004999999999999893,0.4950000000000001,0.0,0.018059999999999965,0.007560000000000011,-0.006960000000000077,1742259758.807152
0.06000000000000005,-0.49,-0.020000000000000018,-0.0030599999999999516,-0.00012000000000000899,-0.0035399999999999876,0.004999999999999893,0.5,0.004999999999999893,0.0040199999999999125,0.0008600000000000829,-0.0014600000000000168,1742259758.9183109
0.05499999999999994,-0.49,-0.025000000000000022,0.0006200000000000649,-0.0013400000000000079,-0.0023200000000000998,0.010000000000000009,0.5,0.004999999999999893,0.00024000000000001798,0.0007399999999999629,-0.0043999999999999595,1742259759.032278
0.05499999999999994,-0.485,-0.020000000000000018,0.0009799999999999809,0.00011999999999989797,-0.0009799999999999809,0.010000000000000009,0.5049999999999999,0.004999999999999893,-0.0008599999999999719,-0.00012000000000000899,-0.0025599999999998957,1742259759.1474812
0.05499999999999994,-0.49,-0.025000000000000022,0.0043999999999999595,-0.00048000000000003595,-0.0012199999999999989,0.010000000000000009,0.5,0.010000000000000009,-0.0010999999999999899,0.00048000000000003595,0.0015800000000001369,1742259759.2602172
0.050000000000000044,-0.49,-0.030000000000000027,0.0027999999999999137,0.0014600000000000168,-0.0022000000000000908,0.010000000000000009,0.5,0.004999999999999893,-0.0039000000000000146,-0.0007399999999999629,0.0027999999999999137,1742259759.374138
0.050000000000000044,-0.49,-0.030000000000000027,0.0023200000000000998,0.0021999999999999797,-0.0026799999999999047,0.004999999999999893,0.4950000000000001,0.0,-0.005240000000000022,-0.0008599999999999719,0.00035999999999991594,1742259759.488953
0.050000000000000044,-0.5,-0.030000000000000027,0.0023200000000000998,-0.0013400000000000079,-0.0026799999999999047,0.004999999999999893,0.5,-0.0050000000000000044,-0.0029199999999999227,-0.0017000000000000348,-0.00012000000000000899,1742259759.6022458
0.050000000000000044,-0.49,-0.030000000000000027,-0.00036000000000002697,-0.0022000000000000908,0.0026800000000000157,0.004999999999999893,0.51,-0.0050000000000000044,-0.0035399999999999876,0.0006200000000000649,0.00035999999999991594,1742259759.716244
0.050000000000000044,-0.49,-0.030000000000000027,0.00024000000000001798,-0.0010999999999999899,0.0019599999999999618,0.004999999999999893,0.5,-0.0050000000000000044,0.0026800000000000157,0.0036599999999999966,0.0019599999999999618,1742259759.8303
0.050000000000000044,-0.49,-0.030000000000000027,0.0012199999999999989,-0.00012000000000000899,-0.0012199999999999989,0.004999999999999893,0.5,-0.0050000000000000044,0.00048000000000003595,0.0006200000000000649,0.0014600000000000168,1742259759.946903
0.050000000000000044,-0.495,-0.030000000000000027,0.0006200000000000649,-0.0006199999999999539,-0.00024000000000001798,0.004999999999999893,0.5049999999999999,-0.0050000000000000044,-0.0017000000000000348,-0.00024000000000001798,-0.00036000000000002697,1742259760.0582342
0.05499999999999994,-0.495,-0.030000000000000027,0.0013400000000001189,-0.0007399999999999629,0.0008600000000000829,0.004999999999999893,0.5049999999999999,-0.0050000000000000044,0.00011999999999989797,0.00048000000000003595,0.0,1742259760.172034
0.050000000000000044,-0.49,-0.03500000000000003,0.0012199999999999989,0.00048000000000003595,0.00035999999999991594,0.004999999999999893,0.5049999999999999,-0.0050000000000000044,0.0,0.0009799999999999809,0.001100000000000101,1742259760.286946
0.050000000000000044,-0.49,-0.03500000000000003,-0.0022000000000000908,0.001100000000000101,0.0006200000000000649,0.004999999999999893,0.5,-0.0050000000000000044,-0.00036000000000002697,-0.0008599999999999719,0.0006200000000000649,1742259760.400074
0.050000000000000044,-0.49,-0.030000000000000027,-0.0018400000000000638,0.00048000000000003595,0.0,0.0,0.5,-0.0050000000000000044,0.0014600000000000168,-0.0035399999999999876,-0.0010999999999999899,1742259760.514076
0.05499999999999994,-0.49,-0.030000000000000027,-0.0007399999999999629,0.0,-0.0009799999999999809,0.004999999999999893,0.5,-0.0050000000000000044,0.0014600000000000168,-0.0030599999999999516,-0.0015800000000000258,1742259760.628175
0.05499999999999994,-0.495,-0.03500000000000003,-0.0047599999999999865,-0.00012000000000000899,0.001100000000000101,0.004999999999999893,0.5,0.0,0.0006200000000000649,-0.001960000000000073,0.00011999999999989797,1742259760.742122
0.05499999999999994,-0.495,-0.030000000000000027,-0.00537999999999994,-0.00048000000000003595,-0.00036000000000002697,0.0,0.5,-0.0050000000000000044,0.007079999999999975,-0.00012000000000000899,-0.001960000000000073,1742259760.856287
0.050000000000000044,-0.49,-0.025000000000000022,-0.0034199999999999786,-0.00048000000000003595,-0.002080000000000082,0.004999999999999893,0.4950000000000001,0.0,0.0039000000000000146,-0.00012000000000000899,-0.0035399999999999876,1742259760.9702778
0.050000000000000044,-0.49,-0.025000000000000022,-0.0022000000000000908,-0.0034199999999999786,-0.001960000000000073,0.004999999999999893,0.5,0.0,0.00035999999999991594,0.0013400000000001189,-0.0029199999999999227,1742259761.0869062
0.050000000000000044,-0.495,-0.025000000000000022,-0.005739999999999967,-0.0039000000000000146,0.0012199999999999989,0.004999999999999893,0.5,-0.0050000000000000044,0.0015800000000001369,0.00537999999999994,-0.0023200000000000998,1742259761.198179
0.050000000000000044,-0.49,-0.015000000000000013,-0.006220000000000003,-0.0024400000000001087,0.0042800000000000615,0.010000000000000009,0.5049999999999999,0.0,0.006099999999999994,0.005980000000000096,-0.0029199999999999227,1742259761.312126
0.05499999999999994,-0.49,-0.015000000000000013,-0.002080000000000082,0.0023200000000000998,0.0018400000000000638,0.014999999999999902,0.5,0.010000000000000009,0.009160000000000057,0.0026800000000000157,-0.0017000000000000348,1742259761.426621
0.050000000000000044,-0.49,-0.015000000000000013,-0.0007399999999999629,0.0031799999999999606,0.0009799999999999809,0.010000000000000009,0.4950000000000001,0.014999999999999902,0.0039000000000000146,-0.00036000000000002697,0.0006200000000000649,1742259761.5399702
0.05499999999999994,-0.49,-0.015000000000000013,0.0008600000000000829,0.0012199999999999989,0.0007399999999999629,0.010000000000000009,0.4950000000000001,0.010000000000000009,0.00024000000000001798,-0.0045199999999999685,0.0006200000000000649,1742259761.653929
0.05499999999999994,-0.495,-0.020000000000000018,0.0008600000000000829,0.00048000000000003595,0.0036599999999999966,0.010000000000000009,0.5049999999999999,0.010000000000000009,-0.00036000000000002697,-0.0023200000000000998,0.0012199999999999989,1742259761.767918
0.05499999999999994,-0.49,-0.020000000000000018,0.002080000000000082,-0.00012000000000000899,0.0040199999999999125,0.004999999999999893,0.5,0.010000000000000009,0.0026800000000000157,0.00048000000000003595,0.0034199999999999786,1742259761.882029
0.06000000000000005,-0.49,-0.020000000000000018,-0.0008599999999999719,0.00048000000000003595,0.0031799999999999606,0.004999999999999893,0.5,0.010000000000000009,0.001100000000000101,0.00048000000000003595,0.0036599999999999966,1742259761.996056
0.06000000000000005,-0.49,-0.020000000000000018,-0.002080000000000082,0.0015800000000001369,0.0017000000000000348,0.004999999999999893,0.5,0.010000000000000009,0.0032999999999998586,-0.00024000000000001798,0.0013400000000001189,1742259762.110077
0.06000000000000005,-0.495,-0.020000000000000018,0.0017000000000000348,-0.00024000000000001798,0.002080000000000082,0.004999999999999893,0.5,0.014999999999999902,0.0027999999999999137,-0.0008599999999999719,-0.00024000000000001798,1742259762.226466
0.06499999999999995,-0.49,-0.020000000000000018,0.0025599999999998957,-0.0010999999999999899,0.0014600000000000168,0.004999999999999893,0.5,0.014999999999999902,0.00048000000000003595,-0.00012000000000000899,0.0023200000000000998,1742259762.338065
0.06499999999999995,-0.495,-0.020000000000000018,0.0023200000000000998,-0.0012199999999999989,0.00011999999999989797,0.004999999999999893,0.5,0.014999999999999902,-0.0006199999999999539,0.0006200000000000649,0.0030599999999998406,1742259762.4520352
0.06000000000000005,-0.49,-0.025000000000000022,0.0025599999999998957,-0.00024000000000001798,-0.00024000000000001798,0.0,0.5049999999999999,0.010000000000000009,-0.0014600000000000168,0.0014600000000000168,0.0015800000000001369,1742259762.566506
0.06000000000000005,-0.49,-0.020000000000000018,-0.0007399999999999629,0.00011999999999989797,0.0015800000000001369,0.0,0.5049999999999999,0.010000000000000009,-0.0017000000000000348,0.0007399999999999629,0.0015800000000001369,1742259762.6799529
0.06499999999999995,-0.49,-0.025000000000000022,0.0014600000000000168,0.0014600000000000168,-0.00024000000000001798,0.0,0.5,0.010000000000000009,0.0014600000000000168,-0.00036000000000002697,0.00035999999999991594,1742259762.794056
0.06499999999999995,-0.49,-0.025000000000000022,0.0019599999999999618,0.0014600000000000168,0.0009799999999999809,-0.0050000000000000044,0.5,0.010000000000000009,-0.0012199999999999989,-0.0024400000000001087,0.00011999999999989797,1742259762.907828
0.06499999999999995,-0.495,-0.030000000000000027,0.00035999999999991594,0.0,0.00048000000000003595,-0.0050000000000000044,0.5,0.010000000000000009,-0.0010999999999999899,-0.0022000000000000908,0.0021999999999999797,1742259763.0218382
0.06499999999999995,-0.49,-0.025000000000000022,-0.0037800000000000056,-0.0017000000000000348,-0.001960000000000073,-0.0050000000000000044,0.5049999999999999,0.004999999999999893,0.0008600000000000829,-0.00024000000000001798,-0.0008599999999999719,1742259763.136183
0.06499999999999995,-0.495,-0.020000000000000018,-0.0035399999999999876,-0.001960000000000073,-0.0012199999999999989,0.0,0.5,0.010000000000000009,0.001100000000000101,0.0015800000000001369,-0.0043999999999999595,1742259763.2502248
0.06499999999999995,-0.485,-0.015000000000000013,-0.0015800000000000258,-0.0046399999999999775,-0.0014600000000000168,0.0,0.5049999999999999,0.010000000000000009,0.0023200000000000998,0.0032999999999998586,-0.0035399999999999876,1742259763.366843
0.06000000000000005,-0.49,-0.015000000000000013,0.0018400000000000638,-0.005240000000000022,-0.00024000000000001798,0.004999999999999893,0.5,0.014999999999999902,0.0009799999999999809,0.005239999999999911,-0.0031799999999999606,1742259763.4780328
0.06000000000000005,-0.49,-0.020000000000000018,0.005619999999999958,-0.0010999999999999899,-0.0014600000000000168,0.004999999999999893,0.5,0.014999999999999902,-0.0008599999999999719,0.0036599999999999966,0.00035999999999991594,1742259763.591997
0.06000000000000005,-0.49,-0.025000000000000022,0.0021999999999999797,0.0039000000000000146,0.0007399999999999629,0.004999999999999893,0.5049999999999999,0.010000000000000009,-0.0042799999999999505,-0.0010999999999999899,0.0017000000000000348,1742259763.707106
0.06499999999999995,-0.49,-0.025000000000000022,0.0025599999999998957,0.0023200000000000998,0.0012199999999999989,0.0,0.5,0.010000000000000009,-0.0014600000000000168,-0.0026799999999999047,0.0018400000000000638,1742259763.819881
0.06499999999999995,-0.485,-0.025000000000000022,0.001100000000000101,0.0012199999999999989,-0.00024000000000001798,-0.0050000000000000044,0.5049999999999999,0.004999999999999893,-0.0006199999999999539,-0.0024400000000001087,0.0019599999999999618,1742259763.933986
0.06499999999999995,-0.495,-0.025000000000000022,-0.0007399999999999629,-0.00012000000000000899,-0.0017000000000000348,-0.0050000000000000044,0.4950000000000001,0.004999999999999893,-0.00048000000000003595,-0.0009799999999999809,0.00048000000000003595,1742259764.050872
0.06000000000000005,-0.49,-0.025000000000000022,-0.00024000000000001798,-0.0008599999999999719,-0.0024400000000001087,-0.0050000000000000044,0.5049999999999999,0.004999999999999893,-0.00012000000000000899,0.001100000000000101,-0.001960000000000073,1742259764.1620212
0.06000000000000005,-0.495,-0.025000000000000022,0.0009799999999999809,-0.0006199999999999539,-0.00012000000000000899,0.0,0.5,0.004999999999999893,-0.0010999999999999899,0.001100000000000101,-0.0022000000000000908,1742259764.276056
0.06000000000000005,-0.495,-0.025000000000000022,-0.002080000000000082,0.002080000000000082,0.0007399999999999629,0.0,0.5049999999999999,0.004999999999999893,0.0,0.0007399999999999629,0.00048000000000003595,1742259764.389833
0.06000000000000005,-0.495,-0.020000000000000018,-0.0024400000000001087,0.0035399999999998766,-0.0010999999999999899,0.004999999999999893,0.5049999999999999,0.010000000000000009,0.0024399999999999977,-0.0017000000000000348,-0.0008599999999999719,1742259764.503982
0.06000000000000005,-0.49,-0.020000000000000018,-0.0014600000000000168,0.0027999999999999137,-0.0017000000000000348,0.0,0.5049999999999999,0.010000000000000009,0.001100000000000101,-0.0029199999999999227,-0.0022000000000000908,1742259764.618104
0.06000000000000005,-0.495,-0.020000000000000018,-0.00024000000000001798,0.0013400000000001189,-0.0013400000000000079,0.0,0.5049999999999999,0.010000000000000009,-0.00012000000000000899,-0.0029199999999999227,-0.002080000000000082,1742259764.731959
0.06000000000000005,-0.49,-0.025000000000000022,0.00048000000000003595,-0.0010999999999999899,-0.00048000000000003595,0.0,0.5049999999999999,0.004999999999999893,-0.0006199999999999539,-0.00024000000000001798,-0.0009799999999999809,1742259764.846452
0.05499999999999994,-0.49,-0.020000000000000018,0.0006200000000000649,-0.00048000000000003595,-0.0014600000000000168,0.004999999999999893,0.5049999999999999,0.010000000000000009,0.00024000000000001798,0.0006200000000000649,-0.0006199999999999539,1742259764.959976
0.05499999999999994,-0.49,-0.025000000000000022,-0.0010999999999999899,0.0006200000000000649,-0.0009799999999999809,0.004999999999999893,0.5,0.004999999999999893,-0.0008599999999999719,0.00048000000000003595,-0.0007399999999999629,1742259765.0739892
0.06000000000000005,-0.49,-0.020000000000000018,-0.0008599999999999719,0.0007399999999999629,-0.00036000000000002697,0.004999999999999893,0.5,0.004999999999999893,0.0007399999999999629,0.00024000000000001798,-0.001960000000000073,1742259765.1879292
0.06000000000000005,-0.49,-0.020000000000000018,0.0009799999999999809,0.0,0.00048000000000003595,0.004999999999999893,0.5,0.010000000000000009,0.00024000000000001798,-0.0008599999999999719,-0.0009799999999999809,1742259765.301733
0.06000000000000005,-0.49,-0.020000000000000018,0.0029200000000000337,-0.00024000000000001798,-0.0013400000000000079,0.004999999999999893,0.5,0.010000000000000009,0.00024000000000001798,0.00048000000000003595,0.0008600000000000829,1742259765.414912
0.05499999999999994,-0.49,-0.025000000000000022,0.0017000000000000348,-0.00012000000000000899,-0.0014600000000000168,0.004999999999999893,0.5,0.004999999999999893,-0.0026799999999999047,0.00011999999999989797,0.0007399999999999629,1742259765.529686
0.05499999999999994,-0.49,-0.025000000000000022,0.002080000000000082,-0.00012000000000000899,-0.0010999999999999899,0.004999999999999893,0.5,0.004999999999999893,-0.001960000000000073,0.00011999999999989797,-0.00012000000000000899,1742259765.6459289
0.05499999999999994,-0.49,-0.025000000000000022,0.0013400000000001189,-0.0013400000000000079,0.00011999999999989797,0.004999999999999893,0.5,0.004999999999999893,-0.002080000000000082,0.0008600000000000829,0.00024000000000001798,1742259765.756865
0.05499999999999994,-0.495,-0.025000000000000022,-0.0007399999999999629,-0.0006199999999999539,0.0012199999999999989,0.0,0.5,0.0,-0.00048000000000003595,0.0013400000000001189,0.0006200000000000649,1742259765.87104
0.05499999999999994,-0.485,-0.025000000000000022,-0.0007399999999999629,-0.00048000000000003595,0.001100000000000101,0.0,0.5049999999999999,0.0,0.0019599999999999618,0.0008600000000000829,-0.00012000000000000899,1742259765.9878058
0.06000000000000005,-0.495,-0.025000000000000022,-0.0013400000000000079,-0.0007399999999999629,0.0012199999999999989,0.0,0.5,0.004999999999999893,0.0021999999999999797,0.0007399999999999629,-0.00024000000000001798,1742259766.098956
0.06000000000000005,-0.49,-0.025000000000000022,-0.0013400000000000079,0.00035999999999991594,0.0013400000000001189,0.004999999999999893,0.5,0.004999999999999893,0.0019599999999999618,0.00011999999999989797,-0.00012000000000000899,1742259766.212817
0.06000000000000005,-0.49,-0.020000000000000018,-0.0014600000000000168,-0.00012000000000000899,0.0014600000000000168,0.004999999999999893,0.5,0.004999999999999893,0.0019599999999999618,-0.00048000000000003595,-0.00036000000000002697,1742259766.327052
0.06000000000000005,-0.495,-0.020000000000000018,-0.00036000000000002697,0.00011999999999989797,0.0014600000000000168,0.004999999999999893,0.5,0.004999999999999893,0.0026800000000000157,-0.00048000000000003595,-0.00048000000000003595,1742259766.440827
0.06000000000000005,-0.49,-0.020000000000000018,-0.0012199999999999989,-0.00012000000000000899,0.0024399999999999977,0.004999999999999893,0.5049999999999999,0.010000000000000009,0.0017000000000000348,0.0,0.0007399999999999629,1742259766.5549471
0.06499999999999995,-0.495,-0.020000000000000018,-0.002080000000000082,0.001100000000000101,0.001100000000000101,0.004999999999999893,0.5049999999999999,0.010000000000000009,0.0029200000000000337,0.00024000000000001798,0.00024000000000001798,1742259766.668862
0.06000000000000005,-0.49,-0.020000000000000018,-0.0024400000000001087,0.0019599999999999618,-0.00024000000000001798,0.0,0.5049999999999999,0.010000000000000009,0.0017000000000000348,-0.0014600000000000168,-0.0006199999999999539,1742259766.785504
0.06000000000000005,-0.49,-0.020000000000000018,-0.0006199999999999539,0.0,-0.00024000000000001798,0.004999999999999893,0.5,0.010000000000000009,0.0009799999999999809,-0.0017000000000000348,-0.0018400000000000638,1742259766.896954
0.06000000000000005,-0.495,-0.020000000000000018,-0.00048000000000003595,0.00011999999999989797,-0.0006199999999999539,0.0,0.5,0.010000000000000009,0.0007399999999999629,-0.00036000000000002697,-0.0008599999999999719,1742259767.010957
0.06000000000000005,-0.495,-0.020000000000000018,-0.0035399999999999876,0.00011999999999989797,-0.0007399999999999629,0.0,0.5,0.010000000000000009,0.00011999999999989797,0.0,-0.00036000000000002697,1742259767.1268978
0.06000000000000005,-0.49,-0.015000000000000013,-0.0015800000000000258,0.0008600000000000829,-0.0014600000000000168,0.004999999999999893,0.5,0.010000000000000009,0.0021999999999999797,-0.0008599999999999719,-0.0025599999999998957,1742259767.238867
0.06000000000000005,-0.49,-0.020000000000000018,-0.0034199999999999786,0.0006200000000000649,0.00024000000000001798,0.004999999999999893,0.5049999999999999,0.010000000000000009,0.0006200000000000649,-0.00024000000000001798,-0.001960000000000073,1742259767.352799
0.06000000000000005,-0.49,-0.015000000000000013,-0.0046399999999999775,0.0019599999999999618,0.00011999999999989797,0.004999999999999893,0.5049999999999999,0.010000000000000009,0.0021999999999999797,0.0,-0.0015800000000000258,1742259767.4671848
0.06000000000000005,-0.49,-0.015000000000000013,-0.0036599999999999966,0.0012199999999999989,-0.00024000000000001798,0.004999999999999893,0.5,0.014999999999999902,0.0045200000000000795,-0.00048000000000003595,-0.0030599999999999516,1742259767.5808818
0.06000000000000005,-0.5,-0.010000000000000009,-0.0042799999999999505,0.0015800000000001369,0.00024000000000001798,0.010000000000000009,0.5049999999999999,0.010000000000000009,0.0026800000000000157,-0.00024000000000001798,-0.001960000000000073,1742259767.694798
0.06000000000000005,-0.49,-0.0050000000000000044,-0.0050000000000000044,0.0040199999999999125,0.0007399999999999629,0.010000000000000009,0.5049999999999999,0.014999999999999902,0.0036599999999999966,-0.0008599999999999719,-0.0031799999999999606,1742259767.808778
0.06000000000000005,-0.49,-0.0050000000000000044,-0.0042799999999999505,0.0043999999999999595,0.0008600000000000829,0.010000000000000009,0.5,0.020000000000000018,0.0043999999999999595,-0.0027999999999999137,-0.0031799999999999606,1742259767.925736
0.06000000000000005,-0.49,-0.0050000000000000044,-0.00537999999999994,0.0027999999999999137,0.0029200000000000337,0.010000000000000009,0.5,0.020000000000000018,0.0041599999999999415,-0.0032999999999999696,-0.0024400000000001087,1742259768.036791
0.06499999999999995,-0.49,0.0,-0.0026799999999999047,0.0017000000000000348,0.0018400000000000638,0.010000000000000009,0.5,0.020000000000000018,0.005619999999999958,-0.005499999999999949,-0.0027999999999999137,1742259768.150676
0.06499999999999995,-0.49,0.004999999999999893,0.00024000000000001798,0.0034199999999999786,0.0014600000000000168,0.010000000000000009,0.5,0.02499999999999991,0.0041599999999999415,-0.0024400000000001087,0.0,1742259768.266515
0.06499999999999995,-0.49,0.0,0.00048000000000003595,0.0041599999999999415,0.0014600000000000168,0.014999999999999902,0.4950000000000001,0.030000000000000027,0.0014600000000000168,-0.00024000000000001798,0.00024000000000001798,1742259768.377692
0.06499999999999995,-0.49,-0.0050000000000000044,-0.006840000000000068,0.0035399999999998766,0.0041599999999999415,0.010000000000000009,0.5,0.030000000000000027,0.0009799999999999809,0.0007399999999999629,0.0017000000000000348,1742259768.49178
0.07000000000000006,-0.485,0.004999999999999893,-0.0037800000000000056,0.0023200000000000998,-0.0009799999999999809,0.010000000000000009,0.5,0.02499999999999991,0.007440000000000113,-0.0012199999999999989,-0.0036599999999999966,1742259768.607115
0.07000000000000006,-0.485,0.004999999999999893,0.0018400000000000638,-0.00024000000000001798,-0.005619999999999958,0.010000000000000009,0.4950000000000001,0.03499999999999992,0.0025599999999998957,-0.0024400000000001087,-0.0036599999999999966,1742259768.719774
0.06499999999999995,-0.495,0.004999999999999893,0.0012199999999999989,-0.0026799999999999047,-0.0030599999999999516,0.010000000000000009,0.4950000000000001,0.030000000000000027,-0.0043999999999999595,0.00024000000000001798,0.00024000000000001798,1742259768.833653
0.06000000000000005,-0.49,0.004999999999999893,-0.0029199999999999227,0.0027999999999999137,0.0013400000000001189,0.010000000000000009,0.5049999999999999,0.030000000000000027,-0.0018400000000000638,0.0035399999999998766,-0.0024400000000001087,1742259768.947677
0.06499999999999995,-0.49,0.004999999999999893,-0.00036000000000002697,0.0037799999999998946,-0.0006199999999999539,0.020000000000000018,0.49,0.030000000000000027,0.005859999999999976,0.00048000000000003595,-0.001960000000000073,1742259769.061774
0.06499999999999995,-0.49,0.004999999999999893,0.0012199999999999989,0.0021999999999999797,-0.0008599999999999719,0.010000000000000009,0.4950000000000001,0.02499999999999991,0.0007399999999999629,0.0014600000000000168,-0.00048000000000003595,1742259769.175564
0.06499999999999995,-0.49,0.004999999999999893,0.0009799999999999809,0.0024399999999999977,-0.0015800000000000258,0.010000000000000009,0.5,0.030000000000000027,-0.0029199999999999227,0.0026800000000000157,-0.0031799999999999606,1742259769.288697
0.06499999999999995,-0.49,0.0,0.0013400000000001189,0.0013400000000001189,-0.001960000000000073,0.020000000000000018,0.5,0.030000000000000027,-0.0036599999999999966,0.00550000000000006,-0.0035399999999999876,1742259769.405761
0.06000000000000005,-0.495,0.0,-0.0007399999999999629,-0.0018400000000000638,-0.0006199999999999539,0.014999999999999902,0.5,0.02499999999999991,-0.0022000000000000908,0.0014600000000000168,0.0,1742259769.515819
0.06000000000000005,-0.49,0.0,-0.00048000000000003595,-0.0006199999999999539,-0.0024400000000001087,0.014999999999999902,0.5049999999999999,0.02499999999999991,-0.00036000000000002697,0.00011999999999989797,-0.002080000000000082,1742259769.629805
0.06000000000000005,-0.49,0.0,-0.00036000000000002697,0.00024000000000001798,-0.0027999999999999137,0.020000000000000018,0.5,0.02499999999999991,-0.00048000000000003595,0.001100000000000101,-0.0023200000000000998,1742259769.746043
0.06000000000000005,-0.49,0.0,0.0008600000000000829,-0.0034199999999999786,-0.0035399999999999876,0.020000000000000018,0.5,0.02499999999999991,-0.0008599999999999719,0.0012199999999999989,-0.0017000000000000348,1742259769.857698
0.06000000000000005,-0.495,0.0,0.00011999999999989797,-0.0027999999999999137,-0.0046399999999999775,0.014999999999999902,0.4950000000000001,0.02499999999999991,-0.0012199999999999989,0.002080000000000082,-0.0025599999999998957,1742259769.971633
0.05499999999999994,-0.495,0.0,-0.0007399999999999629,0.0014600000000000168,-0.0048799999999999955,0.020000000000000018,0.5,0.02499999999999991,-0.0030599999999999516,0.0017000000000000348,-0.0018400000000000638,1742259770.086632
0.050000000000000044,-0.49,0.0,-0.0018400000000000638,0.0042800000000000615,-0.0041599999999999415,0.02499999999999991,0.5,0.020000000000000018,-0.0029199999999999227,0.0,-0.0030599999999999516,1742259770.199649
0.050000000000000044,-0.49,0.0,-0.0042799999999999505,0.00537999999999994,-0.0029199999999999227,0.02499999999999991,0.5,0.020000000000000018,-0.0017000000000000348,-0.0032999999999999696,-0.0037800000000000056,1742259770.3136508
0.050000000000000044,-0.49,0.004999999999999893,-0.0032999999999999696,0.0042800000000000615,-0.0031799999999999606,0.02499999999999991,0.5,0.020000000000000018,0.00048000000000003595,-0.0042799999999999505,-0.0048799999999999955,1742259770.427657
0.04499999999999993,-0.49,0.004999999999999893,-0.0023200000000000998,0.0027999999999999137,-0.0025599999999998957,0.02499999999999991,0.4950000000000001,0.020000000000000018,0.0006200000000000649,-0.0035399999999999876,-0.0035399999999999876,1742259770.541623
0.04499999999999993,-0.495,0.010000000000000009,-0.0015800000000000258,0.0026800000000000157,-0.0029199999999999227,0.030000000000000027,0.4950000000000001,0.020000000000000018,0.00011999999999989797,-0.0012199999999999989,-0.0032999999999999696,1742259770.655651
0.04499999999999993,-0.5,0.010000000000000009,0.00011999999999989797,0.004999999999999893,-0.0023200000000000998,0.030000000000000027,0.5,0.014999999999999902,-0.00036000000000002697,-0.0014600000000000168,-0.0013400000000000079,1742259770.769593
0.04499999999999993,-0.495,0.010000000000000009,0.001100000000000101,0.0045200000000000795,-0.0014600000000000168,0.03499999999999992,0.5049999999999999,0.020000000000000018,-0.0025599999999998957,-0.0022000000000000908,-0.0009799999999999809,1742259770.886042
0.04499999999999993,-0.49,0.004999999999999893,-0.00048000000000003595,0.0018400000000000638,-0.00012000000000000899,0.030000000000000027,0.5,0.014999999999999902,-0.0027999999999999137,-0.0037800000000000056,-0.0007399999999999629,1742259770.9976408
0.04499999999999993,-0.49,0.004999999999999893,0.0014600000000000168,-0.002080000000000082,-0.00048000000000003595,0.030000000000000027,0.5,0.014999999999999902,0.00011999999999989797,-0.0010999999999999899,-0.0013400000000000079,1742259771.111652
0.04499999999999993,-0.5,0.004999999999999893,0.0026800000000000157,-0.0045199999999999685,0.00011999999999989797,0.030000000000000027,0.4950000000000001,0.014999999999999902,-0.00036000000000002697,0.0025599999999998957,-0.00012000000000000899,1742259771.225893
0.04499999999999993,-0.49,0.004999999999999893,0.0007399999999999629,-0.0032999999999999696,0.0034199999999999786,0.030000000000000027,0.5,0.010000000000000009,-0.0013400000000000079,0.0032999999999998586,0.0014600000000000168,1742259771.339558
0.04499999999999993,-0.49,0.004999999999999893,0.0013400000000001189,-0.0026799999999999047,0.0048799999999999955,0.030000000000000027,0.5,0.014999999999999902,0.0023200000000000998,0.0045200000000000795,0.0018400000000000638,1742259771.453688
0.04499999999999993,-0.49,0.004999999999999893,0.0031799999999999606,-0.0012199999999999989,0.0015800000000001369,0.030000000000000027,0.5,0.014999999999999902,0.0046399999999999775,0.0037799999999998946,0.0031799999999999606,1742259771.567539
0.050000000000000044,-0.495,0.004999999999999893,0.0,0.00011999999999989797,0.0021999999999999797,0.02499999999999991,0.4950000000000001,0.014999999999999902,0.0012199999999999989,0.0009799999999999809,0.0036599999999999966,1742259771.681398
0.05499999999999994,-0.49,0.004999999999999893,0.0009799999999999809,0.0,0.0029200000000000337,0.02499999999999991,0.5,0.020000000000000018,0.0012199999999999989,-0.0008599999999999719,0.0032999999999998586,1742259771.794463
0.05499999999999994,-0.495,0.0,0.001100000000000101,-0.0022000000000000908,0.0034199999999999786,0.020000000000000018,0.5,0.020000000000000018,0.0019599999999999618,-0.0007399999999999629,0.0023200000000000998,1742259771.907563
0.05499999999999994,-0.495,0.0,0.0017000000000000348,-0.0014600000000000168,0.0025599999999998957,0.020000000000000018,0.5049999999999999,0.020000000000000018,0.0013400000000001189,0.00035999999999991594,0.0027999999999999137,1742259772.0215402
0.05499999999999994,-0.495,0.0,0.0018400000000000638,-0.0007399999999999629,0.0018400000000000638,0.020000000000000018,0.5,0.020000000000000018,0.0014600000000000168,0.0019599999999999618,0.0019599999999999618,1742259772.135493
0.05499999999999994,-0.49,0.0,0.0013400000000001189,-0.0013400000000000079,0.0021999999999999797,0.020000000000000018,0.5,0.020000000000000018,-0.00036000000000002697,0.0024399999999999977,0.0024399999999999977,1742259772.249428
0.05499999999999994,-0.495,0.0,0.001100000000000101,0.0006200000000000649,0.0017000000000000348,0.020000000000000018,0.5049999999999999,0.020000000000000018,0.0008600000000000829,0.0008600000000000829,0.001100000000000101,1742259772.362359
0.05499999999999994,-0.49,0.0,-0.00012000000000000899,0.0009799999999999809,0.0023200000000000998,0.020000000000000018,0.5,0.020000000000000018,0.00048000000000003595,-0.0006199999999999539,0.0019599999999999618,1742259772.475592
0.06000000000000005,-0.49,0.0,0.00024000000000001798,-0.00024000000000001798,0.0014600000000000168,0.014999999999999902,0.5,0.020000000000000018,0.0017000000000000348,-0.00048000000000003595,0.001100000000000101,1742259772.5895932
0.06000000000000005,-0.49,0.0,-0.0018400000000000638,-0.0014600000000000168,0.0015800000000001369,0.014999999999999902,0.4950000000000001,0.020000000000000018,0.0012199999999999989,-0.0007399999999999629,0.00035999999999991594,1742259772.705687
0.06499999999999995,-0.49,0.004999999999999893,-0.0027999999999999137,-0.0013400000000000079,0.0009799999999999809,0.014999999999999902,0.5,0.020000000000000018,0.0045200000000000795,-0.0024400000000001087,-0.00048000000000003595,1742259772.8175611
0.06000000000000005,-0.495,0.004999999999999893,-0.0013400000000000079,-0.0015800000000000258,-0.00048000000000003595,0.014999999999999902,0.4950000000000001,0.02499999999999991,0.0034199999999999786,-0.0010999999999999899,-0.0022000000000000908,1742259772.931604
0.06000000000000005,-0.495,0.004999999999999893,-0.0034199999999999786,-0.0012199999999999989,0.0006200000000000649,0.014999999999999902,0.5,0.02499999999999991,-0.0006199999999999539,0.002080000000000082,-0.0014600000000000168,1742259773.04558
0.06000000000000005,-0.495,0.004999999999999893,-0.0043999999999999595,0.001100000000000101,0.0009799999999999809,0.014999999999999902,0.5049999999999999,0.02499999999999991,0.0023200000000000998,-0.0015800000000000258,-0.0014600000000000168,1742259773.159424
0.06000000000000005,-0.49,0.004999999999999893,-0.0032999999999999696,0.0023200000000000998,-0.0025599999999998957,0.020000000000000018,0.51,0.030000000000000027,0.005239999999999911,-0.0031799999999999606,-0.0010999999999999899,1742259773.273563
0.06000000000000005,-0.485,0.010000000000000009,-0.0026799999999999047,0.006720000000000059,-0.0013400000000000079,0.014999999999999902,0.5,0.030000000000000027,0.0024399999999999977,-0.0010999999999999899,-0.0014600000000000168,1742259773.387545
0.06000000000000005,-0.49,0.010000000000000009,0.00011999999999989797,0.0027999999999999137,-0.0022000000000000908,0.014999999999999902,0.5049999999999999,0.03499999999999992,-0.0050000000000000044,0.0019599999999999618,0.0029200000000000337,1742259773.501409
0.05499999999999994,-0.49,0.010000000000000009,0.0,0.0013400000000001189,-0.0037800000000000056,0.020000000000000018,0.49,0.030000000000000027,-0.0046399999999999775,0.0032999999999998586,-0.009519999999999973,1742259773.61539
0.050000000000000044,-0.49,0.010000000000000009,-0.0006199999999999539,0.0017000000000000348,-0.006460000000000021,0.02499999999999991,0.5,0.030000000000000027,-0.0031799999999999606,0.0031799999999999606,-0.005499999999999949,1742259773.729651
0.050000000000000044,-0.49,0.010000000000000009,-0.0013400000000000079,0.0040199999999999125,-0.008539999999999992,0.030000000000000027,0.4950000000000001,0.030000000000000027,-0.0008599999999999719,0.0023200000000000998,-0.005499999999999949,1742259773.8462331
0.04499999999999993,-0.49,0.010000000000000009,-0.0013400000000000079,0.0039000000000000146,-0.007080000000000086,0.030000000000000027,0.4950000000000001,0.02499999999999991,-0.0039000000000000146,0.00035999999999991594,-0.007320000000000104,1742259773.957597
0.040000000000000036,-0.49,0.010000000000000009,0.0006200000000000649,0.0012199999999999989,-0.005979999999999985,0.030000000000000027,0.5,0.020000000000000018,-0.0036599999999999966,-0.002080000000000082,-0.007440000000000002,1742259774.071423
0.03499999999999992,-0.495,0.010000000000000009,0.00048000000000003595,-0.0012199999999999989,-0.0023200000000000998,0.03499999999999992,0.5,0.014999999999999902,-0.0041599999999999415,-0.0010999999999999899,-0.0050000000000000044,1742259774.186424
0.040000000000000036,-0.49,0.010000000000000009,-0.0007399999999999629,-0.0010999999999999899,0.0047600000000000975,0.040000000000000036,0.5,0.014999999999999902,-0.0024400000000001087,-0.00012000000000000899,-0.002080000000000082,1742259774.299569
0.04499999999999993,-0.5,0.010000000000000009,-0.0035399999999999876,0.0021999999999999797,0.007940000000000058,0.040000000000000036,0.5049999999999999,0.014999999999999902,0.0008600000000000829,-0.0012199999999999989,0.00035999999999991594,1742259774.41337
0.050000000000000044,-0.495,0.014999999999999902,0.00024000000000001798,0.0031799999999999606,0.005740000000000078,0.03499999999999992,0.5,0.014999999999999902,-0.0040200000000000236,-0.006720000000000059,0.0019599999999999618,1742259774.529647
0.050000000000000044,-0.505,0.010000000000000009,0.0037799999999998946,0.0037799999999998946,0.0046399999999999775,0.03499999999999992,0.5,0.020000000000000018,-0.00048000000000003595,-0.008059999999999956,0.0045200000000000795,1742259774.6403358
0.06499999999999995,-0.51,0.014999999999999902,-0.014519999999999977,0.007079999999999975,0.018799999999999928,0.03499999999999992,0.5350000000000001,0.030000000000000027,0.00770000000000004,-0.009759999999999991,0.005239999999999911,1742259774.753493
0.06499999999999995,-0.515,0.030000000000000027,-0.030159999999999965,-0.00988,0.023320000000000007,0.02499999999999991,0.55,0.03499999999999992,0.017940000000000067,0.0039000000000000146,-0.005859999999999976,1742259774.867549
0.06000000000000005,-0.4650000000000001,0.040000000000000036,-0.050899999999999945,-0.01746000000000003,0.0343,0.03499999999999992,0.5150000000000001,0.040000000000000036,0.04920000000000013,0.0046399999999999775,-0.026859999999999995,1742259774.981568
0.09000000000000008,-0.4650000000000001,0.06499999999999995,-0.019540000000000002,-0.005619999999999958,0.013299999999999867,0.05499999999999994,0.44999999999999996,0.07499999999999996,0.08094000000000001,0.00024000000000001798,-0.01966000000000001,1742259775.095554
0.09499999999999997,-0.505,0.07000000000000006,-0.019540000000000002,-0.005499999999999949,0.008920000000000039,0.050000000000000044,0.45999999999999996,0.10000000000000009,0.025519999999999987,0.011479999999999935,-0.005859999999999976,1742259775.209446
0.09499999999999997,-0.47,0.08499999999999996,-0.035640000000000005,-0.014639999999999986,0.02185999999999999,0.050000000000000044,0.5150000000000001,0.1100000000000001,-0.00012000000000000899,0.010739999999999972,0.0009799999999999809,1742259775.325417
0.09499999999999997,-0.45999999999999996,0.09000000000000008,0.00782000000000016,-0.00660000000000005,0.0027999999999999137,0.06000000000000005,0.49,0.10499999999999998,0.027099999999999902,0.011239999999999917,-0.01305999999999996,1742259775.437299
0.10000000000000009,-0.5,0.09000000000000008,0.006220000000000114,-0.00770000000000004,0.00550000000000006,0.06000000000000005,0.47,0.1100000000000001,-0.006220000000000003,0.00782000000000016,0.00048000000000003595,1742259775.551309
0.10499999999999998,-0.48,0.09000000000000008,-0.0025599999999998957,-0.005979999999999985,0.00865999999999989,0.06499999999999995,0.49,0.1100000000000001,-0.006960000000000077,-0.005499999999999949,0.007560000000000011,1742259775.665802
0.020000000000000018,-0.55,0.125,-0.03967999999999994,0.03370000000000006,0.03442000000000012,0.05499999999999994,0.47,0.10000000000000009,-0.0010999999999999899,-0.005619999999999958,0.0030599999999998406,1742259775.779298
0.20999999999999996,-0.41999999999999993,0.14500000000000002,0.00865999999999989,0.028200000000000003,-0.01746000000000003,0.16999999999999993,0.44500000000000006,0.10499999999999998,0.04577999999999993,0.03405999999999998,-0.044440000000000035,1742259791.126288
0.20999999999999996,-0.43999999999999995,0.16500000000000004,-0.0075599999999999,-0.005979999999999985,0.006340000000000012,0.11499999999999999,0.44500000000000006,0.16999999999999993,-0.018320000000000003,0.022699999999999942,0.0046399999999999775,1742259791.240222
0.17500000000000004,-0.33499999999999996,0.10499999999999998,0.029179999999999984,-0.0039000000000000146,-0.03149999999999997,0.15999999999999992,0.5699999999999998,0.09000000000000008,0.034540000000000015,-0.10560000000000003,-0.09472000000000003,1742259791.3543072
0.2250000000000001,-0.365,0.11499999999999999,0.01097999999999999,-0.03320000000000001,-0.00048000000000003595,0.14000000000000012,0.48,0.09000000000000008,0.05932000000000004,-0.11072000000000004,0.018799999999999928,1742259791.4716191
0.20500000000000007,-0.42999999999999994,0.1200000000000001,0.022820000000000062,-0.046640000000000015,-0.025519999999999987,0.10499999999999998,0.44500000000000006,0.18999999999999995,0.14892000000000016,-0.11181999999999992,-0.00048000000000003595,1742259791.581204
0.16500000000000004,-0.45999999999999996,0.09499999999999997,0.04283999999999999,-0.01415999999999995,-0.0026799999999999047,0.06499999999999995,0.42500000000000004,0.2450000000000001,-0.007440000000000002,-0.06591999999999998,0.033320000000000016,1742259791.695348
0.20999999999999996,-0.44999999999999996,0.1299999999999999,0.018440000000000012,0.00024000000000001798,-0.01758000000000004,0.05499999999999994,0.41999999999999993,0.2549999999999999,-0.04515999999999998,-0.023320000000000007,0.0024399999999999977,1742259791.8124511
0.16500000000000004,-0.45999999999999996,0.1200000000000001,-0.017220000000000013,0.00550000000000006,-0.022220000000000018,0.02499999999999991,0.44999999999999996,0.2549999999999999,-0.02198,0.049799999999999844,0.01953999999999989,1742259791.923192
0.14500000000000002,-0.45500000000000007,0.10499999999999998,0.018920000000000048,-0.012820000000000054,-0.023679999999999923,0.020000000000000018,0.45999999999999996,0.21999999999999997,-0.02746000000000004,0.0032999999999998586,0.009640000000000093,1742259792.0370948
0.135,-0.45999999999999996,0.09499999999999997,-0.02198,0.016599999999999948,-0.016960000000000086,0.02499999999999991,0.4849999999999999,0.22999999999999998,0.014780000000000015,0.03222000000000014,-0.007200000000000095,1742259792.150229
0.1499999999999999,-0.45500000000000007,0.10000000000000009,-0.042360000000000064,0.09594000000000014,0.009160000000000057,0.08000000000000007,0.42999999999999994,0.1499999999999999,-0.03625999999999996,0.03929999999999989,-0.04200000000000004,1742259792.264213
0.16500000000000004,-0.4650000000000001,0.125,0.006340000000000012,-0.00770000000000004,0.0015800000000001369,0.06499999999999995,0.5049999999999999,0.18500000000000005,-0.03613999999999995,-0.06213999999999997,-0.018799999999999928,1742259792.3782651
0.16500000000000004,-0.44500000000000006,0.11499999999999999,-0.010379999999999945,0.013419999999999987,-0.0022000000000000908,0.04499999999999993,0.44500000000000006,0.15999999999999992,-0.050779999999999936,-0.009039999999999937,-0.0026799999999999047,1742259792.492403
0.15500000000000003,-0.4650000000000001,0.11499999999999999,-0.017820000000000058,0.018799999999999928,0.0006200000000000649,0.07000000000000006,0.45999999999999996,0.17500000000000004,0.008059999999999956,-0.0045199999999999685,0.0046399999999999775,1742259792.606059
0.16500000000000004,-0.43999999999999995,0.135,-0.01660000000000006,0.021479999999999944,-0.021480000000000055,0.040000000000000036,0.47,0.15500000000000003,-0.027220000000000022,-0.006960000000000077,0.0,1742259792.7191832
0.15999999999999992,-0.4650000000000001,0.135,0.023800000000000043,-0.006099999999999994,-0.0045199999999999685,0.050000000000000044,0.4849999999999999,0.14500000000000002,-0.005979999999999985,0.02526000000000006,0.012199999999999989,1742259792.833052
0.1499999999999999,-0.4650000000000001,0.1200000000000001,0.0341800000000001,-0.01648000000000005,0.006720000000000059,0.050000000000000044,0.48,0.14000000000000012,-0.0009799999999999809,0.021120000000000028,0.015619999999999967,1742259792.94717
0.1499999999999999,-0.47,0.11499999999999999,0.02855999999999992,-0.03210000000000002,0.0023200000000000998,0.05499999999999994,0.48,0.1499999999999999,-0.0037800000000000056,0.023679999999999923,0.011840000000000073,1742259793.0610712
0.15500000000000003,-0.44500000000000006,0.10499999999999998,0.010259999999999936,-0.03295999999999999,0.0017000000000000348,0.040000000000000036,0.4650000000000001,0.14000000000000012,-0.0034199999999999786,0.034660000000000135,0.009759999999999991,1742259793.176905
0.135,-0.4650000000000001,0.09000000000000008,0.017220000000000013,-0.05603999999999998,0.0012199999999999989,0.050000000000000044,0.47,0.1299999999999999,0.0029200000000000337,0.04688000000000003,0.007440000000000113,1742259793.292533
0.1299999999999999,-0.4650000000000001,0.09000000000000008,0.019279999999999964,-0.053340000000000054,0.0019599999999999618,0.04499999999999993,0.48,0.125,-0.0029199999999999227,0.03186,0.007560000000000011,1742259793.4030652
0.125,-0.5,0.07499999999999996,0.015139999999999931,-0.047860000000000014,0.0027999999999999137,0.04499999999999993,0.51,0.11499999999999999,0.0027999999999999137,0.009039999999999937,-0.0029199999999999227,1742259793.517128
0.1200000000000001,-0.475,0.07499999999999996,0.009640000000000093,-0.021480000000000055,-0.005120000000000013,0.050000000000000044,0.48,0.1200000000000001,-0.011840000000000073,0.02635999999999994,0.0029200000000000337,1742259793.6344929
0.125,-0.45999999999999996,0.08499999999999996,-0.0042799999999999505,-0.012460000000000027,-0.0026799999999999047,0.04499999999999993,0.48,0.1200000000000001,0.005740000000000078,0.02942,-0.002080000000000082,1742259793.745205
0.1299999999999999,-0.48,0.09499999999999997,-0.01427999999999996,-0.0006199999999999539,-0.0039000000000000146,0.050000000000000044,0.49,0.125,0.0015800000000001369,0.03820000000000001,-0.0018400000000000638,1742259793.859191
0.125,-0.45999999999999996,0.10499999999999998,-0.010379999999999945,-0.0036599999999999966,-0.0042799999999999505,0.05499999999999994,0.47,0.11499999999999999,0.007319999999999993,0.04833999999999983,-0.0015800000000000258,1742259793.972965
0.1100000000000001,-0.475,0.10499999999999998,-0.00770000000000004,-0.01525999999999994,-0.0048799999999999955,0.07000000000000006,0.4849999999999999,0.10499999999999998,-0.0009799999999999809,0.023560000000000025,-0.009279999999999955,1742259794.086072
0.1100000000000001,-0.48,0.1200000000000001,-0.009759999999999991,-0.019159999999999955,-0.00024000000000001798,0.09000000000000008,0.49,0.1200000000000001,0.0026800000000000157,0.013299999999999867,-0.008419999999999983,1742259794.1991029
0.1100000000000001,-0.4650000000000001,0.125,0.006099999999999994,-0.002080000000000082,0.0012199999999999989,0.10000000000000009,0.4849999999999999,0.1299999999999999,-0.008660000000000001,0.03807999999999989,0.006960000000000077,1742259794.312999
0.10000000000000009,-0.44999999999999996,0.11499999999999999,0.0014600000000000168,0.04090000000000016,-0.011480000000000046,0.08499999999999996,0.45999999999999996,0.10499999999999998,-0.008660000000000001,0.025140000000000162,0.009640000000000093,1742259794.426073
0.11499999999999999,-0.48,0.09000000000000008,0.0048799999999999955,0.03601999999999994,0.0024399999999999977,0.06499999999999995,0.5,0.10000000000000009,-0.005739999999999967,-0.03283999999999998,0.005120000000000013,1742259794.540169
0.135,-0.4650000000000001,0.09000000000000008,-0.007200000000000095,0.021360000000000046,0.01977999999999991,0.06499999999999995,0.48,0.1100000000000001,0.01977999999999991,-0.06041999999999992,-0.024660000000000015,1742259794.655992
0.14500000000000002,-0.45500000000000007,0.09499999999999997,0.015260000000000051,0.024660000000000126,0.0015800000000001369,0.05499999999999994,0.48,0.1299999999999999,-0.0015800000000000258,-0.045539999999999914,0.006340000000000012,1742259794.772842
0.1499999999999999,-0.475,0.08000000000000007,0.020499999999999963,0.018059999999999965,-0.009399999999999964,0.04499999999999993,0.5049999999999999,0.135,-0.011240000000000028,-0.015859999999999985,0.02868000000000004,1742259794.88212
0.135,-0.44999999999999996,0.07499999999999996,0.024900000000000144,0.0037799999999998946,-0.00036000000000002697,0.04499999999999993,0.44999999999999996,0.1200000000000001,-0.010499999999999954,0.0007399999999999629,0.019160000000000066,1742259794.996142
0.125,-0.495,0.06000000000000005,0.015020000000000033,-0.0008599999999999719,-0.0041599999999999415,0.050000000000000044,0.51,0.1100000000000001,-0.008660000000000001,-0.008539999999999992,0.005120000000000013,1742259795.114052
0.125,-0.475,0.06499999999999995,-0.011600000000000055,0.006099999999999994,0.006340000000000012,0.06000000000000005,0.48,0.125,0.008920000000000039,-0.010499999999999954,-0.0036599999999999966,1742259795.224253
0.1299999999999999,-0.47,0.06000000000000005,0.006720000000000059,0.01966000000000001,-0.00988,0.03499999999999992,0.48,0.1100000000000001,-0.016840000000000077,-0.02185999999999999,0.0009799999999999809,1742259795.3381069
0.125,-0.48,0.06000000000000005,-0.0007399999999999629,0.01868000000000003,-0.008660000000000001,0.04499999999999993,0.4849999999999999,0.10499999999999998,-0.01085999999999998,-0.015619999999999967,-0.006099999999999994,1742259795.452977
0.1200000000000001,-0.47,0.05499999999999994,-0.0036599999999999966,0.015619999999999967,-0.009759999999999991,0.04499999999999993,0.48,0.10000000000000009,-0.01317999999999997,-0.01648000000000005,-0.013799999999999923,1742259795.566263
0.135,-0.495,0.07000000000000006,-0.020019999999999927,0.02088000000000001,0.0006200000000000649,0.050000000000000044,0.51,0.1100000000000001,-0.0015800000000000258,-0.023679999999999923,-0.01758000000000004,1742259795.680193
0.135,-0.47,0.07000000000000006,-0.009399999999999964,0.01110000000000011,-0.0034199999999999786,0.04499999999999993,0.4849999999999999,0.10499999999999998,0.0009799999999999809,-0.007440000000000002,-0.0050000000000000044,1742259795.794128
0.1299999999999999,-0.48,0.07000000000000006,-0.002080000000000082,0.00048000000000003595,-0.0013400000000000079,0.050000000000000044,0.49,0.10000000000000009,0.0036599999999999966,0.0030599999999998406,-0.002080000000000082,1742259795.912032
0.125,-0.475,0.07499999999999996,-0.0008599999999999719,-0.0029199999999999227,0.0030599999999998406,0.06000000000000005,0.48,0.10499999999999998,0.006099999999999994,0.0039000000000000146,0.0019599999999999618,1742259796.020869
0.125,-0.475,0.07499999999999996,0.005120000000000013,-0.0014600000000000168,0.00048000000000003595,0.05499999999999994,0.48,0.10499999999999998,-0.0014600000000000168,0.0047600000000000975,0.006220000000000114,1742259796.135922
0.125,-0.48,0.07000000000000006,0.0014600000000000168,0.0007399999999999629,0.0,0.05499999999999994,0.4950000000000001,0.1100000000000001,0.0031799999999999606,-0.0013400000000000079,0.0042800000000000615,1742259796.24701
0.1299999999999999,-0.475,0.07000000000000006,-0.0045199999999999685,0.0018400000000000638,0.004999999999999893,0.050000000000000044,0.48,0.10499999999999998,0.006220000000000114,-0.0013400000000000079,-0.00048000000000003595,1742259796.3610828
0.1299999999999999,-0.475,0.07000000000000006,-0.008919999999999928,-0.002080000000000082,0.004999999999999893,0.04499999999999993,0.4849999999999999,0.1100000000000001,0.008539999999999992,-0.00036000000000002697,-0.0014600000000000168,1742259796.475059
0.135,-0.47,0.07000000000000006,0.0015800000000001369,-0.0032999999999999696,0.0026800000000000157,0.04499999999999993,0.49,0.11499999999999999,0.0025599999999998957,0.0019599999999999618,0.0031799999999999606,1742259796.589111
0.135,-0.47,0.07000000000000006,-0.0018400000000000638,-0.0018400000000000638,0.0043999999999999595,0.04499999999999993,0.48,0.11499999999999999,0.0032999999999998586,0.00782000000000016,0.002080000000000082,1742259796.701885
0.14000000000000012,-0.475,0.07000000000000006,0.0043999999999999595,-0.0026799999999999047,0.0009799999999999809,0.04499999999999993,0.4849999999999999,0.11499999999999999,-0.0027999999999999137,0.01110000000000011,0.00550000000000006,1742259796.814992
0.135,-0.47,0.07000000000000006,0.0040199999999999125,-0.0041599999999999415,-0.0008599999999999719,0.040000000000000036,0.48,0.11499999999999999,-0.0026799999999999047,0.0046399999999999775,0.0017000000000000348,1742259796.9337542
0.135,-0.475,0.07000000000000006,0.00035999999999991594,-0.0050000000000000044,0.0007399999999999629,0.04499999999999993,0.4950000000000001,0.11499999999999999,0.0025599999999998957,-0.00048000000000003595,0.0,1742259797.041943
0.135,-0.47,0.07000000000000006,-0.0009799999999999809,-0.0014600000000000168,0.002080000000000082,0.04499999999999993,0.4849999999999999,0.11499999999999999,0.0019599999999999618,-0.0006199999999999539,0.0009799999999999809,1742259797.156062
0.14000000000000012,-0.47,0.07499999999999996,0.0032999999999998586,0.0027999999999999137,-0.0007399999999999629,0.040000000000000036,0.48,0.1200000000000001,-0.0042799999999999505,0.0039000000000000146,0.0046399999999999775,1742259797.272369
0.1299999999999999,-0.475,0.06000000000000005,0.008920000000000039,0.0037799999999998946,-0.010619999999999963,0.03499999999999992,0.4849999999999999,0.10499999999999998,-0.017940000000000067,0.0041599999999999415,0.009039999999999937,1742259797.38089
0.1299999999999999,-0.4650000000000001,0.06000000000000005,0.001100000000000101,-0.00024000000000001798,-0.002080000000000082,0.030000000000000027,0.4849999999999999,0.10000000000000009,-0.0045199999999999685,0.007319999999999993,0.0034199999999999786,1742259797.493879
0.1299999999999999,-0.475,0.06000000000000005,0.0006200000000000649,-0.008179999999999965,0.0013400000000001189,0.03499999999999992,0.4849999999999999,0.10000000000000009,0.0037799999999998946,0.008179999999999854,-0.0010999999999999899,1742259797.606876
0.1299999999999999,-0.475,0.07000000000000006,0.0042800000000000615,-0.0041599999999999415,-0.0013400000000000079,0.04499999999999993,0.4849999999999999,0.1100000000000001,-0.0037800000000000056,0.0040199999999999125,0.0014600000000000168,1742259797.719862
0.125,-0.48,0.06000000000000005,0.007560000000000011,0.005239999999999911,-0.008539999999999992,0.040000000000000036,0.49,0.09499999999999997,-0.01317999999999997,0.0032999999999998586,0.006460000000000132,1742259797.833604
0.125,-0.48,0.05499999999999994,-0.0015800000000000258,0.0021999999999999797,0.0012199999999999989,0.030000000000000027,0.4950000000000001,0.09000000000000008,-0.00012000000000000899,-0.002080000000000082,0.002080000000000082,1742259797.945934
0.1299999999999999,-0.475,0.06000000000000005,-0.0027999999999999137,-0.0023200000000000998,0.0043999999999999595,0.030000000000000027,0.4950000000000001,0.09499999999999997,0.005120000000000013,0.00048000000000003595,0.0009799999999999809,1742259798.058766
0.1299999999999999,-0.475,0.06000000000000005,0.0030599999999998406,-0.0026799999999999047,0.0045200000000000795,0.030000000000000027,0.4950000000000001,0.10000000000000009,0.0031799999999999606,0.0043999999999999595,0.0042800000000000615,1742259798.176996
0.1299999999999999,-0.475,0.05499999999999994,0.005980000000000096,-0.005619999999999958,0.008059999999999956,0.030000000000000027,0.5,0.09499999999999997,0.006460000000000132,0.0,0.008059999999999956,1742259798.28645
0.14000000000000012,-0.47,0.06000000000000005,-0.0022000000000000908,0.0013400000000001189,0.01746000000000003,0.02499999999999991,0.48,0.10499999999999998,0.01537999999999995,-0.0030599999999999516,0.005980000000000096,1742259798.400436
0.1499999999999999,-0.47,0.06000000000000005,0.00048000000000003595,0.0034199999999999786,0.0019599999999999618,0.014999999999999902,0.4849999999999999,0.1100000000000001,-0.0006199999999999539,0.006340000000000012,0.0040199999999999125,1742259798.514343
0.14000000000000012,-0.47,0.05499999999999994,0.00011999999999989797,0.0,-0.0039000000000000146,0.020000000000000018,0.4849999999999999,0.1100000000000001,0.0039000000000000146,0.006960000000000077,0.0021999999999999797,1742259798.627392
0.14000000000000012,-0.4650000000000001,0.06000000000000005,-0.005499999999999949,0.00878000000000001,-0.0050000000000000044,0.030000000000000027,0.48,0.1100000000000001,-0.0050000000000000044,-0.0032999999999999696,-0.0025599999999998957,1742259798.741559
0.14000000000000012,-0.4650000000000001,0.06499999999999995,0.0018400000000000638,0.008539999999999992,-0.0029199999999999227,0.020000000000000018,0.49,0.10000000000000009,-0.0039000000000000146,-0.0040200000000000236,0.0008600000000000829,1742259798.855427
0.135,-0.47,0.06000000000000005,0.009519999999999973,0.0029200000000000337,0.006220000000000114,0.02499999999999991,0.4849999999999999,0.10499999999999998,0.0008600000000000829,-0.0023200000000000998,0.009759999999999991,1742259798.97315
0.14500000000000002,-0.47,0.050000000000000044,0.007319999999999993,0.0042800000000000615,0.0046399999999999775,0.014999999999999902,0.4849999999999999,0.1100000000000001,-0.0014600000000000168,-0.0015800000000000258,0.01110000000000011,1742259799.082324
0.14500000000000002,-0.47,0.04499999999999993,-0.006220000000000003,0.0012199999999999989,-0.0030599999999999516,0.004999999999999893,0.49,0.10499999999999998,-0.005240000000000022,-0.005619999999999958,-0.00024000000000001798,1742259799.195592
0.14500000000000002,-0.4650000000000001,0.06000000000000005,-0.010000000000000009,-0.0022000000000000908,-0.0031799999999999606,0.004999999999999893,0.4849999999999999,0.10000000000000009,-0.0006199999999999539,-0.0032999999999999696,-0.009639999999999982,1742259799.313088
0.14000000000000012,-0.47,0.06000000000000005,0.00024000000000001798,-0.018179999999999974,-0.0022000000000000908,0.020000000000000018,0.49,0.10000000000000009,-0.0018400000000000638,0.0040199999999999125,-0.0045199999999999685,1742259799.423602
0.135,-0.47,0.06000000000000005,0.0,-0.012940000000000063,0.0015800000000001369,0.020000000000000018,0.4849999999999999,0.10000000000000009,0.0017000000000000348,0.0042800000000000615,-0.0023200000000000998,1742259799.537396
0.14000000000000012,-0.47,0.06000000000000005,0.0018400000000000638,-0.0010999999999999899,0.00011999999999989797,0.014999999999999902,0.4950000000000001,0.10499999999999998,0.0015800000000001369,0.0034199999999999786,0.00024000000000001798,1742259799.656234
0.14000000000000012,-0.47,0.06000000000000005,-0.0018400000000000638,0.005619999999999958,-0.0025599999999998957,0.014999999999999902,0.4950000000000001,0.10499999999999998,0.0,-0.00036000000000002697,-0.0023200000000000998,1742259799.764447
0.135,-0.47,0.05499999999999994,-0.0015800000000000258,0.0039000000000000146,-0.005739999999999967,0.014999999999999902,0.49,0.09499999999999997,-0.0041599999999999415,-0.0036599999999999966,-0.0025599999999998957,1742259799.878599
0.135,-0.47,0.06000000000000005,-0.001960000000000073,0.0025599999999998957,-0.0031799999999999606,0.020000000000000018,0.49,0.09499999999999997,-0.0014600000000000168,-0.0029199999999999227,-0.0025599999999998957,1742259799.993954
0.135,-0.47,0.06000000000000005,-0.0006199999999999539,0.002080000000000082,-0.0032999999999999696,0.014999999999999902,0.49,0.09499999999999997,-0.0018400000000000638,-0.0012199999999999989,-0.0012199999999999989,1742259800.106457
0.1299999999999999,-0.475,0.06000000000000005,-0.0007399999999999629,-0.0029199999999999227,-0.006960000000000077,0.014999999999999902,0.49,0.09499999999999997,-0.005619999999999958,0.0030599999999998406,-0.0031799999999999606,1742259800.220584
0.1299999999999999,-0.48,0.06000000000000005,-0.002080000000000082,-0.0041599999999999415,-0.006220000000000003,0.020000000000000018,0.49,0.09499999999999997,-0.0035399999999999876,0.0034199999999999786,-0.0040200000000000236,1742259800.334579
0.125,-0.475,0.06499999999999995,-0.0031799999999999606,0.00048000000000003595,-0.006220000000000003,0.02499999999999991,0.49,0.09499999999999997,-0.005120000000000013,0.0029200000000000337,-0.0046399999999999775,1742259800.453716
0.1200000000000001,-0.48,0.06499999999999995,-0.0012199999999999989,0.0024399999999999977,-0.008539999999999992,0.030000000000000027,0.49,0.09000000000000008,-0.00660000000000005,-0.0009799999999999809,-0.0030599999999999516,1742259800.562461
0.1200000000000001,-0.475,0.06499999999999995,0.0006200000000000649,0.004999999999999893,-0.005120000000000013,0.030000000000000027,0.4950000000000001,0.08499999999999996,-0.005120000000000013,-0.0050000000000000044,-0.0042799999999999505,1742259800.6769228
0.11499999999999999,-0.475,0.06000000000000005,0.009879999999999889,0.0023200000000000998,-0.005859999999999976,0.02499999999999991,0.4950000000000001,0.08000000000000007,-0.010619999999999963,-0.0048799999999999955,0.0015800000000001369,1742259800.7936409
0.10499999999999998,-0.475,0.05499999999999994,0.016839999999999966,-0.0015800000000000258,0.00011999999999989797,0.030000000000000027,0.49,0.07000000000000006,-0.009279999999999955,-0.005499999999999949,0.01305999999999985,1742259800.903331
0.1100000000000001,-0.48,0.04499999999999993,0.01415999999999995,0.0009799999999999809,-0.00036000000000002697,0.020000000000000018,0.5,0.06499999999999995,-0.018179999999999974,-0.0026799999999999047,0.008539999999999992,1742259801.0163882
0.11499999999999999,-0.48,0.040000000000000036,0.007200000000000095,0.007560000000000011,-0.0012199999999999989,0.014999999999999902,0.4950000000000001,0.05499999999999994,-0.006960000000000077,-0.008179999999999965,0.005239999999999911,1742259801.1347892
0.11499999999999999,-0.475,0.04499999999999993,0.0031799999999999606,0.008539999999999992,0.00048000000000003595,0.014999999999999902,0.4950000000000001,0.05499999999999994,-0.005240000000000022,-0.0037800000000000056,0.0019599999999999618,1742259801.244254
0.11499999999999999,-0.48,0.03499999999999992,0.008179999999999854,0.00048000000000003595,0.0013400000000001189,0.010000000000000009,0.5049999999999999,0.050000000000000044,-0.006099999999999994,0.0035399999999998766,0.0045200000000000795,1742259801.357289
0.11499999999999999,-0.485,0.03499999999999992,0.005859999999999976,-0.0047599999999999865,0.0019599999999999618,0.010000000000000009,0.5,0.050000000000000044,-0.0042799999999999505,0.005120000000000013,0.0035399999999998766,1742259801.472586
0.11499999999999999,-0.48,0.030000000000000027,0.004999999999999893,-0.0050000000000000044,0.0014600000000000168,0.010000000000000009,0.5,0.04499999999999993,-0.0013400000000000079,0.0024399999999999977,0.0032999999999998586,1742259801.583228
0.11499999999999999,-0.48,0.030000000000000027,0.0032999999999998586,-0.0032999999999999696,0.001100000000000101,0.004999999999999893,0.5,0.050000000000000044,-0.002080000000000082,0.002080000000000082,0.0021999999999999797,1742259801.6965098
0.11499999999999999,-0.48,0.02499999999999991,0.0046399999999999775,-0.00024000000000001798,0.00011999999999989797,0.004999999999999893,0.5,0.050000000000000044,-0.0032999999999999696,0.00048000000000003595,0.0048799999999999955,1742259801.813005
0.1200000000000001,-0.48,0.02499999999999991,0.001100000000000101,0.0018400000000000638,0.00011999999999989797,0.004999999999999893,0.4950000000000001,0.050000000000000044,0.0006200000000000649,-0.0026799999999999047,0.0031799999999999606,1742259801.924368
0.1200000000000001,-0.47,0.030000000000000027,-0.007080000000000086,0.0030599999999998406,0.0040199999999999125,0.004999999999999893,0.5,0.05499999999999994,0.011360000000000037,-0.006099999999999994,-0.0012199999999999989,1742259802.03852
0.1200000000000001,-0.4650000000000001,0.03499999999999992,-0.006460000000000021,0.0025599999999998957,-0.002080000000000082,0.004999999999999893,0.49,0.05499999999999994,0.010620000000000074,-0.009759999999999991,-0.0018400000000000638,1742259802.155937
0.1200000000000001,-0.485,0.03499999999999992,-0.0023200000000000998,-0.009399999999999964,0.006340000000000012,0.010000000000000009,0.51,0.06000000000000005,0.019160000000000066,-0.0009799999999999809,-0.01085999999999998,1742259802.266402
0.1200000000000001,-0.48,0.040000000000000036,-0.0043999999999999595,-0.007200000000000095,0.005740000000000078,0.014999999999999902,0.4849999999999999,0.07000000000000006,0.013919999999999932,-0.0035399999999999876,-0.010000000000000009,1742259802.380474
0.125,-0.485,0.040000000000000036,-0.013799999999999923,-0.009519999999999973,0.01195999999999997,0.014999999999999902,0.5,0.06499999999999995,0.023440000000000127,-0.0026799999999999047,-0.019399999999999973,1742259802.494354
0.135,-0.49,0.050000000000000044,-0.019540000000000002,-0.013679999999999914,0.01990000000000003,0.02499999999999991,0.4950000000000001,0.08499999999999996,0.028799999999999937,-0.006340000000000012,-0.021360000000000046,1742259802.608383
0.135,-0.48,0.06499999999999995,-0.01537999999999995,-0.014900000000000024,0.013299999999999867,0.040000000000000036,0.4849999999999999,0.09499999999999997,0.022460000000000147,-0.008179999999999965,-0.017940000000000067,1742259802.722359
0.135,-0.4650000000000001,0.07000000000000006,-0.023799999999999932,-0.015139999999999931,0.017819999999999947,0.050000000000000044,0.4950000000000001,0.10499999999999998,0.031500000000000083,0.0012199999999999989,-0.02076,1742259802.836386
0.1499999999999999,-0.45500000000000007,0.08499999999999996,-0.02415999999999996,-0.012319999999999998,0.02307999999999999,0.05499999999999994,0.47,0.125,0.03272000000000008,0.011840000000000073,-0.01537999999999995,1742259802.9526532
0.15999999999999992,-0.44500000000000006,0.10000000000000009,0.0013400000000001189,-0.0040200000000000236,0.009279999999999955,0.06000000000000005,0.44999999999999996,0.135,0.0031799999999999606,0.016240000000000032,0.00865999999999989,1742259803.064237
0.17999999999999994,-0.48,0.09000000000000008,0.0019599999999999618,0.00024000000000001798,0.007200000000000095,0.04499999999999993,0.49,0.135,-0.0045199999999999685,0.02442000000000011,0.01195999999999997,1742259803.178153
0.15999999999999992,-0.43500000000000005,0.08000000000000007,0.009039999999999937,-0.005979999999999985,-0.0022000000000000908,0.050000000000000044,0.44999999999999996,0.125,-0.007440000000000002,0.02320000000000011,0.008539999999999992,1742259803.29269
0.15500000000000003,-0.45999999999999996,0.07000000000000006,0.014040000000000052,-0.0034199999999999786,-0.0030599999999999516,0.04499999999999993,0.5049999999999999,0.1100000000000001,-0.01770000000000005,0.010259999999999936,0.01110000000000011,1742259803.405343
0.15500000000000003,-0.45999999999999996,0.07000000000000006,0.013539999999999885,0.0025599999999998957,-0.0012199999999999989,0.04499999999999993,0.4849999999999999,0.10000000000000009,-0.01978000000000002,0.008299999999999974,0.01195999999999997,1742259803.519231
0.1499999999999999,-0.4650000000000001,0.06000000000000005,0.01868000000000003,0.0034199999999999786,-0.007940000000000058,0.03499999999999992,0.48,0.08499999999999996,-0.03210000000000002,0.009039999999999937,0.01648000000000005,1742259803.634214
0.1499999999999999,-0.485,0.050000000000000044,0.007319999999999993,-0.0045199999999999685,-0.0034199999999999786,0.030000000000000027,0.5,0.07000000000000006,-0.020139999999999936,0.0015800000000001369,0.006099999999999994,1742259803.75165
0.1499999999999999,-0.475,0.050000000000000044,-0.0031799999999999606,0.005120000000000013,-0.00048000000000003595,0.030000000000000027,0.5049999999999999,0.06499999999999995,-0.0022000000000000908,-0.0009799999999999809,-0.0007399999999999629,1742259803.861384
0.15500000000000003,-0.4650000000000001,0.04499999999999993,0.0019599999999999618,-0.0017000000000000348,0.0006200000000000649,0.020000000000000018,0.4950000000000001,0.07000000000000006,0.007560000000000011,0.006099999999999994,-0.0046399999999999775,1742259803.9752982
0.1499999999999999,-0.47,0.04499999999999993,0.015020000000000033,-0.00770000000000004,0.00011999999999989797,0.02499999999999991,0.4950000000000001,0.07000000000000006,0.005619999999999958,0.006340000000000012,-0.0025599999999998957,1742259804.0927172
0.1499999999999999,-0.45999999999999996,0.03499999999999992,0.020999999999999908,-0.006960000000000077,-0.00024000000000001798,0.02499999999999991,0.4750000000000001,0.08000000000000007,0.02293999999999996,-0.009159999999999946,0.01097999999999999,1742259804.203325
0.1499999999999999,-0.4650000000000001,0.02499999999999991,0.014899999999999913,-0.0025599999999998957,-0.005240000000000022,0.020000000000000018,0.4950000000000001,0.09000000000000008,0.00024000000000001798,0.006960000000000077,-0.0012199999999999989,1742259804.317364
0.1499999999999999,-0.47,0.02499999999999991,0.00537999999999994,-0.006460000000000021,-0.0075599999999999,0.02499999999999991,0.49,0.08499999999999996,-0.0031799999999999606,-0.006099999999999994,-0.0023200000000000998,1742259804.432477
0.15500000000000003,-0.4650000000000001,0.040000000000000036,0.0029200000000000337,-0.0075599999999999,-0.008539999999999992,0.030000000000000027,0.48,0.10000000000000009,-0.006099999999999994,-0.005499999999999949,-0.00878000000000001,1742259804.545393
0.1299999999999999,-0.49,0.020000000000000018,0.009519999999999973,0.014780000000000015,-0.018440000000000012,0.04499999999999993,0.5,0.09000000000000008,-0.026619999999999977,-0.01317999999999997,0.006960000000000077,1742259804.659285
