L-AccX,L-AccY,L-AccZ,L-GyrX,L-GyrY,L-GyrZ,R-AccX,R-AccY,R-AccZ,R-GyrX,R-GyrY,R-GyrZ,timestamp
-0.020000000000000018,0.22999999999999998,-0.405,-0.01317999999999997,0.15173999999999999,-0.25683999999999996,0.10000000000000009,-0.08999999999999997,-0.44999999999999996,-0.045539999999999914,0.09570000000000012,0.2020200000000001,1742238494.680648
0.08000000000000007,0.125,-0.42500000000000004,-0.03808,0.11548000000000003,-0.07531999999999994,0.10499999999999998,0.1200000000000001,-0.54,-0.03210000000000002,0.07006000000000001,-0.19274000000000002,1742238494.8001652
-0.06000000000000005,0.06499999999999995,-0.585,0.04468000000000005,-0.047719999999999985,0.30113999999999996,-0.4,-0.545,-0.35,0.23473999999999995,-0.35131999999999997,-0.57678,1742238494.920811
-0.41500000000000004,0.76,-0.36,-0.18835999999999997,-0.28857999999999995,0.2439,-0.27,-0.45500000000000007,-0.43500000000000005,-0.12902000000000002,0.09777999999999998,0.33031999999999995,1742238495.017905
-0.10499999999999998,0.30499999999999994,-0.33000000000000007,0.0907,0.11146000000000011,-0.3505799999999999,-0.05500000000000005,-0.19999999999999996,-0.42500000000000004,-0.11009999999999998,0.1277999999999999,0.39954,1742238495.137784
0.02499999999999991,0.17500000000000004,-0.345,0.016839999999999966,0.16468000000000016,-0.2785599999999999,0.1299999999999999,-0.06000000000000005,-0.39,-0.047719999999999985,0.11976000000000009,0.2913800000000002,1742238495.2569668
0.08000000000000007,0.08000000000000007,-0.475,-0.028940000000000077,0.1579600000000001,-0.0916800000000001,0.19999999999999996,0.21500000000000008,-0.615,0.07153999999999994,0.034660000000000135,-0.20362000000000002,1742238495.372397
-0.040000000000000036,-0.030000000000000027,-0.625,0.06933999999999996,-0.22546,0.46276000000000006,-0.505,-0.625,-0.33000000000000007,0.29003999999999985,-0.5473600000000001,-0.78088,1742238495.47387
-0.515,0.8599999999999999,-0.36,-0.18774000000000002,-0.33094,0.23729999999999984,-0.18999999999999995,-0.36,-0.355,-0.2928399999999999,0.24048000000000003,0.48631999999999986,1742238495.58773
-0.03500000000000003,0.29499999999999993,-0.38,0.0932599999999999,0.21838000000000002,-0.3308199999999999,0.07499999999999996,-0.06499999999999995,-0.48,-0.13537999999999994,0.16492000000000018,0.4205399999999999,1742238495.701674
0.10499999999999998,0.135,-0.405,0.020499999999999963,0.11827999999999994,-0.22777999999999998,0.24,0.06000000000000005,-0.39,0.10364000000000018,-0.0029199999999999227,-0.08165999999999995,1742238495.8219662
0.14500000000000002,-0.04500000000000004,-0.44999999999999996,-0.07728000000000002,0.08484000000000003,0.10265999999999997,-0.050000000000000044,0.06499999999999995,-0.585,0.08203999999999989,-0.13073999999999997,-0.6015599999999999,1742238495.9404318
-0.3400000000000001,0.30000000000000004,-0.495,-0.047719999999999985,-0.2804,0.68506,-0.56,-0.855,-0.54,0.008920000000000039,-0.0675,-0.0514,1742238496.058877
-0.395,0.75,-0.385,0.2756399999999999,-0.023559999999999914,-0.29052,-0.10499999999999998,-0.17000000000000004,-0.5,-0.16649999999999998,0.16468000000000016,0.4586199999999998,1742238496.157766
-0.025000000000000022,0.22999999999999998,-0.385,0.09864000000000006,0.18211999999999984,-0.37964,0.10499999999999998,-0.0050000000000000044,-0.41500000000000004,-0.20787999999999995,0.20799999999999996,0.38561999999999985,1742238496.276938
0.07499999999999996,0.1100000000000001,-0.42500000000000004,0.054200000000000026,0.18396000000000012,-0.20472,0.26,0.030000000000000027,-0.43500000000000005,-0.07347999999999999,0.037959999999999994,-0.05358000000000007,1742238496.397076
0.050000000000000044,0.0,-0.57,0.040039999999999853,0.10596000000000005,0.16393999999999997,-0.28,-0.19999999999999996,-0.54,0.19628,-0.41601999999999995,-0.7221599999999999,1742238496.499876
-0.4099999999999999,0.43999999999999995,-0.29499999999999993,-0.31128,-0.47474000000000005,0.6457599999999999,-0.5,-0.9,-0.4650000000000001,-0.07763999999999993,-0.008419999999999983,0.13294000000000006,1742238496.618093
-0.35,0.6299999999999999,-0.345,0.34826,0.14501999999999993,-0.3983199999999999,-0.08999999999999997,-0.16500000000000004,-0.495,-0.11634,0.18798000000000004,0.44018,1742238496.736801
-0.010000000000000009,0.19500000000000006,-0.4099999999999999,0.05188000000000015,0.15161999999999987,-0.3136,0.14500000000000002,0.02499999999999991,-0.43500000000000005,-0.07347999999999999,0.10875999999999997,0.2070399999999999,1742238496.841432
0.10000000000000009,0.06000000000000005,-0.43999999999999995,0.009640000000000093,0.10461999999999994,-0.07201999999999997,0.135,-0.020000000000000018,-0.49,0.0043999999999999595,-0.009279999999999955,-0.22718000000000005,1742238496.958742
-0.020000000000000018,0.05499999999999994,-0.52,-0.024899999999999922,-0.07811999999999997,0.31666000000000016,-0.4099999999999999,-0.52,-0.45500000000000007,0.07654000000000005,-0.36976,-0.66528,1742238497.078567
-0.45500000000000007,0.6800000000000002,-0.44500000000000006,-0.35474000000000006,-0.4766800000000001,0.5385799999999998,-0.25,-0.595,-0.32000000000000006,-0.20020000000000004,0.11268000000000011,0.2832000000000001,1742238497.1836312
-0.16500000000000004,0.33000000000000007,-0.27,0.24316000000000004,0.2255799999999999,-0.41759999999999997,-0.05500000000000005,-0.17999999999999994,-0.475,-0.06286000000000003,0.2721,0.40026000000000006,1742238497.297668
-0.010000000000000009,0.17999999999999994,-0.43999999999999995,0.07922000000000007,0.28613999999999984,-0.29857999999999996,0.05499999999999994,-0.16500000000000004,-0.42500000000000004,-0.1804199999999999,0.22486000000000006,0.21411999999999987,1742238497.416248
0.08000000000000007,0.09000000000000008,-0.45500000000000007,0.043460000000000054,0.10949999999999993,-0.04479999999999995,0.07000000000000006,-0.13,-0.45999999999999996,-0.035519999999999996,-0.11438000000000004,-0.33472,1742238497.53811
-0.09499999999999997,0.15500000000000003,-0.55,-0.006960000000000077,-0.13585999999999998,0.3626800000000001,-0.43999999999999995,-0.535,-0.42500000000000004,0.43018,-0.64124,-0.74842,1742238497.63975
-0.44999999999999996,0.7050000000000001,-0.375,-0.30676000000000003,-0.55078,0.43933999999999984,-0.235,-0.44500000000000006,-0.36,-0.19689999999999996,0.09935999999999989,0.3219000000000001,1742238497.759593
-0.10999999999999999,0.30499999999999994,-0.235,0.22070000000000012,0.2806399999999998,-0.37561999999999995,-0.17500000000000004,-0.275,-0.5,-0.4867,0.5341799999999999,0.5528600000000001,1742238497.876075
-0.135,0.22999999999999998,-0.51,0.14647999999999994,0.4483600000000001,-0.2854,0.020000000000000018,-0.21999999999999997,-0.515,-0.54602,0.4449400000000001,0.3802399999999999,1742238497.995756
0.04499999999999993,0.135,-0.43500000000000005,0.04051999999999989,0.00048000000000003595,0.04283999999999999,0.06499999999999995,-0.15000000000000002,-0.33000000000000007,0.5064600000000001,-0.57886,-0.5684800000000001,1742238498.0963142
-0.18500000000000005,0.21999999999999997,-0.51,-0.13829999999999998,-0.28001999999999994,0.46398000000000006,-0.44999999999999996,-0.69,-0.615,0.7032400000000001,-0.5794600000000001,-0.68018,1742238498.215818
-0.4650000000000001,0.81,-0.485,-0.15942,-0.42125999999999997,0.2204600000000001,-0.16000000000000003,-0.4099999999999999,-0.36,-0.19152000000000002,0.10777999999999999,0.30298,1742238498.323565
-0.09999999999999998,0.32000000000000006,-0.2849999999999999,0.3135999999999999,0.2880799999999999,-0.4205399999999999,-0.18500000000000005,-0.30000000000000004,-0.5,-0.72912,0.72254,0.54834,1742238498.43792
-0.050000000000000044,0.2549999999999999,-0.45500000000000007,0.2549999999999999,0.4510399999999999,-0.29236000000000006,0.1499999999999999,-0.21499999999999997,-0.265,-0.11756,0.06347999999999998,0.10694000000000004,1742238498.5569322
0.06499999999999995,0.2250000000000001,-0.4,0.014399999999999968,0.01550000000000007,0.07714000000000021,-0.09499999999999997,-0.16500000000000004,-0.43500000000000005,0.8365400000000001,-0.70874,-0.7013,1742238498.676379
-0.18999999999999995,0.2650000000000001,-0.5,-0.2865,-0.51612,0.5044000000000002,-0.33000000000000007,-0.58,-0.565,0.06788000000000016,-0.13366,-0.21398000000000006,1742238498.779768
-0.4650000000000001,0.925,-0.365,-0.19628,-0.16088000000000002,0.13636000000000004,-0.17999999999999994,-0.39,-0.4099999999999999,-0.4054,0.34033999999999986,0.4042999999999999,1742238498.8952231
-0.10499999999999998,0.30000000000000004,-0.36,0.06042000000000014,0.2427999999999999,-0.31994,-0.10999999999999999,-0.33499999999999996,-0.41500000000000004,-0.48363999999999996,0.50366,0.42028,1742238499.0155652
0.02499999999999991,0.09499999999999997,-0.4650000000000001,-0.10521999999999998,0.08874000000000004,-0.14148000000000005,0.10499999999999998,-0.26,-0.2849999999999999,-0.22533999999999998,0.13354,0.14136000000000015,1742238499.1376588
0.020000000000000018,0.030000000000000027,-0.5,-0.12438000000000005,-0.04259999999999997,0.22631999999999985,-0.14,-0.21999999999999997,-0.525,1.0,-0.87866,-0.8460599999999999,1742238499.235869
-0.24,0.16999999999999993,-0.555,-0.03272000000000008,-0.15796,0.5181799999999999,-0.37,-0.68,-0.53,-0.11485999999999996,-0.023440000000000016,-0.018179999999999974,1742238499.349866
-0.38,0.6800000000000002,-0.355,0.2072799999999999,-0.06884000000000001,-0.21058,-0.17500000000000004,-0.31000000000000005,-0.41500000000000004,-0.51196,0.4536199999999999,0.47840000000000016,1742238499.477957
-0.08999999999999997,0.14000000000000012,-0.35,0.12683999999999984,0.32386000000000004,-0.46142000000000005,0.040000000000000036,-0.20999999999999996,-0.38,-0.38208,0.4312799999999999,0.35277999999999987,1742238499.5776
0.050000000000000044,0.08499999999999996,-0.52,-0.05003999999999997,0.11170000000000013,-0.08850000000000002,0.08000000000000007,-0.17500000000000004,-0.395,0.34704,-0.20484000000000002,-0.24938000000000005,1742238499.696793
0.010000000000000009,0.1100000000000001,-0.51,-0.058479999999999976,-0.08936,0.23619999999999997,-0.27,-0.265,-0.56,0.4986600000000001,-0.42896,-0.71082,1742238499.818219
-0.375,0.4849999999999999,-0.4099999999999999,-0.10363999999999995,-0.38672000000000006,0.5497999999999998,-0.235,-0.515,-0.44999999999999996,-0.13172000000000006,-0.05884,0.08704,1742238499.919654
-0.22999999999999998,0.42999999999999994,-0.29000000000000004,0.3219000000000001,0.2129000000000001,-0.41564,-0.20999999999999996,-0.31000000000000005,-0.45500000000000007,-0.6591799999999999,0.6205999999999998,0.53942,1742238500.037817
-0.07499999999999996,0.15999999999999992,-0.44500000000000006,0.13793999999999995,0.4091800000000001,-0.32787999999999995,0.04499999999999993,-0.32499999999999996,-0.395,-0.51,0.43384,0.39148000000000005,1742238500.1554089
0.06499999999999995,0.135,-0.495,-0.04515999999999998,0.04944000000000015,0.008920000000000039,0.17999999999999994,-0.17000000000000004,-0.21999999999999997,0.27918,-0.3469200000000001,-0.21605999999999992,1742238500.275948
-0.08499999999999996,0.10499999999999998,-0.495,-0.09911999999999999,-0.2525599999999999,0.40527999999999986,-0.395,-0.42999999999999994,-0.635,1.0,-0.86218,-0.85486,1742238500.375794
-0.55,0.7450000000000001,-0.505,-0.2379199999999999,-0.39392000000000005,0.46838,-0.21999999999999997,-0.475,-0.385,-0.18553999999999993,0.06481999999999988,0.23961999999999994,1742238500.4962728
-0.15000000000000002,0.29499999999999993,-0.265,0.22082000000000002,0.22094000000000014,-0.46386000000000005,-0.18500000000000005,-0.33000000000000007,-0.48,-0.73548,0.7167999999999999,0.5466399999999998,1742238500.614572
-0.050000000000000044,0.17999999999999994,-0.53,0.05346000000000006,0.36119999999999997,-0.2841800000000001,0.09499999999999997,-0.30499999999999994,-0.28,-0.40174,0.3283600000000002,0.28503999999999996,1742238500.71751
0.07499999999999996,0.11499999999999999,-0.45500000000000007,0.027700000000000058,0.013299999999999867,-0.006220000000000003,0.030000000000000027,-0.25,-0.36,0.6546599999999998,-0.5587200000000001,-0.50184,1742238500.838839
-0.08999999999999997,0.10499999999999998,-0.54,-0.14085999999999999,-0.28186,0.46019999999999994,-0.37,-0.5,-0.595,0.49353999999999987,-0.4251800000000001,-0.59754,1742238500.9555
-0.41500000000000004,0.77,-0.43999999999999995,-0.18128,-0.35046,0.32520000000000016,-0.20499999999999996,-0.44500000000000006,-0.385,-0.2924800000000001,0.17042000000000002,0.30518,1742238501.075807
-0.16000000000000003,0.31499999999999995,-0.33000000000000007,0.2552399999999999,0.27159999999999984,-0.4461600000000001,-0.13,-0.345,-0.405,-0.55494,0.6119400000000002,0.46130000000000004,1742238501.1762938
-0.015000000000000013,0.17999999999999994,-0.4650000000000001,0.09620000000000006,0.3123800000000001,-0.27698,0.125,-0.255,-0.25,-0.15881999999999996,0.1299999999999999,0.14246000000000003,1742238501.2967849
0.030000000000000027,0.15500000000000003,-0.42500000000000004,-0.03760000000000008,-0.03858000000000006,0.10583999999999993,-0.07999999999999996,-0.265,-0.39,0.7111799999999999,-0.56982,-0.6064400000000001,1742238501.415224
-0.15500000000000003,0.14000000000000012,-0.505,-0.13794000000000006,-0.31666000000000005,0.4876800000000001,-0.35,-0.53,-0.6,0.1876199999999999,-0.29212000000000005,-0.3250799999999999,1742238501.5166988
-0.44500000000000006,0.8,-0.48,-0.16064,-0.27088,0.14623999999999993,-0.15500000000000003,-0.32000000000000006,-0.365,-0.1596599999999999,0.17053999999999991,0.29688000000000003,1742238501.63666
-0.09999999999999998,0.27,-0.39,0.05797999999999992,0.14769999999999994,-0.2826000000000001,-0.14,-0.24,-0.52,-0.4174800000000001,0.4901199999999999,0.4830399999999999,1742238501.757055
-0.050000000000000044,0.18999999999999995,-0.45500000000000007,0.15992000000000006,0.3172600000000001,-0.3186,0.03499999999999992,-0.26,-0.38,-0.3496,0.2525599999999999,0.29346000000000005,1742238501.8575108
0.07499999999999996,0.08499999999999996,-0.48,0.01428000000000007,0.0908199999999999,-0.11351999999999995,-0.07000000000000006,-0.19500000000000006,-0.405,0.44409999999999994,-0.50232,-0.52258,1742238501.974836
-0.05500000000000005,0.135,-0.54,0.02526000000000006,-0.20020000000000004,0.3432599999999999,-0.30499999999999994,-0.53,-0.41500000000000004,0.36961999999999984,-0.36926000000000003,-0.4394600000000001,1742238502.095281
-0.395,0.9550000000000001,-0.345,-0.44958,-0.26,0.32128,-0.265,-0.41999999999999993,-0.405,-0.24024,0.2768600000000001,0.42211999999999983,1742238502.214268
-0.17000000000000004,0.22999999999999998,-0.4650000000000001,0.21888000000000019,0.23509999999999986,-0.48560000000000003,-0.050000000000000044,-0.19999999999999996,-0.4650000000000001,-0.04613999999999996,0.26270000000000016,0.31066000000000016,1742238502.317973
0.040000000000000036,0.10499999999999998,-0.44500000000000006,0.052240000000000064,0.13196000000000008,-0.23096000000000005,0.014999999999999902,-0.10499999999999998,-0.51,0.07579999999999987,0.011719999999999953,0.0037799999999998946,1742238502.434894
0.014999999999999902,0.1200000000000001,-0.49,0.006340000000000012,-0.026120000000000032,0.07457999999999987,-0.14,-0.09499999999999997,-0.52,0.20629999999999993,-0.34912,-0.47546,1742238502.555726
-0.19500000000000006,0.2250000000000001,-0.42999999999999994,-0.016240000000000032,-0.2878399999999999,0.51708,-0.255,-0.41999999999999993,-0.48,0.09558,-0.27136000000000005,-0.26246,1742238502.656887
-0.375,0.74,-0.4,-0.1764,-0.10096000000000005,0.18640000000000012,-0.18500000000000005,-0.365,-0.405,-0.3379,0.34558,0.41456000000000004,1742238502.775518
-0.20999999999999996,0.32000000000000006,-0.405,0.16296,0.27990000000000004,-0.48450000000000004,-0.08999999999999997,-0.17999999999999994,-0.51,-0.40662,0.5426,0.52942,1742238502.894345
-0.03500000000000003,0.14500000000000002,-0.495,0.06957999999999998,0.18066000000000004,-0.28466000000000014,0.050000000000000044,-0.18500000000000005,-0.41500000000000004,0.03233999999999981,-0.035519999999999996,-0.008919999999999928,1742238502.997568
0.030000000000000027,0.16999999999999993,-0.42500000000000004,-0.06811999999999996,-0.09423999999999999,0.20996000000000015,-0.15500000000000003,-0.15500000000000003,-0.45500000000000007,0.39050000000000007,-0.44555999999999996,-0.61376,1742238503.115106
-0.22999999999999998,0.2849999999999999,-0.505,-0.026859999999999995,-0.3244600000000001,0.48156,-0.37,-0.48,-0.56,0.27368000000000015,-0.37598,-0.43176000000000003,1742238503.2337978
-0.275,0.75,-0.33499999999999996,-0.06298000000000004,-0.2118,0.11743999999999999,-0.18999999999999995,-0.39,-0.375,-0.37512,0.2827200000000001,0.4073399999999998,1742238503.352984
-0.09999999999999998,0.28,-0.33499999999999996,0.13159999999999994,0.34277999999999986,-0.38086,-0.09999999999999998,-0.26,-0.49,-0.42712000000000006,0.5252600000000001,0.45263999999999993,1742238503.4540632
0.004999999999999893,0.18500000000000005,-0.48,-0.008299999999999974,0.16515999999999997,-0.18128,0.07000000000000006,-0.20499999999999996,-0.375,0.05054000000000003,0.04296000000000011,0.08153999999999995,1742238503.574235
0.03499999999999992,0.17999999999999994,-0.45500000000000007,0.013679999999999914,0.006720000000000059,0.05285999999999991,-0.14500000000000002,-0.17000000000000004,-0.505,0.7354799999999999,-0.6267,-0.7348600000000001,1742238503.6945548
-0.13,0.22999999999999998,-0.5,0.06982,-0.2525599999999999,0.35753999999999997,-0.255,-0.45500000000000007,-0.5,0.009640000000000093,-0.11205999999999994,-0.18420000000000003,1742238503.796368
-0.32499999999999996,0.78,-0.21999999999999997,-0.2955399999999999,-0.20240000000000002,0.13256,-0.18500000000000005,-0.42999999999999994,-0.39,-0.25098,0.25634,0.3219000000000001,1742238503.914207
-0.19500000000000006,0.385,-0.31000000000000005,0.18676000000000004,0.3064,-0.46374000000000004,-0.09999999999999998,-0.24,-0.475,-0.27674,0.4587399999999999,0.47486000000000006,1742238504.034613
-0.010000000000000009,0.16500000000000004,-0.45999999999999996,0.05711999999999984,0.25927999999999995,-0.38403999999999994,0.11499999999999999,0.0,-0.54,0.09522000000000008,-0.017220000000000013,0.02075999999999989,1742238504.1373298
0.004999999999999893,0.014999999999999902,-0.595,0.011360000000000037,0.033320000000000016,0.08055999999999996,-0.235,-0.09499999999999997,-0.49,0.3824400000000001,-0.43188000000000004,-0.79786,1742238504.256604
-0.2849999999999999,0.4099999999999999,-0.35,0.052240000000000064,-0.3686600000000001,0.5995999999999999,-0.3400000000000001,-0.63,-0.49,-0.057499999999999996,-0.12097999999999998,0.006460000000000132,1742238504.374308
-0.345,0.8700000000000001,-0.25,0.016000000000000014,-0.048960000000000004,-0.13624000000000003,-0.21999999999999997,-0.33000000000000007,-0.4,-0.54382,0.5286799999999998,0.5290599999999999,1742238504.4948769
-0.09499999999999997,0.2549999999999999,-0.345,0.0942400000000001,0.3794000000000002,-0.39257999999999993,-0.06000000000000005,-0.22499999999999998,-0.45500000000000007,-0.20362000000000002,0.44178000000000006,0.4273600000000002,1742238504.596842
0.04499999999999993,0.11499999999999999,-0.505,0.022340000000000027,0.17211999999999983,-0.19544000000000006,0.030000000000000027,-0.17000000000000004,-0.48,0.04723999999999995,-0.01978000000000002,-0.040899999999999936,1742238504.715641
0.03499999999999992,0.15500000000000003,-0.47,-0.01648000000000005,-0.14989999999999992,0.24731999999999998,-0.265,-0.245,-0.4099999999999999,0.48631999999999986,-0.6630800000000001,-0.82812,1742238504.8214772
-0.275,0.4650000000000001,-0.3400000000000001,-0.04577999999999993,-0.47338,0.53552,-0.35,-0.645,-0.54,0.0024399999999999977,-0.10498000000000007,-0.04467999999999994,1742238504.935526
-0.31000000000000005,0.76,-0.2849999999999999,0.09289999999999998,0.04381999999999997,-0.18431999999999993,-0.17999999999999994,-0.33499999999999996,-0.405,-0.36072000000000004,0.4253,0.51136,1742238505.049494
-0.09499999999999997,0.2849999999999999,-0.35,0.15002000000000004,0.41028,-0.38683999999999996,-0.09499999999999997,-0.16500000000000004,-0.555,-0.20850000000000002,0.38476,0.40759999999999996,1742238505.176708
0.004999999999999893,0.16500000000000004,-0.55,0.05896000000000012,0.2032400000000001,-0.19311999999999996,0.06000000000000005,-0.135,-0.43500000000000005,-0.04394000000000009,-0.11584000000000005,-0.11253999999999997,1742238505.277534
0.0,0.19500000000000006,-0.45500000000000007,0.0006200000000000649,-0.20263999999999993,0.2441399999999998,-0.18500000000000005,-0.17999999999999994,-0.475,0.45433999999999997,-0.5820399999999999,-0.79992,1742238505.398876
-0.28,0.5,-0.27,-0.21192,-0.5803200000000001,0.5497999999999998,-0.345,-0.615,-0.47,-0.06347999999999998,-0.15942,-0.04283999999999999,1742238505.5171
-0.2849999999999999,0.635,-0.33499999999999996,0.24829999999999997,0.13928000000000007,-0.26061999999999996,-0.07499999999999996,-0.19999999999999996,-0.38,-0.10339999999999994,0.2508600000000001,0.3531399999999998,1742238505.6214342
-0.04500000000000004,0.21999999999999997,-0.42999999999999994,-0.08716000000000002,0.2622,-0.22655999999999998,0.004999999999999893,-0.09499999999999997,-0.515,0.011239999999999917,0.1200000000000001,0.16101999999999994,1742238505.735245
0.02499999999999991,0.11499999999999999,-0.495,0.009279999999999955,0.10314000000000001,-0.09227999999999992,0.06499999999999995,0.014999999999999902,-0.515,0.10961999999999983,-0.09789999999999999,-0.20350000000000001,1742238505.85565
-0.030000000000000027,0.1200000000000001,-0.49,-0.04589999999999994,-0.12279999999999991,0.29845999999999995,-0.21999999999999997,-0.26,-0.515,0.03222000000000014,-0.21374000000000004,-0.48646,1742238505.9762409
-0.30499999999999994,0.5449999999999999,-0.39,-0.14513999999999994,-0.40674,0.43701999999999996,-0.17999999999999994,-0.44500000000000006,-0.44999999999999996,-0.06640000000000001,-0.08520000000000005,0.1468600000000002,1742238506.077504
-0.18999999999999995,0.42500000000000004,-0.33000000000000007,0.26136000000000004,0.1677200000000001,-0.38073999999999997,0.040000000000000036,-0.10999999999999999,-0.4,-0.08129999999999993,0.22473999999999994,0.32044000000000006,1742238506.197279
-0.020000000000000018,0.16500000000000004,-0.48,0.10192000000000001,0.27636000000000016,-0.31238,0.04499999999999993,0.04499999999999993,-0.51,0.05176000000000003,0.14636000000000005,0.16870000000000007,1742238506.318694
0.04499999999999993,0.08499999999999996,-0.49,0.06678000000000006,0.07678000000000007,-0.08728000000000002,0.04499999999999993,0.07000000000000006,-0.55,0.013539999999999885,-0.06603999999999999,-0.31348,1742238506.419347
-0.03500000000000003,0.17999999999999994,-0.48,0.0039000000000000146,-0.14600000000000002,0.34729999999999994,-0.25,-0.43500000000000005,-0.52,0.03833999999999982,-0.25805999999999996,-0.3448399999999999,1742238506.537005
-0.31499999999999995,0.6600000000000001,-0.395,-0.245,-0.4051600000000001,0.3431399999999998,-0.17999999999999994,-0.35,-0.405,-0.18628,0.14344,0.32618000000000014,1742238506.6565278
-0.125,0.3700000000000001,-0.29000000000000004,0.23351999999999995,0.2641600000000002,-0.42846000000000006,-0.04500000000000004,-0.015000000000000013,-0.49,-0.14734000000000003,0.3994200000000001,0.48497999999999997,1742238506.777909
-0.030000000000000027,0.14000000000000012,-0.51,0.04735999999999985,0.32958,-0.30126,0.06000000000000005,-0.09499999999999997,-0.45999999999999996,-0.21496000000000004,0.2020200000000001,0.24878,1742238506.87535
0.07000000000000006,0.10000000000000009,-0.4650000000000001,-0.06128,-0.05688000000000004,0.10509999999999997,-0.0050000000000000044,-0.04500000000000004,-0.495,0.4173600000000002,-0.2791800000000001,-0.5492,1742238506.998698
-0.12,0.10499999999999998,-0.47,-0.08520000000000005,-0.13172000000000006,0.45300000000000007,-0.355,-0.555,-0.595,0.15417999999999998,-0.26561999999999997,-0.5917999999999999,1742238507.118925
-0.4,0.69,-0.53,-0.13476,-0.24597999999999998,0.2732000000000001,-0.16000000000000003,-0.275,-0.395,-0.12684000000000006,0.09388000000000019,0.33275999999999994,1742238507.217386
-0.16500000000000004,0.32499999999999996,-0.375,0.11194000000000015,0.13050000000000006,-0.37829999999999997,-0.04500000000000004,-0.08999999999999997,-0.4650000000000001,-0.024419999999999997,0.16515999999999997,0.33044000000000007,1742238507.3376498
0.010000000000000009,0.10499999999999998,-0.475,-0.013679999999999914,0.10938000000000003,-0.25158,0.06499999999999995,-0.0050000000000000044,-0.48,0.07116000000000011,0.08311999999999986,0.12609999999999988,1742238507.4568331
0.09000000000000008,0.02499999999999991,-0.45999999999999996,-0.0039000000000000146,0.04027999999999987,-0.04515999999999998,0.02499999999999991,0.02499999999999991,-0.565,-0.024419999999999997,-0.09020000000000006,-0.33166000000000007,1742238507.559364
-0.08499999999999996,0.06000000000000005,-0.515,0.023440000000000127,-0.05920000000000003,0.37548000000000004,-0.22999999999999998,-0.37,-0.475,0.12670000000000003,-0.39222,-0.5488200000000001,1742238507.677331
-0.41999999999999993,0.7850000000000001,-0.475,-0.12012,-0.3051800000000001,0.23072000000000004,-0.12,-0.31000000000000005,-0.4,-0.11268000000000011,0.13050000000000006,0.28723999999999994,1742238507.7953868
-0.05500000000000005,0.2549999999999999,-0.365,0.04699999999999993,0.11938000000000004,-0.33436,-0.03500000000000003,-0.05500000000000005,-0.47,-0.11878,0.27770000000000006,0.40148000000000006,1742238507.917502
0.0,0.11499999999999999,-0.47,0.0307599999999999,0.23658,-0.26073999999999997,0.06000000000000005,-0.010000000000000009,-0.49,-0.02501999999999993,0.12207999999999997,0.11976000000000009,1742238508.0155652
0.05499999999999994,0.04499999999999993,-0.49,0.008419999999999872,0.02844000000000002,0.06335999999999986,-0.05500000000000005,-0.07499999999999996,-0.505,0.05383999999999989,-0.18958000000000008,-0.51014,1742238508.137311
-0.20999999999999996,0.17500000000000004,-0.495,0.028079999999999883,-0.1900599999999999,0.4799800000000001,-0.365,-0.56,-0.48,0.10522000000000009,-0.40979999999999994,-0.35462000000000005,1742238508.258594
-0.405,0.78,-0.45999999999999996,0.10400000000000009,-0.13463999999999998,-0.15222000000000002,-0.11499999999999999,-0.275,-0.36,-0.33838,0.32728,0.4830399999999999,1742238508.357405
-0.015000000000000013,0.19500000000000006,-0.38,0.07946000000000009,0.23863999999999996,-0.37902,-0.025000000000000022,-0.14,-0.485,-0.07103999999999999,0.3123800000000001,0.32445999999999997,1742238508.478156
0.030000000000000027,0.10499999999999998,-0.48,-0.035760000000000014,0.17724000000000006,-0.15501999999999994,0.07000000000000006,-0.10499999999999998,-0.47,0.02307999999999999,0.02844000000000002,-0.04077999999999993,1742238508.596447
0.05499999999999994,0.08000000000000007,-0.47,-0.015859999999999985,-0.02525999999999995,0.1816399999999998,-0.10999999999999999,-0.18999999999999995,-0.515,0.15539999999999998,-0.27588,-0.57398,1742238508.699492
-0.24,0.26,-0.475,0.11206000000000005,-0.32031999999999994,0.48852000000000007,-0.38,-0.62,-0.495,0.10253999999999985,-0.42138,-0.3615799999999999,1742238508.818766
-0.30000000000000004,0.8,-0.35,0.2292400000000001,-0.06640000000000001,-0.22938000000000003,-0.07999999999999996,-0.21999999999999997,-0.39,-0.22387999999999997,0.27088,0.36607999999999996,1742238508.935615
0.04499999999999993,0.20999999999999996,-0.36,-0.019039999999999946,0.29991999999999996,-0.27513999999999994,-0.020000000000000018,-0.12,-0.45500000000000007,-0.07544000000000006,0.32288000000000006,0.3334999999999999,1742238509.042182
-0.010000000000000009,0.19999999999999996,-0.42999999999999994,-0.04259999999999997,-0.13891999999999993,0.26757999999999993,-0.11499999999999999,-0.26,-0.41500000000000004,-0.0916800000000001,-0.17810000000000004,-0.49707999999999997,1742238553.4269671
-0.375,0.585,-0.29000000000000004,-0.2878399999999999,-0.28112000000000004,0.35583999999999993,-0.36,-0.725,-0.41999999999999993,0.013419999999999987,-0.08251999999999993,0.08752000000000004,1742238553.546327
-0.24,0.42500000000000004,-0.33000000000000007,0.07214000000000009,0.09192,-0.29492000000000007,-0.07000000000000006,-0.21499999999999997,-0.355,-0.005739999999999967,0.16881999999999997,0.35863999999999985,1742238553.647089
-0.020000000000000018,0.18500000000000005,-0.385,0.07142000000000004,0.12940000000000018,-0.2993199999999999,0.010000000000000009,-0.125,-0.42500000000000004,0.12047999999999992,0.15405999999999986,0.2459800000000001,1742238553.7608829
0.07000000000000006,0.05499999999999994,-0.485,0.010499999999999954,0.15355999999999992,0.008299999999999974,0.14000000000000012,0.050000000000000044,-0.685,-0.0747000000000001,0.06066000000000016,-0.12622,1742238553.8749802
-0.22999999999999998,0.33499999999999996,-0.44500000000000006,0.05699999999999994,-0.25061999999999995,0.3790199999999999,-0.31000000000000005,-0.73,-0.21499999999999997,0.0025599999999998957,-0.49694000000000005,-0.5324800000000001,1742238553.989117
-0.30499999999999994,0.72,-0.17999999999999994,0.12011999999999978,-0.07177999999999995,-0.08055999999999996,-0.13,-0.45500000000000007,-0.265,-0.2158199999999999,0.25550000000000006,0.38746000000000014,1742238554.108943
-0.050000000000000044,0.30000000000000004,-0.2849999999999999,0.08460000000000001,0.26463999999999976,-0.32287999999999994,0.02499999999999991,-0.050000000000000044,-0.54,-0.06946000000000008,0.22399999999999998,0.17896,1742238554.228794
0.07000000000000006,0.14000000000000012,-0.37,-0.01208000000000009,0.15954000000000002,-0.10399999999999998,0.1100000000000001,-0.040000000000000036,-0.495,-0.05065999999999993,-0.02403999999999995,-0.12524000000000002,1742238554.348225
-0.08999999999999997,0.18999999999999995,-0.605,0.0932599999999999,-0.06628,0.2844200000000001,-0.21999999999999997,-0.32499999999999996,-0.385,-0.028799999999999937,-0.43542000000000003,-0.60144,1742238554.446647
-0.3400000000000001,0.6949999999999998,-0.07499999999999996,-0.036739999999999995,-0.6013200000000001,0.33924,-0.31000000000000005,-0.7,-0.25,-0.07116,-0.03942000000000001,0.08582000000000001,1742238554.559058
-0.09999999999999998,0.43500000000000005,-0.15500000000000003,0.21118000000000015,0.24170000000000003,-0.34424,-0.09499999999999997,-0.25,-0.42999999999999994,-0.25708,0.44384,0.41259999999999986,1742238554.673109
0.04499999999999993,0.2650000000000001,-0.28,0.08752000000000004,0.2813800000000002,-0.20826,0.02499999999999991,-0.17500000000000004,-0.395,-0.11646000000000001,0.16381999999999985,0.21240000000000014,1742238554.786945
0.06000000000000005,0.26,-0.4,-0.09362000000000004,0.054440000000000044,0.10681999999999992,0.03499999999999992,-0.11499999999999999,-0.48,0.03625999999999996,-0.11803999999999992,-0.34594,1742238554.9057438
-0.20499999999999996,0.345,-0.515,-0.12231999999999998,-0.27686,0.49292,-0.41999999999999993,-0.78,-0.265,0.3332599999999999,-0.56836,-0.48596000000000006,1742238555.028917
-0.31499999999999995,0.76,-0.245,-0.08801999999999999,-0.29601999999999995,0.055420000000000025,-0.16500000000000004,-0.4099999999999999,-0.22499999999999998,-0.38805999999999996,0.3003,0.39671999999999996,1742238555.1289809
-0.05500000000000005,0.3599999999999999,-0.25,0.14525999999999994,0.2610999999999999,-0.2833199999999999,-0.030000000000000027,-0.29000000000000004,-0.44999999999999996,0.0015800000000001369,0.19116,0.2314400000000001,1742238555.246445
0.030000000000000027,0.2450000000000001,-0.32499999999999996,0.16223999999999994,0.3038399999999999,-0.18420000000000003,0.050000000000000044,-0.20999999999999996,-0.385,-0.26270000000000004,0.11925999999999992,0.0942400000000001,1742238555.36623
0.004999999999999893,0.2450000000000001,-0.4,-0.04200000000000004,-0.07335999999999998,0.21692,-0.13,-0.265,-0.365,0.08630000000000004,-0.39061999999999997,-0.5195399999999999,1742238555.47105
-0.24,0.585,-0.18999999999999995,-0.25146,-0.5448,0.43066000000000004,-0.44999999999999996,-0.89,-0.30499999999999994,0.19653999999999994,-0.18908000000000003,0.0329600000000001,1742238555.5879118
-0.2849999999999999,0.56,-0.355,0.3444800000000001,0.20263999999999993,-0.39222,-0.09499999999999997,-0.22999999999999998,-0.33499999999999996,-0.06372,0.2963800000000001,0.38817999999999997,1742238555.706175
-0.010000000000000009,0.24,-0.36,0.013679999999999914,0.17101999999999995,-0.20594,0.08000000000000007,-0.16500000000000004,-0.43999999999999995,0.04468000000000005,0.0836199999999998,0.13513999999999982,1742238555.812756
0.040000000000000036,0.25,-0.37,0.20263999999999993,0.13476,-0.04467999999999994,0.10000000000000009,-0.14500000000000002,-0.44999999999999996,-0.02758000000000005,-0.10277999999999998,-0.19091999999999998,1742238555.927071
-0.08499999999999996,0.29000000000000004,-0.39,-0.053340000000000054,-0.21302,0.29211999999999994,-0.31000000000000005,-0.585,-0.265,0.025020000000000042,-0.32287999999999994,-0.47412,1742238556.048407
-0.33499999999999996,0.7,-0.21999999999999997,-0.40662,-0.48804000000000003,0.3055399999999999,-0.20499999999999996,-0.55,-0.28,-0.1593,0.1667400000000001,0.29747999999999997,1742238556.1663911
-0.12,0.33499999999999996,-0.32000000000000006,0.3350799999999998,0.32800000000000007,-0.39281999999999995,0.02499999999999991,-0.17999999999999994,-0.4099999999999999,0.04283999999999999,0.08385999999999982,0.2522,1742238556.2687948
0.030000000000000027,0.23499999999999988,-0.365,0.016240000000000032,0.05371999999999999,-0.13854,0.10000000000000009,-0.16500000000000004,-0.345,0.0035399999999998766,0.019400000000000084,0.07214000000000009,1742238556.3881128
0.08499999999999996,0.18999999999999995,-0.32000000000000006,-0.06274000000000002,-0.008299999999999974,0.054079999999999906,0.11499999999999999,-0.04500000000000004,-0.41500000000000004,0.0623800000000001,0.054200000000000026,-0.22253999999999996,1742238556.496892
-0.06000000000000005,0.18999999999999995,-0.54,-0.11120000000000008,-0.06311999999999995,0.35596000000000005,-0.33000000000000007,-0.675,-0.42500000000000004,-0.009159999999999946,-0.25061999999999995,-0.41479999999999995,1742238556.6260018
-0.4099999999999999,0.815,-0.43500000000000005,-0.25976,-0.32811999999999997,0.16442,-0.18500000000000005,-0.45500000000000007,-0.255,-0.14439999999999997,0.19531999999999994,0.31982,1742238556.729058
-0.07000000000000006,0.21500000000000008,-0.33499999999999996,0.14379999999999993,0.2856399999999999,-0.4083199999999999,0.004999999999999893,-0.17500000000000004,-0.44500000000000006,0.0046399999999999775,0.20263999999999993,0.27624000000000004,1742238556.844936
0.030000000000000027,0.1499999999999999,-0.45500000000000007,0.05699999999999994,0.1551600000000002,-0.15025999999999995,0.10499999999999998,-0.050000000000000044,-0.45500000000000007,0.043099999999999916,0.021120000000000028,-0.04589999999999994,1742238556.965715
0.050000000000000044,0.135,-0.41500000000000004,-0.03724000000000005,-0.042360000000000064,0.17626000000000008,-0.07499999999999996,-0.18999999999999995,-0.42500000000000004,-0.03198000000000001,-0.16601999999999995,-0.41674,1742238557.067258
-0.275,0.3700000000000001,-0.42999999999999994,-0.28370000000000006,-0.17872,0.46972000000000014,-0.36,-0.815,-0.28,-0.021240000000000037,-0.11462000000000006,-0.037959999999999994,1742238557.184692
-0.32499999999999996,0.5150000000000001,-0.41999999999999993,0.2584200000000001,0.09349999999999992,-0.29003999999999996,-0.10999999999999999,-0.32499999999999996,-0.3400000000000001,-0.02100000000000002,0.1435599999999999,0.30699999999999994,1742238557.307418
-0.03500000000000003,0.18500000000000005,-0.4,0.14844000000000013,0.08642000000000016,-0.27257999999999993,0.08000000000000007,-0.12,-0.375,0.0007399999999999629,0.11853999999999987,0.18554000000000004,1742238557.4095092
0.07000000000000006,0.125,-0.355,0.010499999999999954,0.014520000000000088,-0.00036000000000002697,0.07499999999999996,-0.09999999999999998,-0.43999999999999995,0.06811999999999996,0.010380000000000056,-0.16589999999999994,1742238557.526464
-0.06499999999999995,0.14000000000000012,-0.4099999999999999,-0.013679999999999914,-0.06372,0.32874000000000003,-0.28,-0.41500000000000004,-0.43999999999999995,-0.07481999999999989,-0.18725999999999998,-0.4710599999999999,1742238557.644144
-0.44999999999999996,0.865,-0.45999999999999996,-0.26172000000000006,-0.23265999999999998,0.26098,-0.17999999999999994,-0.52,-0.245,-0.1189,0.07654000000000005,0.30102000000000007,1742238557.76436
-0.12,0.21999999999999997,-0.33499999999999996,0.29723999999999995,0.24731999999999998,-0.43933999999999995,-0.030000000000000027,-0.18999999999999995,-0.4099999999999999,-0.011960000000000082,0.14050000000000007,0.266,1742238557.864886
0.0,0.21999999999999997,-0.375,0.02855999999999992,0.06030000000000002,-0.10375999999999996,0.06499999999999995,-0.125,-0.44500000000000006,0.016839999999999966,0.005859999999999976,-0.006099999999999994,1742238557.98428
0.03499999999999992,0.1499999999999999,-0.375,-0.016240000000000032,0.009759999999999991,0.08299999999999996,-0.050000000000000044,-0.15500000000000003,-0.47,-0.051019999999999954,-0.11303999999999992,-0.3298399999999999,1742238558.1038232
-0.21999999999999997,0.30499999999999994,-0.495,-0.125,-0.025760000000000005,0.37256,-0.375,-0.79,-0.14,0.03638000000000008,-0.19384,-0.21411999999999998,1742238558.206893
-0.43500000000000005,0.8500000000000001,-0.41999999999999993,-0.11438000000000004,-0.056400000000000006,-0.09838000000000002,-0.135,-0.35,-0.31000000000000005,-0.07177999999999995,0.2072799999999999,0.36131999999999986,1742238558.324566
-0.050000000000000044,0.18999999999999995,-0.4,0.03405999999999998,0.017220000000000013,-0.23631999999999997,0.05499999999999994,-0.10999999999999999,-0.405,0.011840000000000073,0.10753999999999997,0.16700000000000004,1742238558.442474
0.050000000000000044,0.17999999999999994,-0.33000000000000007,0.023679999999999923,-0.01097999999999999,-0.05053999999999992,0.08000000000000007,-0.06000000000000005,-0.42500000000000004,0.06994000000000011,0.022820000000000062,-0.13696000000000008,1742238558.562361
-0.025000000000000022,0.17500000000000004,-0.43999999999999995,-0.06884000000000001,-0.0514,0.24634,-0.24,-0.44500000000000006,-0.41999999999999993,-0.06946000000000008,-0.31238,-0.5169600000000001,1742238558.662996
-0.32499999999999996,0.7149999999999999,-0.255,-0.2045800000000001,-0.40966000000000014,0.3337399999999999,-0.33499999999999996,-0.7,-0.24,-0.021480000000000055,0.04064000000000001,0.20544000000000007,1742238558.782928
-0.12,0.32499999999999996,-0.27,0.36607999999999996,0.3109200000000001,-0.39037999999999995,-0.07000000000000006,-0.17000000000000004,-0.41500000000000004,0.06188000000000016,0.21374000000000004,0.35816000000000003,1742238558.9027698
-0.020000000000000018,0.22999999999999998,-0.38,0.03698000000000001,0.2501199999999999,-0.21326,0.07000000000000006,-0.07000000000000006,-0.41999999999999993,0.042240000000000055,0.11670000000000003,0.1358600000000001,1742238559.004739
0.030000000000000027,0.17999999999999994,-0.39,-0.05164000000000002,0.08397999999999994,0.09851999999999994,-0.030000000000000027,-0.050000000000000044,-0.55,-0.0024400000000001087,-0.02734000000000003,-0.3727999999999999,1742238559.122294
-0.25,0.33499999999999996,-0.42999999999999994,-0.005979999999999985,-0.32824,0.4741199999999999,-0.43999999999999995,-0.78,-0.33499999999999996,-0.09522000000000008,-0.37207999999999997,-0.3194600000000001,1742238559.242144
-0.4,0.845,-0.30499999999999994,0.04577999999999993,-0.1435599999999999,-0.14648000000000005,-0.11499999999999999,-0.3400000000000001,-0.235,-0.11865999999999999,0.18701999999999996,0.31982,1742238559.3469
-0.020000000000000018,0.18999999999999995,-0.33499999999999996,0.08704,0.33776000000000006,-0.2843,-0.025000000000000022,-0.17999999999999994,-0.41500000000000004,-0.07055999999999996,0.27636000000000016,0.28308,1742238559.462212
-0.040000000000000036,0.20500000000000007,-0.41999999999999993,0.02391999999999994,0.16223999999999994,-0.05053999999999992,0.050000000000000044,-0.09499999999999997,-0.45500000000000007,0.11131999999999986,0.03516000000000008,-0.13879999999999992,1742238559.581964
-0.07999999999999996,0.27,-0.43999999999999995,0.012820000000000054,-0.11450000000000005,0.24303999999999992,-0.21999999999999997,-0.41500000000000004,-0.4,-0.0343,-0.32166000000000006,-0.44458,1742238559.7019808
-0.32499999999999996,0.6099999999999999,-0.235,-0.21862000000000004,-0.39561999999999997,0.26171999999999995,-0.33000000000000007,-0.69,-0.2849999999999999,0.0307599999999999,-0.05041999999999991,0.11743999999999999,1742238559.8027651
-0.20999999999999996,0.43500000000000005,-0.26,0.27392000000000016,0.25646000000000013,-0.38049999999999995,-0.08999999999999997,-0.245,-0.39,0.02185999999999999,0.19579999999999997,0.2979799999999999,1742238559.9221592
-0.05500000000000005,0.2450000000000001,-0.365,0.06176000000000004,0.2245999999999999,-0.1998199999999999,-0.030000000000000027,-0.18999999999999995,-0.45500000000000007,-0.09338000000000002,0.24511999999999978,0.22106000000000003,1742238560.0308108
0.004999999999999893,0.23499999999999988,-0.39,-0.043460000000000054,0.05726000000000009,0.05042000000000013,0.03499999999999992,-0.135,-0.42999999999999994,-0.030159999999999965,-0.17968000000000006,-0.26624000000000003,1742238560.144927
-0.13,0.2749999999999999,-0.48,-0.0030599999999999516,-0.13415999999999995,0.30542,-0.355,-0.625,-0.235,0.06285999999999992,-0.5613999999999999,-0.56116,1742238560.261755
-0.42500000000000004,0.8199999999999998,-0.19500000000000006,-0.13196000000000008,-0.43823999999999996,0.12744,-0.29499999999999993,-0.525,-0.29000000000000004,-0.17553999999999992,0.11485999999999996,0.32496000000000014,1742238560.381797
-0.04500000000000004,0.20999999999999996,-0.17500000000000004,0.15466000000000002,0.35851999999999995,-0.37818000000000007,-0.050000000000000044,-0.18500000000000005,-0.39,0.06457999999999986,0.2584200000000001,0.32654000000000005,1742238560.486727
-0.040000000000000036,0.17999999999999994,-0.45999999999999996,-0.09631999999999996,0.25183999999999984,-0.04491999999999996,0.03499999999999992,-0.03500000000000003,-0.535,0.0040199999999999125,0.05274000000000001,0.05140000000000011,1742238560.6020212
-0.040000000000000036,0.17500000000000004,-0.4650000000000001,0.0036599999999999966,-0.09362000000000004,0.19067999999999996,-0.08999999999999997,-0.15500000000000003,-0.45999999999999996,-0.03161999999999998,-0.18664000000000003,-0.4292,1742238560.721626
-0.35,0.54,-0.32000000000000006,-0.10681999999999992,-0.4144200000000001,0.44458,-0.355,-0.635,-0.36,0.1983600000000001,-0.2723399999999999,-0.27136000000000005,1742238560.841599
-0.29000000000000004,0.5249999999999999,-0.235,0.11146000000000011,0.10729999999999995,-0.29272,-0.16500000000000004,-0.32000000000000006,-0.355,-0.25805999999999996,0.25342,0.3872,1742238560.9428082
-0.10999999999999999,0.22999999999999998,-0.43999999999999995,0.09606000000000003,0.3381399999999999,-0.31482,-0.010000000000000009,-0.17000000000000004,-0.41999999999999993,-0.11375999999999997,0.28625999999999996,0.30113999999999996,1742238561.0610108
-0.0050000000000000044,0.16999999999999993,-0.44500000000000006,0.0030599999999998406,0.0611600000000001,-0.07996000000000003,0.004999999999999893,-0.22999999999999998,-0.43999999999999995,-0.19372,0.13916000000000017,0.06433999999999984,1742238561.181418
-0.07000000000000006,0.17999999999999994,-0.51,0.07469999999999999,-0.13672000000000006,0.24449999999999994,-0.28,-0.30000000000000004,-0.43500000000000005,0.6034000000000002,-0.6222000000000001,-0.85254,1742238561.284933
-0.345,0.605,-0.28,-0.17188000000000003,-0.4830399999999999,0.35144,-0.365,-0.65,-0.42999999999999994,-0.13990000000000002,0.008059999999999956,0.16748000000000007,1742238561.401587
-0.18999999999999995,0.47,-0.27,0.10352000000000006,0.12548000000000004,-0.32799999999999996,-0.10499999999999998,-0.19500000000000006,-0.4,-0.05298000000000003,0.24670000000000014,0.40283999999999986,1742238561.523852
-0.025000000000000022,0.14500000000000002,-0.41999999999999993,0.12464000000000008,0.29455999999999993,-0.31226,0.004999999999999893,-0.07000000000000006,-0.505,-0.1950599999999999,0.20067999999999997,0.23816000000000015,1742238561.626741
-0.0050000000000000044,0.09499999999999997,-0.49,0.03625999999999996,0.04920000000000013,0.021479999999999944,0.03499999999999992,-0.10999999999999999,-0.38,0.023679999999999923,-0.16052,-0.3049400000000001,1742238561.740839
-0.18999999999999995,0.22999999999999998,-0.505,0.03320000000000012,-0.18006,0.49707999999999997,-0.395,-0.535,-0.43500000000000005,0.30444000000000004,-0.5017,-0.57422,1742238561.861086
-0.37,0.8,-0.36,0.08996000000000004,-0.20641999999999994,-0.03161999999999998,-0.22999999999999998,-0.44500000000000006,-0.345,-0.21838000000000002,0.14026000000000005,0.29821999999999993,1742238561.9688451
-0.08999999999999997,0.31000000000000005,-0.30000000000000004,0.08692000000000011,0.2508600000000001,-0.33240000000000003,-0.09499999999999997,-0.17999999999999994,-0.4099999999999999,-0.36048,0.47912,0.4575199999999999,1742238562.082825
0.0,0.14500000000000002,-0.44500000000000006,-0.01636000000000004,0.2584200000000001,-0.14879999999999993,0.010000000000000009,-0.22999999999999998,-0.4,-0.11658000000000002,0.11816000000000004,0.10644000000000009,1742238562.201351
0.0,0.14000000000000012,-0.45500000000000007,0.03233999999999981,-0.029299999999999993,0.16578000000000004,-0.05500000000000005,-0.15500000000000003,-0.37,0.3393600000000001,-0.38648000000000005,-0.57666,1742238562.32185
-0.32000000000000006,0.405,-0.37,-0.07835999999999999,-0.35205999999999993,0.5149000000000001,-0.42999999999999994,-0.665,-0.55,0.07811999999999997,-0.25318000000000007,-0.1754199999999999,1742238562.425003
-0.38,0.6699999999999999,-0.385,0.3408199999999999,0.08923999999999999,-0.36756,-0.20999999999999996,-0.33000000000000007,-0.36,-0.3295799999999999,0.3319000000000001,0.45263999999999993,1742238562.5450082
-0.07999999999999996,0.24,-0.355,0.03381999999999996,0.21789999999999998,-0.36254,-0.07499999999999996,-0.24,-0.475,-0.31018,0.43688000000000016,0.42272,1742238562.662199
0.004999999999999893,0.10499999999999998,-0.45999999999999996,0.030999999999999917,0.16503999999999985,-0.10572000000000004,0.1200000000000001,-0.09999999999999998,-0.375,0.1998199999999999,-0.20898000000000005,-0.26612,1742238562.7667751
-0.040000000000000036,0.1200000000000001,-0.475,-0.019159999999999955,-0.21545999999999998,0.35534,-0.275,-0.31000000000000005,-0.54,0.3860999999999999,-0.4349400000000001,-0.6642999999999999,1742238562.882122
-0.38,0.6499999999999999,-0.4099999999999999,-0.3197000000000001,-0.47351999999999994,0.5326,-0.30000000000000004,-0.55,-0.42500000000000004,-0.14794000000000007,-0.0023200000000000998,0.1348800000000001,1742238563.003828
-0.17999999999999994,0.355,-0.30499999999999994,0.2929600000000001,0.23670000000000013,-0.44396,-0.14,-0.25,-0.38,-0.11718000000000006,0.32567999999999997,0.3714600000000001,1742238563.122346
-0.025000000000000022,0.17500000000000004,-0.375,0.002080000000000082,0.24890000000000012,-0.26525999999999994,0.020000000000000018,-0.14,-0.43999999999999995,-0.10608000000000006,0.18872,0.23438000000000003,1742238563.222659
0.03499999999999992,0.08499999999999996,-0.4650000000000001,-0.04418,0.11840000000000006,0.011600000000000055,0.0,-0.13,-0.41500000000000004,-0.007940000000000058,-0.18591999999999997,-0.3348399999999999,1742238563.342675
-0.08999999999999997,0.16500000000000004,-0.51,0.0307599999999999,-0.17028,0.34251999999999994,-0.4,-0.4650000000000001,-0.41500000000000004,0.29444000000000004,-0.47851999999999995,-0.65418,1742238563.4624572
-0.4,0.7749999999999999,-0.45999999999999996,-0.28137999999999996,-0.47912,0.33020000000000005,-0.30000000000000004,-0.475,-0.32000000000000006,-0.29688000000000003,0.22094000000000014,0.39490000000000003,1742238563.564747
-0.050000000000000044,0.16500000000000004,-0.27,0.1545399999999999,0.35742000000000007,-0.45704,-0.06499999999999995,-0.20499999999999996,-0.42999999999999994,0.10131999999999985,0.1790799999999999,0.2341399999999998,1742238563.682961
-0.010000000000000009,0.09000000000000008,-0.54,-0.04405999999999999,0.1551600000000002,-0.14915999999999996,0.010000000000000009,-0.125,-0.395,0.06359999999999988,0.029779999999999918,0.02198000000000011,1742238563.8022668
-0.015000000000000013,0.10000000000000009,-0.41500000000000004,-0.01770000000000005,-0.013919999999999932,0.18408000000000002,-0.09999999999999998,-0.12,-0.51,0.04638000000000009,-0.10620000000000007,-0.33299999999999996,1742238563.906899
-0.255,0.44999999999999996,-0.36,0.08826,-0.11729999999999996,0.37524,-0.33000000000000007,-0.655,-0.19999999999999996,0.041260000000000074,-0.21948,-0.15527999999999997,1742238564.025774
-0.385,0.565,-0.365,0.4684999999999999,0.2827200000000001,-0.57508,-0.15500000000000003,-0.35,-0.255,-0.1493,0.23327999999999993,0.3554600000000001,1742238564.1427588
-0.06000000000000005,0.2250000000000001,-0.36,-0.01758000000000004,0.14588,-0.27037999999999995,-0.025000000000000022,-0.16000000000000003,-0.43500000000000005,0.08923999999999999,0.1493,0.24218000000000006,1742238564.262214
0.004999999999999893,0.135,-0.42999999999999994,-0.07862000000000002,0.03845999999999994,-0.041019999999999945,0.06000000000000005,-0.07499999999999996,-0.44500000000000006,-0.059700000000000086,0.0674999999999999,-0.040159999999999973,1742238564.3628402
-0.030000000000000027,0.09000000000000008,-0.45500000000000007,-0.06115999999999999,-0.05712000000000006,0.27770000000000006,-0.24,-0.30000000000000004,-0.475,0.2801600000000002,-0.2904,-0.6866399999999999,1742238564.484876
-0.33000000000000007,0.5150000000000001,-0.41500000000000004,-0.16625999999999996,-0.23194000000000004,0.49461999999999984,-0.36,-0.67,-0.365,-0.1261,-0.04064000000000001,0.1468600000000002,1742238564.603064
-0.26,0.42500000000000004,-0.395,0.2082599999999999,0.08094000000000001,-0.3466800000000001,-0.13,-0.18999999999999995,-0.355,-0.07055999999999996,0.1823800000000002,0.35938000000000003,1742238564.704718
-0.06000000000000005,0.14500000000000002,-0.43500000000000005,0.044319999999999915,0.08448000000000011,-0.22387999999999997,-0.0050000000000000044,-0.040000000000000036,-0.44500000000000006,0.06616,0.10985999999999985,0.12928000000000006,1742238564.823292
0.020000000000000018,0.06499999999999995,-0.42500000000000004,-0.008919999999999928,-0.010259999999999936,0.1277999999999999,-0.030000000000000027,-0.020000000000000018,-0.505,0.007560000000000011,-0.08704,-0.25903999999999994,1742238564.942959
-0.16000000000000003,0.15500000000000003,-0.495,-0.010259999999999936,-0.09204000000000001,0.41259999999999986,-0.38,-0.59,-0.4,0.04968000000000017,-0.359,-0.42626,1742238565.047555
-0.39,0.635,-0.42500000000000004,0.049919999999999964,-0.12291999999999992,-0.05944000000000005,-0.17500000000000004,-0.32000000000000006,-0.31499999999999995,-0.07225999999999999,0.12670000000000003,0.3270200000000001,1742238565.1630442
-0.16500000000000004,0.33499999999999996,-0.375,-0.12036000000000002,-0.28601999999999994,0.40992000000000006,0.16999999999999993,-0.040000000000000036,-0.395,0.08898000000000006,0.02088000000000001,-0.009639999999999982,1742238613.209
-0.385,0.71,-0.31499999999999995,-0.1641800000000001,-0.1936,0.13378,-0.040000000000000036,-0.245,-0.4099999999999999,0.027700000000000058,-0.18322000000000005,-0.44642000000000004,1742238613.327449
-0.15000000000000002,0.2849999999999999,-0.35,0.07264000000000004,0.14501999999999993,-0.28576,-0.375,-0.725,-0.41999999999999993,0.021600000000000064,-0.03882000000000008,0.09522000000000008,1742238613.446962
-0.015000000000000013,0.15500000000000003,-0.45999999999999996,0.07946000000000009,0.14844000000000013,-0.1814,-0.03500000000000003,-0.16500000000000004,-0.42999999999999994,-0.022700000000000053,0.15844000000000014,0.27478,1742238613.5670102
0.04499999999999993,0.1299999999999999,-0.42999999999999994,0.018179999999999863,-0.07116,0.11755999999999989,0.07000000000000006,-0.10499999999999998,-0.495,-0.0601799999999999,0.09057999999999988,0.1324400000000001,1742238613.665022
-0.25,0.30000000000000004,-0.41500000000000004,-0.09289999999999998,-0.17858000000000007,0.40588,0.07000000000000006,-0.10999999999999999,-0.41999999999999993,-0.037719999999999976,-0.12622,-0.25305999999999995,1742238613.7791
-0.38,0.6299999999999999,-0.4,0.03320000000000012,-0.06628,-0.06652000000000002,-0.2849999999999999,-0.515,-0.30000000000000004,0.13892000000000015,-0.35242000000000007,-0.47046,1742238613.893091
-0.08499999999999996,0.22999999999999998,-0.4,0.010620000000000074,0.04468000000000005,-0.20618000000000003,-0.255,-0.475,-0.33499999999999996,-0.19579999999999997,0.17652,0.34729999999999994,1742238614.006837
0.06499999999999995,0.10499999999999998,-0.385,0.006099999999999994,0.0626199999999999,-0.08326,0.014999999999999902,-0.13,-0.42999999999999994,0.02404000000000006,0.13598,0.27293999999999996,1742238614.126323
-0.025000000000000022,0.08000000000000007,-0.535,-0.05188000000000004,-0.008539999999999992,0.21998000000000006,0.14000000000000012,0.010000000000000009,-0.485,0.09522000000000008,0.05468000000000006,0.02198000000000011,1742238614.24687
-0.36,0.565,-0.45500000000000007,-0.06481999999999999,-0.22546,0.21888000000000019,-0.04500000000000004,-0.16000000000000003,-0.49,0.04723999999999995,-0.15001999999999993,-0.3811,1742238614.3655229
-0.15500000000000003,0.30000000000000004,-0.33499999999999996,0.14966000000000013,0.13549999999999995,-0.31396,-0.35,-0.73,-0.44999999999999996,0.08507999999999982,-0.15576,-0.09301999999999999,1742238614.463017
0.004999999999999893,0.1299999999999999,-0.42999999999999994,0.06957999999999998,0.13270000000000004,-0.26037999999999994,0.0,-0.11499999999999999,-0.4099999999999999,-0.11096000000000006,0.17774,0.3442400000000001,1742238614.576858
0.09000000000000008,0.050000000000000044,-0.4650000000000001,-0.0029199999999999227,0.031380000000000186,0.08240000000000003,0.09499999999999997,-0.08999999999999997,-0.44500000000000006,-0.007200000000000095,0.07201999999999997,0.13451999999999997,1742238614.690808
-0.19999999999999996,0.28,-0.43999999999999995,-0.09594000000000003,-0.13476,0.3991600000000002,0.10499999999999998,-0.040000000000000036,-0.49,0.043339999999999934,-0.031240000000000046,-0.18835999999999997,1742238614.8049011
-0.37,0.6000000000000001,-0.385,0.18603999999999998,0.06922000000000006,-0.2878399999999999,-0.24,-0.48,-0.4099999999999999,0.09155999999999986,-0.14246000000000003,-0.31152,1742238614.928389
-0.05500000000000005,0.18500000000000005,-0.42500000000000004,0.03320000000000012,0.11292000000000013,-0.2221599999999999,-0.16000000000000003,-0.32000000000000006,-0.41999999999999993,-0.08240000000000003,0.15295999999999998,0.2854000000000001,1742238615.04536
0.03499999999999992,0.11499999999999999,-0.42500000000000004,-0.008299999999999974,0.051020000000000065,-0.036619999999999986,0.040000000000000036,-0.09499999999999997,-0.5,-0.052000000000000046,0.08740000000000014,0.19873999999999992,1742238615.1648068
-0.05500000000000005,0.1200000000000001,-0.505,-0.0042799999999999505,-0.05896000000000001,0.2535399999999999,0.07499999999999996,-0.06000000000000005,-0.43500000000000005,0.01868000000000003,0.01990000000000003,-0.046499999999999986,1742238615.261025
-0.4,0.6699999999999999,-0.30000000000000004,-0.17065999999999992,-0.30506,0.3700000000000001,-0.06000000000000005,-0.08999999999999997,-0.51,0.019039999999999946,-0.09277999999999997,-0.32214,1742238615.375028
-0.21499999999999997,0.31499999999999995,-0.32000000000000006,0.18663999999999992,0.2342599999999999,-0.40783999999999987,-0.36,-0.73,-0.405,0.15832000000000002,-0.16137999999999997,-0.22741999999999996,1742238615.488928
-0.025000000000000022,0.125,-0.475,0.008299999999999974,0.1348800000000001,-0.17589999999999995,-0.11499999999999999,-0.16500000000000004,-0.43500000000000005,-0.05834000000000006,0.1395200000000001,0.37134,1742238615.6050508
0.030000000000000027,0.09499999999999997,-0.475,0.007940000000000058,0.0021999999999999797,0.06188000000000016,0.07000000000000006,-0.020000000000000018,-0.485,-0.020139999999999936,0.04590000000000005,0.15661999999999998,1742238615.727946
-0.16000000000000003,0.18999999999999995,-0.49,0.08311999999999986,-0.10914000000000001,0.28956000000000004,0.09000000000000008,-0.010000000000000009,-0.4650000000000001,0.026619999999999866,-0.01537999999999995,-0.14490000000000003,1742238615.848831
-0.4099999999999999,0.8,-0.235,-0.15039999999999998,-0.18713999999999997,0.08531999999999984,-0.14,-0.16500000000000004,-0.505,-0.0039000000000000146,-0.10631999999999997,-0.40454,1742238615.9449449
-0.15000000000000002,0.20999999999999996,-0.375,0.007940000000000058,0.22216000000000014,-0.32386000000000004,-0.375,-0.665,-0.4099999999999999,-0.036619999999999986,0.009279999999999955,0.12707999999999986,1742238616.064523
0.014999999999999902,0.1100000000000001,-0.47,0.005980000000000096,0.09911999999999987,-0.13696000000000008,-0.06499999999999995,-0.10499999999999998,-0.4650000000000001,0.014780000000000015,0.135,0.3126199999999999,1742238616.183907
0.010000000000000009,0.125,-0.4650000000000001,-0.0006199999999999539,-0.04637999999999998,0.15992000000000006,0.10000000000000009,0.02499999999999991,-0.5,0.008059999999999956,0.03649999999999998,0.11047999999999991,1742238616.3038878
-0.21999999999999997,0.19500000000000006,-0.48,0.04601999999999995,-0.15637999999999996,0.3777999999999999,0.02499999999999991,-0.030000000000000027,-0.49,0.017819999999999947,-0.031379999999999963,-0.21972000000000003,1742238616.400836
-0.44999999999999996,0.825,-0.275,-0.14148000000000005,-0.07740000000000002,0.06579999999999986,-0.21499999999999997,-0.19500000000000006,-0.47,-0.07238,-0.12390000000000001,-0.4290799999999999,1742238616.525326
-0.14,0.1100000000000001,-0.42500000000000004,-0.013919999999999932,0.15490000000000004,-0.3763399999999999,-0.37,-0.55,-0.38,-0.12048000000000003,0.0650599999999999,0.27281999999999984,1742238616.646071
0.03499999999999992,0.06499999999999995,-0.48,0.024660000000000126,0.038939999999999975,-0.07972000000000001,-0.015000000000000013,-0.020000000000000018,-0.5,0.016000000000000014,0.11961999999999984,0.32886000000000015,1742238616.743299
-0.04500000000000004,0.1200000000000001,-0.47,-0.016960000000000086,-0.08874000000000004,0.21594000000000002,0.11499999999999999,0.06000000000000005,-0.485,0.009039999999999937,0.0031799999999999606,0.02746000000000004,1742238616.864083
-0.355,0.605,-0.32000000000000006,-0.21545999999999998,-0.25098,0.29370000000000007,-0.015000000000000013,-0.030000000000000027,-0.48,0.00011999999999989797,-0.04625999999999997,-0.30004,1742238616.970892
-0.20999999999999996,0.30000000000000004,-0.35,0.11047999999999991,0.18297999999999992,-0.37378,-0.44999999999999996,-0.77,-0.4099999999999999,0.19555999999999996,-0.17346000000000006,-0.20092,1742238617.0864892
-0.010000000000000009,0.09000000000000008,-0.48,-0.0650599999999999,0.07946000000000009,-0.15772000000000008,-0.16000000000000003,-0.125,-0.45500000000000007,-0.008539999999999992,0.14440000000000008,0.42444000000000015,1742238617.204691
0.04499999999999993,0.04499999999999993,-0.47,-0.017080000000000095,-0.01097999999999999,0.0908199999999999,0.10499999999999998,0.06000000000000005,-0.4650000000000001,0.0026800000000000157,0.02746000000000004,0.12597999999999998,1742238617.323849
-0.19999999999999996,0.16500000000000004,-0.48,-0.03698000000000001,-0.09960000000000002,0.391,0.08000000000000007,0.04499999999999993,-0.49,0.0031799999999999606,-0.01097999999999999,-0.19384,1742238617.426931
-0.39,0.6099999999999999,-0.375,0.0684800000000001,-0.027700000000000058,-0.15624000000000005,-0.3400000000000001,-0.42999999999999994,-0.44999999999999996,-0.024419999999999997,-0.14660000000000006,-0.47656,1742238617.543013
-0.11499999999999999,0.16999999999999993,-0.43500000000000005,0.0317400000000001,0.13549999999999995,-0.2901600000000001,-0.32000000000000006,-0.4650000000000001,-0.41500000000000004,-0.20189999999999997,0.17711999999999994,0.44604,1742238617.654815
0.04499999999999993,0.030000000000000027,-0.48,-0.019540000000000002,0.07044000000000006,-0.08020000000000005,-0.020000000000000018,-0.06000000000000005,-0.49,-0.031120000000000037,0.09105999999999992,0.29747999999999997,1742238617.768969
0.014999999999999902,-0.0050000000000000044,-0.545,-0.030399999999999983,-0.09802,0.27576,0.1200000000000001,0.07000000000000006,-0.43999999999999995,0.035880000000000134,-0.018059999999999965,-0.03748000000000007,1742238617.8832011
-0.39,0.615,-0.44999999999999996,-0.17271999999999998,-0.22363999999999995,0.36961999999999984,-0.040000000000000036,-0.020000000000000018,-0.52,0.010259999999999936,-0.046499999999999986,-0.3325199999999999,1742238618.003307
-0.255,0.32000000000000006,-0.35,0.20103999999999989,0.10400000000000009,-0.3833,-0.47,-0.78,-0.41500000000000004,0.14427999999999996,-0.22265999999999997,-0.33763999999999994,1742238618.122898
0.010000000000000009,0.03499999999999992,-0.495,0.07603999999999989,0.13671999999999995,-0.26124,-0.22499999999999998,-0.21499999999999997,-0.4099999999999999,-0.04188000000000003,0.14868000000000015,0.42846000000000006,1742238618.224725
0.1100000000000001,0.010000000000000009,-0.44500000000000006,-0.021480000000000055,-0.008179999999999965,0.07654000000000005,0.050000000000000044,0.07000000000000006,-0.49,-0.0022000000000000908,0.055420000000000025,0.25561999999999996,1742238618.344636
-0.15000000000000002,0.08499999999999996,-0.54,-0.04810000000000003,-0.09851999999999994,0.4398199999999999,0.125,0.1200000000000001,-0.45500000000000007,0.054079999999999906,0.008419999999999872,-0.15552,1742238618.464597
-0.51,0.8199999999999998,-0.44500000000000006,0.05738000000000021,-0.08936,-0.13868000000000003,-0.255,-0.16500000000000004,-0.52,-0.011840000000000073,-0.0908199999999999,-0.54602,1742238618.581932
-0.06499999999999995,0.15999999999999992,-0.44500000000000006,0.036739999999999995,0.13463999999999987,-0.2798999999999999,-0.4099999999999999,-0.635,-0.43999999999999995,-0.15173999999999999,0.043339999999999934,0.32166000000000006,1742238618.681218
0.06499999999999995,0.020000000000000018,-0.475,0.007319999999999993,0.034660000000000135,-0.07335999999999998,0.0,0.010000000000000009,-0.5,-0.027700000000000058,0.041380000000000194,0.2622,1742238618.802161
0.030000000000000027,0.03499999999999992,-0.47,-0.06591999999999998,-0.03186,0.22436000000000011,0.10499999999999998,0.07499999999999996,-0.41500000000000004,0.02075999999999989,-0.009759999999999991,-0.013539999999999996,1742238618.9241002
-0.43500000000000005,0.5800000000000001,-0.53,-0.19799999999999995,-0.20787999999999995,0.45252000000000003,-0.015000000000000013,0.03499999999999992,-0.505,0.0697000000000001,-0.0037800000000000056,-0.31079999999999997,1742238619.0228622
-0.265,0.32499999999999996,-0.355,0.26159999999999983,0.13476,-0.42601999999999995,-0.53,-0.795,-0.57,0.10107999999999984,-0.10839999999999994,-0.2773399999999999,1742238619.141013
-0.0050000000000000044,0.07000000000000006,-0.485,0.08349999999999991,0.08397999999999994,-0.21972000000000003,-0.16000000000000003,-0.07000000000000006,-0.44500000000000006,-0.09644000000000008,0.10620000000000007,0.46398000000000006,1742238619.260568
0.11499999999999999,0.03499999999999992,-0.385,-0.02294000000000007,-0.010739999999999972,0.04357999999999995,0.08000000000000007,0.09000000000000008,-0.42500000000000004,-0.05152000000000001,0.035760000000000014,0.16101999999999994,1742238619.364716
-0.07000000000000006,0.04499999999999993,-0.58,-0.06628,-0.041019999999999945,0.37158,0.08499999999999996,0.040000000000000036,-0.41999999999999993,0.08055999999999996,0.015139999999999931,-0.14305999999999996,1742238619.48006
-0.56,0.9950000000000001,-0.53,-0.09924,-0.2472000000000001,0.08826,-0.265,-0.28,-0.555,0.04809999999999981,-0.03979999999999995,-0.4305399999999999,1742238619.6007302
-0.09999999999999998,0.15999999999999992,-0.43500000000000005,0.07373999999999992,0.18103999999999987,-0.37927999999999995,-0.45500000000000007,-0.685,-0.51,-0.20787999999999995,0.06396000000000002,0.47326,1742238619.720556
0.08000000000000007,-0.025000000000000022,-0.47,0.018320000000000114,0.056519999999999904,-0.15088000000000001,-0.020000000000000018,0.07000000000000006,-0.42999999999999994,-0.056400000000000006,0.01868000000000003,0.36450000000000005,1742238619.820777
0.10499999999999998,-0.0050000000000000044,-0.42999999999999994,-0.07189999999999996,-0.0048799999999999955,0.19799999999999995,0.1299999999999999,0.1299999999999999,-0.4,0.04272000000000009,0.018440000000000012,-0.009519999999999973,1742238619.9429388
-0.405,0.3599999999999999,-0.57,-0.17491999999999996,-0.17028,0.5475999999999999,0.02499999999999991,0.08499999999999996,-0.545,0.08666000000000018,0.008059999999999956,-0.34729999999999994,1742238620.06198
-0.37,0.49,-0.39,0.3073800000000002,0.13427999999999995,-0.41028,-0.485,-0.61,-0.565,0.10424000000000011,-0.15870000000000006,-0.6256200000000001,1742238620.162778
-0.0050000000000000044,0.06499999999999995,-0.49,0.08582000000000001,0.11206000000000005,-0.2634200000000001,-0.20999999999999996,-0.28,-0.42500000000000004,-0.19165999999999994,0.10046,0.4596,1742238620.280376
0.09000000000000008,0.04499999999999993,-0.4,-0.007200000000000095,-0.0018400000000000638,0.018320000000000114,0.040000000000000036,0.06000000000000005,-0.495,-0.08141999999999994,0.04283999999999999,0.23631999999999986,1742238620.4006422
-0.025000000000000022,0.06499999999999995,-0.485,-0.07641999999999993,-0.021720000000000073,0.30322000000000005,0.09000000000000008,0.04499999999999993,-0.4099999999999999,0.036739999999999995,-0.013539999999999996,-0.11950000000000005,1742238620.5196512
-0.42500000000000004,0.7250000000000001,-0.515,-0.08911999999999998,-0.15808,0.13329999999999997,-0.07000000000000006,-0.050000000000000044,-0.505,0.05479999999999996,0.0034199999999999786,-0.37438000000000005,1742238620.6212611
-0.15500000000000003,0.2650000000000001,-0.405,0.14904000000000006,0.10668000000000011,-0.2990799999999999,-0.41500000000000004,-0.73,-0.505,-0.01085999999999998,-0.08751999999999993,-0.07422000000000006,1742238620.739714
0.02499999999999991,0.1200000000000001,-0.42500000000000004,0.07740000000000014,0.05688000000000004,-0.1950599999999999,-0.13,-0.14,-0.485,-0.06811999999999996,0.0578599999999998,0.33299999999999996,1742238620.859529
0.09499999999999997,0.07000000000000006,-0.38,-0.03186,0.008059999999999956,0.08666000000000018,0.07000000000000006,0.02499999999999991,-0.41500000000000004,-0.03308,0.02648000000000006,0.1504000000000001,1742238620.963199
-0.16000000000000003,0.17500000000000004,-0.5,-0.09974000000000005,-0.0686,0.36938000000000004,0.08000000000000007,-0.010000000000000009,-0.41999999999999993,0.05357999999999996,0.012320000000000109,-0.15088000000000001,1742238621.079922
-0.44500000000000006,0.7149999999999999,-0.48,-0.028940000000000077,-0.0968,-0.03064,-0.135,-0.12,-0.545,0.044440000000000035,-0.032220000000000026,-0.39588,1742238621.199698
-0.14500000000000002,0.17999999999999994,-0.41999999999999993,0.12670000000000003,0.18592000000000009,-0.35450000000000004,-0.41500000000000004,-0.665,-0.495,0.0015800000000001369,-0.05810000000000004,0.07335999999999987,1742238621.302734
0.07499999999999996,0.03499999999999992,-0.48,0.02210000000000001,0.043099999999999916,-0.14281999999999995,-0.07999999999999996,-0.05500000000000005,-0.45999999999999996,-0.048960000000000004,0.04381999999999997,0.35705999999999993,1742238621.420325
0.11499999999999999,0.06000000000000005,-0.43500000000000005,-0.04039999999999999,-0.011360000000000037,0.08923999999999999,0.10499999999999998,0.1100000000000001,-0.44999999999999996,-0.0027999999999999137,0.036739999999999995,0.1322000000000001,1742238621.539315
-0.31000000000000005,0.24,-0.565,-0.11194000000000004,-0.18591999999999997,0.5057400000000001,0.08000000000000007,0.135,-0.485,0.07250000000000001,-0.03698000000000001,-0.2891800000000001,1742238621.644754
-0.375,0.6200000000000001,-0.38,0.32788000000000017,0.05078000000000005,-0.3379,-0.49,-0.495,-0.575,0.11352000000000007,-0.18065999999999993,-0.61328,1742238621.759949
0.014999999999999902,0.11499999999999999,-0.4650000000000001,0.10559999999999992,0.10875999999999997,-0.23729999999999996,-0.21499999999999997,-0.20999999999999996,-0.47,-0.21618000000000004,0.11792000000000002,0.4658199999999999,1742238621.878558
0.14000000000000012,0.03499999999999992,-0.35,-0.005120000000000013,0.005740000000000078,0.0042800000000000615,0.03499999999999992,0.050000000000000044,-0.43999999999999995,-0.08704,0.042119999999999935,0.3089600000000001,1742238621.9988632
0.030000000000000027,0.03499999999999992,-0.485,-0.14002000000000003,-0.0009799999999999809,0.30346000000000006,0.14500000000000002,0.08499999999999996,-0.37,0.0578599999999998,0.009759999999999991,-0.012319999999999998,1742238622.100671
-0.51,0.895,-0.53,-0.21386000000000005,-0.22924,0.37916000000000016,-0.020000000000000018,0.04499999999999993,-0.525,0.08898000000000006,0.03833999999999982,-0.39160000000000006,1742238622.219084
-0.16500000000000004,0.20999999999999996,-0.37,0.16968000000000005,0.13538000000000006,-0.37072000000000005,-0.515,-0.765,-0.62,0.06690000000000018,-0.14989999999999992,-0.23815999999999993,1742238622.338711
0.030000000000000027,0.07499999999999996,-0.42500000000000004,0.09216000000000002,0.10474000000000006,-0.21141999999999994,-0.14,-0.06000000000000005,-0.44999999999999996,-0.09936,0.11681999999999992,0.4133399999999998,1742238622.442587
0.10499999999999998,0.04499999999999993,-0.4099999999999999,-0.04870000000000008,0.0019599999999999618,0.09314,0.09499999999999997,0.1100000000000001,-0.41500000000000004,-0.029299999999999993,0.05030000000000001,0.17381999999999986,1742238622.558317
-0.135,0.1299999999999999,-0.525,-0.12634,-0.08496000000000004,0.40881999999999996,0.09499999999999997,0.06499999999999995,-0.44500000000000006,0.056400000000000006,0.024900000000000144,-0.19128,1742238622.679522
-0.495,0.815,-0.45999999999999996,0.11548000000000003,-0.06541999999999992,-0.23584000000000005,-0.245,-0.245,-0.57,0.016000000000000014,-0.05298000000000003,-0.4506800000000001,1742238622.784775
-0.09999999999999998,0.1299999999999999,-0.49,0.14844000000000013,0.19506,-0.42066000000000003,-0.475,-0.64,-0.45999999999999996,-0.14427999999999996,0.01305999999999985,0.2878399999999999,1742238622.899776
0.1499999999999999,-0.020000000000000018,-0.4099999999999999,0.11376000000000008,0.05479999999999996,-0.13196000000000008,-0.06000000000000005,0.02499999999999991,-0.49,-0.07068000000000008,0.14136000000000015,0.4412799999999999,1742238623.019309
0.135,0.030000000000000027,-0.45500000000000007,-0.10314000000000001,-0.05408000000000002,0.23619999999999997,0.17500000000000004,0.14500000000000002,-0.45500000000000007,-0.005739999999999967,0.0025599999999998957,0.05357999999999996,1742238623.13923
-0.52,0.5899999999999999,-0.56,-0.24327999999999994,-0.20704,0.6184000000000001,0.020000000000000018,0.1100000000000001,-0.5,0.01428000000000007,-0.08531999999999995,-0.45374000000000003,1742238623.240789
-0.30499999999999994,0.42500000000000004,-0.345,0.4275,0.2929600000000001,-0.5178200000000001,-0.54,-0.88,-0.535,0.19042000000000003,-0.20446000000000009,-0.3049400000000001,1742238623.35916
0.10499999999999998,0.0,-0.52,0.10607999999999995,0.06788000000000016,-0.14427999999999996,-0.15500000000000003,-0.17000000000000004,-0.41999999999999993,-0.17601999999999995,0.17369999999999997,0.43872,1742238623.4784791
0.15500000000000003,0.050000000000000044,-0.365,-0.11375999999999997,-0.08031999999999995,0.1360999999999999,0.125,0.07000000000000006,-0.42999999999999994,-0.07544000000000006,0.07225999999999999,0.20984000000000003,1742238623.5827048
-0.10499999999999998,0.14000000000000012,-0.585,-0.22705999999999993,-0.09936,0.40979999999999994,0.125,0.010000000000000009,-0.41500000000000004,0.07898000000000005,-0.019159999999999955,-0.12451999999999996,1742238623.699314
-0.495,0.7749999999999999,-0.45500000000000007,0.0697000000000001,-0.12902000000000002,0.051140000000000185,-0.08499999999999996,-0.04500000000000004,-0.545,0.09472000000000014,-0.05589999999999995,-0.44018,1742238623.820697
-0.06499999999999995,0.18999999999999995,-0.42500000000000004,0.11511999999999989,0.16345999999999994,-0.27148000000000005,-0.49,-0.81,-0.485,0.006220000000000114,-0.07850000000000001,0.04259999999999997,1742238623.9246988
0.1100000000000001,0.06499999999999995,-0.43999999999999995,0.07128000000000001,0.05261999999999989,-0.1764,-0.07999999999999996,-0.09999999999999998,-0.51,-0.031240000000000046,0.10803999999999991,0.3173800000000002,1742238624.039927
0.125,0.014999999999999902,-0.41500000000000004,-0.04944000000000004,-0.03637999999999997,0.19324000000000008,0.135,0.04499999999999993,-0.405,0.02222000000000013,0.014040000000000052,0.09655999999999998,1742238624.159822
-0.30000000000000004,0.32499999999999996,-0.525,-0.18077999999999994,-0.17408,0.43848,0.06499999999999995,0.030000000000000027,-0.53,0.07421999999999995,-0.01746000000000003,-0.25098,1742238624.279711
-0.365,0.56,-0.365,0.1827399999999999,0.007319999999999993,-0.24829999999999997,-0.35,-0.42999999999999994,-0.515,0.042240000000000055,-0.16381999999999997,-0.4558199999999999,1742238624.38071
0.014999999999999902,0.125,-0.45999999999999996,0.12342000000000009,0.19140000000000001,-0.27281999999999995,-0.27,-0.44500000000000006,-0.395,-0.07213999999999998,0.030399999999999983,0.29601999999999995,1742238624.499269
0.1299999999999999,0.06499999999999995,-0.44500000000000006,0.0031799999999999606,0.01635999999999993,-0.0045199999999999685,-0.015000000000000013,-0.015000000000000013,-0.495,-0.05908000000000002,0.09045999999999998,0.3507,1742238624.6199858
0.014999999999999902,0.11499999999999999,-0.49,-0.10411999999999999,-0.09704000000000002,0.26513999999999993,0.14500000000000002,0.08499999999999996,-0.44999999999999996,0.02855999999999992,0.013539999999999885,0.03479999999999994,1742238624.721877
-0.37,0.605,-0.49,-0.15855999999999992,-0.20201999999999998,0.2773399999999999,-0.0050000000000000044,0.0,-0.485,0.023440000000000127,-0.010739999999999972,-0.38294000000000006,1742238624.839211
-0.16500000000000004,0.33499999999999996,-0.36,0.20775999999999994,0.1299999999999999,-0.2804,-0.45500000000000007,-0.74,-0.5,0.17090000000000005,-0.14294000000000007,-0.2389,1742238624.963178
0.03499999999999992,0.15500000000000003,-0.485,0.1336600000000001,0.11158000000000001,-0.1950599999999999,-0.125,-0.125,-0.42500000000000004,-0.08886000000000005,0.12158000000000002,0.3809800000000001,1742238625.063495
0.1100000000000001,0.07499999999999996,-0.385,-0.013919999999999932,-0.037839999999999985,0.04821999999999993,0.07000000000000006,0.030000000000000027,-0.45500000000000007,0.0013400000000001189,0.07359999999999989,0.13354,1742238625.179822
-0.09499999999999997,0.125,-0.505,-0.13585999999999998,-0.09924,0.34620000000000006,0.07000000000000006,0.040000000000000036,-0.48,0.037719999999999976,-0.017340000000000022,-0.15796,1742238625.2994208
-0.44999999999999996,0.8300000000000001,-0.41999999999999993,-0.05018,-0.16674,-0.04405999999999999,-0.265,-0.15500000000000003,-0.5,0.010259999999999936,-0.07044000000000006,-0.45594,1742238625.405867
-0.03500000000000003,0.20500000000000007,-0.42999999999999994,0.08692000000000011,0.20740000000000003,-0.2732,-0.45999999999999996,-0.63,-0.45500000000000007,-0.18431999999999993,0.08531999999999984,0.25708,1742238625.5209038
0.09000000000000008,0.1100000000000001,-0.47,0.045539999999999914,0.05285999999999991,-0.09948000000000001,-0.08999999999999997,-0.050000000000000044,-0.52,-0.050779999999999936,0.1373199999999999,0.3398399999999999,1742238625.6393118
0.06499999999999995,0.10499999999999998,-0.44999999999999996,-0.05298000000000003,-0.055419999999999914,0.16492000000000018,0.09000000000000008,-0.010000000000000009,-0.41999999999999993,-0.028079999999999994,0.002080000000000082,0.07006000000000001,1742238625.760301
-0.345,0.44999999999999996,-0.45500000000000007,-0.11865999999999999,-0.24256,0.47204,0.020000000000000018,-0.03500000000000003,-0.49,0.0018400000000000638,-0.042360000000000064,-0.24548000000000003,1742238625.861705
-0.26,0.43500000000000005,-0.30499999999999994,0.33044000000000007,0.18286000000000002,-0.3615799999999999,-0.45500000000000007,-0.485,-0.42999999999999994,0.027220000000000022,-0.19481999999999988,-0.5380800000000001,1742238625.9788349
-0.025000000000000022,0.2450000000000001,-0.41999999999999993,0.09314,0.16480000000000006,-0.22022000000000008,-0.375,-0.4650000000000001,-0.38,-0.26746000000000003,0.16125999999999996,0.47631999999999985,1742238626.099843
0.10000000000000009,0.135,-0.4099999999999999,-0.008179999999999965,0.052119999999999944,-0.09802,-0.09999999999999998,-0.13,-0.45500000000000007,-0.15501999999999994,0.20276000000000005,0.4686199999999998,1742238626.203601
0.09000000000000008,0.11499999999999999,-0.45500000000000007,-0.08153999999999995,-0.042120000000000046,0.21374000000000004,0.09000000000000008,0.014999999999999902,-0.45500000000000007,0.09729999999999994,-0.021120000000000028,0.03820000000000001,1742238626.319964
-0.32499999999999996,0.4650000000000001,-0.44500000000000006,-0.17149999999999999,-0.24303999999999992,0.47216000000000014,-0.015000000000000013,0.004999999999999893,-0.51,0.03747999999999996,-0.11729999999999996,-0.42066000000000003,1742238626.4419358
-0.275,0.51,-0.3400000000000001,0.2376800000000001,0.12146000000000012,-0.28881999999999997,-0.48,-0.81,-0.4099999999999999,0.2923600000000002,-0.33666000000000007,-0.47278,1742238626.55971
-0.020000000000000018,0.21500000000000008,-0.44500000000000006,0.10572000000000004,0.14978000000000002,-0.2522000000000001,-0.20999999999999996,-0.235,-0.4099999999999999,-0.4094200000000001,0.34094,0.56372,1742238626.660865
0.1200000000000001,0.08000000000000007,-0.39,0.012939999999999952,0.0014600000000000168,-0.024899999999999922,0.05499999999999994,-0.07000000000000006,-0.41999999999999993,-0.04700000000000004,0.04027999999999987,0.1888399999999999,1742238626.779902
-0.010000000000000009,0.1100000000000001,-0.48,-0.1018,-0.08299999999999996,0.3407,0.1100000000000001,-0.0050000000000000044,-0.43500000000000005,0.0341800000000001,-0.018179999999999974,-0.18322000000000005,1742238626.9003782
-0.47,0.8500000000000001,-0.32499999999999996,-0.1849400000000001,-0.31164000000000003,0.27159999999999984,-0.15500000000000003,-0.16500000000000004,-0.515,-0.014039999999999941,-0.15295999999999998,-0.495,1742238627.001738
-0.17999999999999994,0.29499999999999993,-0.37,0.3012600000000001,0.29920000000000013,-0.38636000000000004,-0.51,-0.905,-0.36,0.029179999999999984,-0.09974000000000005,0.10289999999999999,1742238627.1200268
0.014999999999999902,0.15999999999999992,-0.385,0.09338000000000002,0.11340000000000017,-0.22144000000000008,-0.09499999999999997,-0.13,-0.42500000000000004,0.05518000000000001,0.14636000000000005,0.36524,1742238627.24003
0.125,0.10000000000000009,-0.365,-0.057620000000000005,0.006099999999999994,0.07166000000000006,0.08000000000000007,-0.03500000000000003,-0.42999999999999994,0.0329600000000001,0.06481999999999988,0.1532,1742238627.3435972
-0.08999999999999997,0.22999999999999998,-0.535,-0.08728000000000002,-0.10387999999999997,0.39038000000000017,0.1499999999999999,0.0,-0.4650000000000001,0.04625999999999997,-0.01746000000000003,-0.22692,1742238627.463104
-0.52,0.95,-0.345,-0.10533999999999999,-0.14781999999999995,0.047599999999999865,-0.20499999999999996,-0.22499999999999998,-0.5,0.027099999999999902,-0.13305999999999996,-0.49438000000000004,1742238627.580299
0.0,0.02499999999999991,-0.43999999999999995,-0.0014600000000000168,-0.053220000000000045,-0.10155999999999998,-0.025000000000000022,-0.040000000000000036,-0.47,0.011360000000000037,0.05054000000000003,0.18981999999999988,1742256326.524748
0.010000000000000009,-0.06499999999999995,-0.41999999999999993,-0.1018,0.0013400000000001189,0.21302,-0.050000000000000044,0.18999999999999995,-0.515,-0.03625999999999996,0.011840000000000073,-0.31079999999999997,1742256326.639248
-0.2849999999999999,0.33499999999999996,-0.47,0.10899999999999999,-0.015859999999999985,0.38038000000000016,-0.27,-0.555,-0.33499999999999996,0.08421999999999996,-0.13660000000000005,-0.41236000000000006,1742256326.752544
-0.345,0.4750000000000001,-0.41500000000000004,0.04920000000000013,0.07190000000000007,-0.22253999999999996,-0.22499999999999998,-0.485,-0.44999999999999996,-0.05346000000000006,0.07385999999999981,0.25805999999999996,1742256326.866473
-0.16500000000000004,0.17999999999999994,-0.44999999999999996,0.04638000000000009,0.05054000000000003,-0.33153999999999995,-0.135,-0.245,-0.41999999999999993,-0.11865999999999999,0.08570000000000011,0.45386000000000015,1742256326.980578
0.0,0.030000000000000027,-0.4099999999999999,0.006720000000000059,-0.012580000000000036,-0.14561999999999997,0.010000000000000009,-0.07499999999999996,-0.45500000000000007,-0.10777999999999999,0.05577999999999994,0.1663800000000002,1742256327.0976691
0.014999999999999902,-0.025000000000000022,-0.42500000000000004,-0.09020000000000006,0.005239999999999911,0.2157,0.020000000000000018,-0.010000000000000009,-0.42999999999999994,-0.036619999999999986,-0.0018400000000000638,-0.16810000000000003,1742256327.208595
-0.275,0.18999999999999995,-0.49,-0.0549400000000001,-0.12684000000000006,0.5067200000000001,-0.24,-0.2849999999999999,-0.42999999999999994,0.27722,-0.11462000000000006,-0.6895800000000001,1742256327.322616
-0.4099999999999999,0.5049999999999999,-0.475,-0.0042799999999999505,0.029059999999999864,-0.13085999999999998,-0.31499999999999995,-0.635,-0.505,0.00537999999999994,-0.07555999999999996,-0.00770000000000004,1742256327.4388638
-0.21999999999999997,0.17999999999999994,-0.475,0.08177999999999996,0.05821999999999994,-0.32604,-0.21499999999999997,-0.31000000000000005,-0.43999999999999995,-0.13978000000000002,0.07654000000000005,0.5278400000000001,1742256327.5505931
-0.07000000000000006,0.040000000000000036,-0.43999999999999995,0.037599999999999856,0.03161999999999998,-0.2619600000000001,-0.07000000000000006,-0.030000000000000027,-0.44999999999999996,-0.09533999999999998,0.12561999999999984,0.41076,1742256327.664454
0.04499999999999993,-0.0050000000000000044,-0.39,-0.028320000000000012,0.0017000000000000348,0.07079999999999997,0.030000000000000027,0.010000000000000009,-0.4099999999999999,0.05298000000000003,0.0006200000000000649,-0.11694000000000004,1742256327.779635
-0.135,-0.015000000000000013,-0.495,-0.08728000000000002,-0.022700000000000053,0.42652,-0.19999999999999996,-0.07000000000000006,-0.45999999999999996,0.10753999999999997,0.0046399999999999775,-0.5344199999999999,1742256327.8926878
-0.38,0.2849999999999999,-0.51,-0.10486000000000006,-0.09326000000000001,0.4193199999999999,-0.32499999999999996,-0.49,-0.47,0.08618000000000015,0.012580000000000036,-0.4174800000000001,1742256328.00657
-0.37,0.29499999999999993,-0.545,0.09948000000000001,0.013679999999999914,-0.24938000000000005,-0.31499999999999995,-0.4650000000000001,-0.545,-0.06994,-0.00048000000000003595,0.3064,1742256328.120489
-0.17500000000000004,0.09499999999999997,-0.5,0.19909999999999983,0.043220000000000036,-0.37536,-0.19999999999999996,-0.18999999999999995,-0.44500000000000006,-0.14403999999999995,-0.0031799999999999606,0.51404,1742256328.2393532
-0.020000000000000018,0.040000000000000036,-0.385,-0.024780000000000024,-0.06053999999999993,-0.07347999999999999,-0.030000000000000027,-0.06499999999999995,-0.43500000000000005,0.035519999999999996,-0.01660000000000006,0.12426000000000004,1742256328.348661
-0.010000000000000009,0.02499999999999991,-0.41500000000000004,-0.04908000000000001,0.010860000000000092,0.1200000000000001,-0.020000000000000018,-0.025000000000000022,-0.42999999999999994,0.05090000000000017,0.010860000000000092,-0.13049999999999995,1742256328.462375
-0.20499999999999996,0.1200000000000001,-0.47,-0.06591999999999998,-0.021480000000000055,0.3454600000000001,-0.19500000000000006,-0.15000000000000002,-0.5,0.015260000000000051,-0.029179999999999984,-0.42577999999999994,1742256328.576726
-0.33499999999999996,0.385,-0.525,-0.07079999999999997,-0.03173999999999999,0.07957999999999998,-0.22999999999999998,-0.535,-0.49,0.0041599999999999415,0.0027999999999999137,-0.11768000000000012,1742256328.690508
-0.245,0.22999999999999998,-0.45500000000000007,0.10888000000000009,0.04283999999999999,-0.26978,-0.15500000000000003,-0.29499999999999993,-0.41999999999999993,-0.048960000000000004,0.018799999999999928,0.25659999999999994,1742256328.804395
-0.135,0.09499999999999997,-0.47,0.05479999999999996,0.05126000000000008,-0.29589999999999994,-0.135,-0.135,-0.45500000000000007,-0.07996000000000003,0.09620000000000006,0.34631999999999996,1742256328.919977
0.030000000000000027,-0.020000000000000018,-0.45500000000000007,-0.0018400000000000638,0.010140000000000038,-0.11474000000000006,-0.050000000000000044,0.014999999999999902,-0.49,0.02391999999999994,0.0577399999999999,0.1482000000000001,1742256329.032567
-0.015000000000000013,-0.025000000000000022,-0.485,-0.07531999999999994,-0.022340000000000027,0.21496000000000004,-0.06499999999999995,0.030000000000000027,-0.49,0.0019599999999999618,-0.018440000000000012,-0.20568000000000008,1742256329.14657
-0.245,0.08000000000000007,-0.5,-0.05810000000000004,-0.04724000000000006,0.4201600000000001,-0.27,-0.10499999999999998,-0.45500000000000007,0.05675999999999992,-0.1018,-0.6117,1742256329.260461
-0.38,0.44999999999999996,-0.52,-0.02636000000000005,0.008059999999999956,-0.036860000000000004,-0.275,-0.47,-0.515,-0.06981999999999988,0.01208000000000009,0.15881999999999996,1742256329.380098
-0.15000000000000002,0.14000000000000012,-0.49,0.06872000000000011,-0.005859999999999976,-0.22631999999999997,-0.135,-0.18999999999999995,-0.485,-0.05553999999999992,-0.015139999999999931,0.27918,1742256329.4884732
-0.040000000000000036,0.014999999999999902,-0.44999999999999996,0.013679999999999914,-0.07311999999999996,-0.17065999999999992,-0.08499999999999996,-0.05500000000000005,-0.47,-0.05358000000000007,0.025020000000000042,0.34875999999999996,1742256329.6024928
0.050000000000000044,-0.015000000000000013,-0.39,-0.015020000000000033,0.005619999999999958,0.006839999999999957,-0.020000000000000018,0.04499999999999993,-0.43999999999999995,0.009519999999999973,-0.006099999999999994,-0.0015800000000000258,1742256329.720015
0.02499999999999991,-0.04500000000000004,-0.49,-0.08338000000000001,0.04272000000000009,0.23303999999999991,-0.12,0.014999999999999902,-0.47,-0.0075599999999999,0.04577999999999993,-0.3114,1742256329.8303978
-0.365,0.23499999999999988,-0.59,-0.28576,-0.048820000000000086,0.43652,-0.275,-0.4650000000000001,-0.42500000000000004,0.20642000000000005,-0.07091999999999998,-0.50756,1742256329.9444711
-0.31000000000000005,0.1100000000000001,-0.59,0.17236000000000007,0.04200000000000004,-0.26636000000000004,-0.2849999999999999,-0.35,-0.4650000000000001,-0.13537999999999994,0.005740000000000078,0.37170000000000014,1742256330.063796
-0.125,0.03499999999999992,-0.48,0.10070000000000001,-0.0014600000000000168,-0.23205999999999993,-0.18500000000000005,-0.15500000000000003,-0.4650000000000001,-0.019039999999999946,0.09838000000000013,0.37194000000000016,1742256330.1725051
0.004999999999999893,-0.050000000000000044,-0.44500000000000006,0.027220000000000022,-0.0012199999999999989,-0.15564,-0.135,0.06499999999999995,-0.51,0.04455999999999993,0.015139999999999931,0.1766399999999999,1742256330.289964
0.02499999999999991,-0.04500000000000004,-0.44999999999999996,-0.05628,0.012700000000000156,0.10864000000000007,-0.09999999999999998,0.06000000000000005,-0.44500000000000006,-0.005240000000000022,-0.0343,-0.18164000000000002,1742256330.400501
-0.125,-0.030000000000000027,-0.545,-0.034420000000000006,-0.005859999999999976,0.31420000000000003,-0.25,-0.07000000000000006,-0.44999999999999996,-0.018440000000000012,-0.03272000000000008,-0.46826,1742256330.514645
-0.37,0.43500000000000005,-0.535,-0.030399999999999983,-0.13978000000000002,0.048960000000000115,-0.28,-0.565,-0.52,0.12646000000000002,-0.036860000000000004,-0.15991999999999995,1742256330.628502
-0.16000000000000003,0.06000000000000005,-0.475,0.09400000000000008,0.08838000000000013,-0.33751999999999993,-0.19999999999999996,-0.18999999999999995,-0.43999999999999995,-0.02636000000000005,-0.009159999999999946,0.28492000000000006,1742256330.742402
-0.020000000000000018,-0.040000000000000036,-0.5,0.05054000000000003,0.056279999999999886,-0.23902,-0.16000000000000003,-0.020000000000000018,-0.485,-0.04491999999999996,0.04785999999999979,0.30455999999999994,1742256330.859884
0.05499999999999994,-0.05500000000000005,-0.44500000000000006,-0.02734000000000003,0.028200000000000003,-0.021480000000000055,-0.08999999999999997,0.09000000000000008,-0.47,-0.00782000000000005,0.0027999999999999137,0.03649999999999998,1742256330.970498
-0.04500000000000004,-0.09499999999999997,-0.535,-0.08484000000000003,0.02442000000000011,0.2841800000000001,-0.15000000000000002,0.04499999999999993,-0.48,-0.04382000000000008,-0.00048000000000003595,-0.27076,1742256331.085724
-0.30499999999999994,0.24,-0.54,-0.14344,-0.12231999999999998,0.3576600000000001,-0.27,-0.355,-0.4650000000000001,0.07642000000000015,-0.09058,-0.4355399999999999,1742256331.200615
-0.2849999999999999,0.21500000000000008,-0.51,0.11988000000000021,0.03968000000000016,-0.19922000000000006,-0.245,-0.30000000000000004,-0.44999999999999996,-0.028079999999999994,-0.020139999999999936,0.18786000000000014,1742256331.312407
-0.09999999999999998,0.004999999999999893,-0.53,0.07933999999999997,0.0625,-0.28028,-0.17500000000000004,-0.14500000000000002,-0.47,-0.04858000000000007,0.07128000000000001,0.33275999999999994,1742256331.426386
0.004999999999999893,-0.07499999999999996,-0.44999999999999996,0.08264000000000005,0.02648000000000006,-0.17358000000000007,-0.125,0.02499999999999991,-0.48,-0.04920000000000002,0.07591999999999999,0.22765999999999997,1742256331.54316
0.010000000000000009,-0.04500000000000004,-0.44500000000000006,-0.007080000000000086,0.02404000000000006,0.12304000000000004,-0.09999999999999998,0.02499999999999991,-0.47,-0.017940000000000067,0.013800000000000034,-0.12,1742256331.660924
-0.19500000000000006,0.05499999999999994,-0.485,-0.05737999999999999,-0.029899999999999927,0.37707999999999986,-0.22999999999999998,-0.050000000000000044,-0.475,-0.027840000000000087,-0.05053999999999992,-0.3274,1742256331.768427
-0.3400000000000001,0.30499999999999994,-0.565,-0.10411999999999999,-0.05274000000000001,0.03198000000000012,-0.32499999999999996,-0.555,-0.42999999999999994,0.15539999999999998,-0.04370000000000007,-0.23229999999999995,1742256331.882519
-0.17999999999999994,0.06000000000000005,-0.535,0.059700000000000086,0.010140000000000038,-0.20201999999999998,-0.24,-0.235,-0.4650000000000001,-0.031000000000000028,-0.012700000000000045,0.2681800000000001,1742256332.002244
-0.09499999999999997,0.020000000000000018,-0.47,0.10070000000000001,0.0295399999999999,-0.23681999999999992,-0.14500000000000002,-0.025000000000000022,-0.4650000000000001,0.05577999999999994,-0.0023200000000000998,0.34129999999999994,1742256332.1103349
0.014999999999999902,-0.04500000000000004,-0.42999999999999994,-0.005979999999999985,0.007440000000000113,-0.04310000000000003,-0.07499999999999996,0.08000000000000007,-0.44500000000000006,0.03833999999999982,0.020259999999999945,0.07740000000000014,1742256332.224422
-0.030000000000000027,-0.020000000000000018,-0.43999999999999995,-0.04589999999999994,0.041140000000000176,0.18725999999999998,-0.13,0.08000000000000007,-0.495,-0.021600000000000064,0.07740000000000014,-0.1804199999999999,1742256332.341627
-0.33499999999999996,0.08000000000000007,-0.54,-0.01660000000000006,0.08448000000000011,0.39026000000000005,-0.21999999999999997,-0.09999999999999998,-0.485,0.013800000000000034,-0.016120000000000023,-0.4041800000000001,1742256332.452299
-0.44500000000000006,0.32499999999999996,-0.55,0.13758000000000004,0.005619999999999958,-0.10144000000000009,-0.235,-0.515,-0.53,-0.03295999999999999,-0.04271999999999998,0.06946000000000008,1742256332.566324
-0.22999999999999998,0.1499999999999999,-0.45500000000000007,0.03833999999999982,-0.07984000000000002,-0.25744,-0.17999999999999994,-0.19999999999999996,-0.49,-0.12634,-0.055299999999999905,0.33094,1742256332.6821911
-0.050000000000000044,0.040000000000000036,-0.4099999999999999,0.05030000000000001,-0.05249999999999999,-0.2329199999999999,-0.10999999999999999,-0.025000000000000022,-0.44999999999999996,-0.0122000000000001,-0.03834000000000004,0.23316000000000003,1742256332.8020852
0.07000000000000006,-0.030000000000000027,-0.36,-0.01867999999999992,0.009519999999999973,-0.037719999999999976,-0.040000000000000036,0.06000000000000005,-0.41999999999999993,0.03381999999999996,0.006720000000000059,-0.0122000000000001,1742256332.908402
-0.015000000000000013,-0.050000000000000044,-0.475,-0.10803999999999991,0.023320000000000007,0.22497999999999996,-0.11499999999999999,0.020000000000000018,-0.44999999999999996,-0.052000000000000046,0.09594000000000014,-0.24268000000000012,1742256333.0235488
-0.3400000000000001,0.05499999999999994,-0.59,-0.08204,0.05884,0.39148000000000005,-0.22499999999999998,-0.42500000000000004,-0.47,-0.3042,-0.08189999999999997,-0.4080799999999999,1742256333.142656
-0.355,0.3500000000000001,-0.545,0.12059999999999982,0.018059999999999965,-0.18212000000000006,-0.21499999999999997,-0.56,-0.29000000000000004,-0.10450000000000004,0.016240000000000032,0.2354799999999999,1742256333.250305
-0.15000000000000002,0.050000000000000044,-0.495,0.10961999999999983,-0.02061999999999997,-0.2854,-0.17999999999999994,-0.29499999999999993,-0.36,0.025880000000000125,0.22828000000000004,0.35938000000000003,1742256333.364466
-0.05500000000000005,0.004999999999999893,-0.485,0.10230000000000006,-0.01415999999999995,-0.2439,-0.08999999999999997,-0.15000000000000002,-0.485,-0.025639999999999996,0.038819999999999855,0.18774000000000002,1742256333.482294
0.10499999999999998,-0.030000000000000027,-0.375,0.02733999999999992,0.00048000000000003595,-0.043220000000000036,-0.020000000000000018,-0.07000000000000006,-0.37,0.011840000000000073,-0.03625999999999996,-0.019039999999999946,1742256333.592313
-0.0050000000000000044,-0.06499999999999995,-0.48,-0.17188000000000003,0.06835999999999998,0.31104,-0.15000000000000002,-0.09499999999999997,-0.45999999999999996,0.053220000000000045,-0.010140000000000038,-0.3186,1742256333.706434
-0.32499999999999996,0.1499999999999999,-0.6,-0.21789999999999998,-0.08362000000000003,0.5072000000000001,-0.31000000000000005,-0.30499999999999994,-0.43999999999999995,0.15611999999999981,-0.13770000000000004,-0.6035200000000001,1742256333.822239
-0.36,0.27,-0.59,0.21058,0.03161999999999998,-0.22765999999999997,-0.33000000000000007,-0.565,-0.41500000000000004,-0.09289999999999998,-0.029779999999999918,0.23292000000000002,1742256333.94252
-0.13,0.06499999999999995,-0.48,0.10046,0.011840000000000073,-0.29224000000000006,-0.20499999999999996,-0.22999999999999998,-0.405,-0.044320000000000026,0.09388000000000019,0.40844000000000014,1742256334.048337
-0.025000000000000022,0.020000000000000018,-0.42999999999999994,0.06567999999999996,0.027579999999999938,-0.23414000000000001,-0.19999999999999996,-0.17000000000000004,-0.44500000000000006,-0.22558,0.24853999999999998,0.43701999999999996,1742256334.163255
0.03499999999999992,-0.06000000000000005,-0.44999999999999996,-0.049919999999999964,0.05711999999999984,0.011840000000000073,-0.10999999999999999,-0.13,-0.43500000000000005,0.014399999999999968,0.03370000000000006,-0.05884,1742256334.283457
-0.050000000000000044,-0.07000000000000006,-0.495,-0.024660000000000015,0.026739999999999986,0.30518,-0.17999999999999994,-0.10499999999999998,-0.4650000000000001,0.025880000000000125,-0.0675,-0.3188399999999999,1742256334.390309
-0.405,0.21999999999999997,-0.65,-0.16491999999999996,-0.11072000000000004,0.4826600000000001,-0.36,-0.54,-0.355,0.0686,-0.20496000000000003,-0.5214799999999999,1742256334.5043352
-0.28,0.19999999999999996,-0.525,0.21142000000000016,-0.00878000000000001,-0.23950000000000005,-0.29499999999999993,-0.53,-0.36,-0.06298000000000004,0.0674999999999999,0.32128,1742256334.622709
-0.07999999999999996,0.004999999999999893,-0.43999999999999995,0.0954600000000001,-0.019159999999999955,-0.22753999999999996,-0.18999999999999995,-0.14500000000000002,-0.43500000000000005,0.033440000000000136,0.055420000000000025,0.3408199999999999,1742256334.732363
0.02499999999999991,-0.025000000000000022,-0.395,0.010860000000000092,0.014639999999999986,-0.13184000000000007,-0.09999999999999998,0.03499999999999992,-0.44999999999999996,0.07385999999999981,0.037839999999999874,0.13122000000000011,1742256334.8463502
0.02499999999999991,-0.07999999999999996,-0.44999999999999996,-0.07629999999999992,0.05553999999999992,0.10816000000000003,-0.10499999999999998,0.040000000000000036,-0.42999999999999994,0.020140000000000047,0.027220000000000022,-0.17381999999999997,1742256334.963289
-0.19500000000000006,-0.11499999999999999,-0.55,-0.1224400000000001,0.11633999999999989,0.36450000000000005,-0.27,-0.17500000000000004,-0.44500000000000006,-0.10498000000000007,-0.09826000000000001,-0.4867,1742256335.074317
-0.37,0.385,-0.6,-0.0916800000000001,-0.08153999999999995,0.07508000000000004,-0.33000000000000007,-0.68,-0.42999999999999994,-0.04296,-0.08240000000000003,-0.024660000000000015,1742256335.188355
-0.18999999999999995,0.02499999999999991,-0.515,0.12304000000000004,-0.0393,-0.22705999999999993,-0.20499999999999996,-0.255,-0.42999999999999994,0.005619999999999958,0.07311999999999985,0.32445999999999997,1742256335.304064
-0.050000000000000044,-0.0050000000000000044,-0.45999999999999996,0.05932000000000004,-0.04700000000000004,-0.20898000000000005,-0.135,-0.17000000000000004,-0.405,0.04027999999999987,0.015139999999999931,0.2378,1742256335.423866
0.07499999999999996,-0.11499999999999999,-0.385,-0.011840000000000073,0.016000000000000014,-0.04370000000000007,-0.08499999999999996,0.06000000000000005,-0.45999999999999996,0.05333999999999994,0.032480000000000064,0.11559999999999993,1742256335.530283
0.02499999999999991,-0.17999999999999994,-0.505,-0.20520000000000005,-0.0031799999999999606,0.30066000000000015,-0.135,0.08000000000000007,-0.44500000000000006,-0.0075599999999999,0.0034199999999999786,-0.32336,1742256335.644376
-0.22499999999999998,0.07499999999999996,-0.635,-0.19641999999999993,-0.04455999999999993,0.3283600000000002,-0.32499999999999996,-0.42999999999999994,-0.495,0.11376000000000008,-0.06591999999999998,-0.42125999999999997,1742256335.7643142
-0.27,0.1499999999999999,-0.585,0.18444000000000016,-0.00012000000000000899,-0.14439999999999997,-0.30499999999999994,-0.43999999999999995,-0.495,-0.019540000000000002,0.006720000000000059,0.24218000000000006,1742256335.872402
-0.10999999999999999,-0.06499999999999995,-0.525,0.17369999999999997,0.010499999999999954,-0.33936,-0.19999999999999996,-0.12,-0.44999999999999996,-0.06762000000000001,0.03527999999999998,0.37792000000000003,1742256335.98633
0.040000000000000036,-0.135,-0.42500000000000004,0.08740000000000014,-0.017940000000000067,-0.20189999999999997,-0.07999999999999996,0.04499999999999993,-0.45500000000000007,-0.10229999999999995,0.020140000000000047,0.2939400000000001,1742256336.103818
0.1299999999999999,-0.14,-0.375,-0.04479999999999995,0.037959999999999994,0.06678000000000006,-0.015000000000000013,0.07499999999999996,-0.405,-0.011480000000000046,0.01635999999999993,-0.11718000000000006,1742256336.223858
-0.12,-0.15500000000000003,-0.525,-0.15246000000000004,0.08654000000000006,0.39061999999999997,-0.245,-0.015000000000000013,-0.485,0.006599999999999939,0.06396000000000002,-0.44396,1742256336.328354
-0.35,0.16999999999999993,-0.7,-0.06994,-0.02076,0.19909999999999983,-0.4099999999999999,-0.665,-0.535,0.17357999999999985,-0.21129999999999993,-0.44544000000000006,1742256336.4444292
-0.235,0.07499999999999996,-0.54,0.20008000000000004,-0.0046399999999999775,-0.29322000000000004,-0.275,-0.30499999999999994,-0.4099999999999999,-0.07886000000000004,-0.0014600000000000168,0.3211600000000001,1742256336.566389
-0.07999999999999996,-0.07000000000000006,-0.51,0.1445399999999999,-0.00782000000000005,-0.3097000000000001,-0.17000000000000004,-0.08999999999999997,-0.45500000000000007,-0.09094000000000002,0.07068000000000008,0.35412,1742256336.670319
0.07499999999999996,-0.13,-0.395,0.06579999999999986,-0.0025599999999998957,-0.1998199999999999,-0.08999999999999997,0.030000000000000027,-0.4650000000000001,-0.05371999999999999,0.04614000000000007,0.13525999999999994,1742256336.78427
0.1100000000000001,-0.19500000000000006,-0.43500000000000005,-0.09155999999999997,0.07861999999999991,0.13978000000000002,-0.07499999999999996,-0.0050000000000000044,-0.42500000000000004,-0.007200000000000095,0.02429999999999999,-0.15637999999999996,1742256336.904541
-0.245,-0.08999999999999997,-0.655,-0.1799400000000001,0.018059999999999965,0.5354000000000001,-0.27,-0.10499999999999998,-0.53,-0.009759999999999991,-0.045539999999999914,-0.4193199999999999,1742256337.012255
-0.355,0.3700000000000001,-0.625,0.12170000000000014,-0.10631999999999997,-0.040039999999999965,-0.3400000000000001,-0.65,-0.43500000000000005,0.056640000000000024,-0.23815999999999993,-0.27454,1742256337.1262898
-0.12,0.010000000000000009,-0.5,0.15295999999999998,0.05235999999999996,-0.2854,-0.245,-0.26,-0.41500000000000004,-0.06896000000000002,0.10364000000000018,0.3495999999999999,1742256337.2447948
-0.020000000000000018,-0.040000000000000036,-0.45500000000000007,0.12353999999999998,0.07006000000000001,-0.26439999999999997,-0.15000000000000002,-0.07000000000000006,-0.56,-0.08263999999999994,0.04944000000000015,0.27905999999999986,1742256337.363798
0.08000000000000007,-0.07000000000000006,-0.41500000000000004,0.021479999999999944,0.05797999999999992,-0.04394000000000009,-0.010000000000000009,0.0,-0.39,-0.07591999999999999,-0.042360000000000064,0.08704,1742256337.4681458
0.010000000000000009,-0.08499999999999996,-0.485,-0.06922000000000006,0.03625999999999996,0.2020200000000001,-0.07999999999999996,-0.040000000000000036,-0.4,0.025140000000000162,0.054200000000000026,-0.1997000000000001,1742256337.588162
-0.27,0.14000000000000012,-0.605,-0.23815999999999993,-0.13915999999999995,0.46777999999999986,-0.27,-0.16500000000000004,-0.485,0.010620000000000074,-0.05506,-0.43077999999999994,1742256337.704881
-0.29499999999999993,0.21500000000000008,-0.575,0.16822000000000004,0.01758000000000015,-0.16248000000000007,-0.32000000000000006,-0.68,-0.42999999999999994,-0.031120000000000037,-0.08996000000000004,0.01758000000000015,1742256337.81008
-0.14,0.08499999999999996,-0.52,0.1394000000000002,0.002080000000000082,-0.2871,-0.18500000000000005,-0.235,-0.41999999999999993,-0.02415999999999996,0.01746000000000003,0.3223800000000001,1742256337.924594
-0.020000000000000018,-0.0050000000000000044,-0.44999999999999996,0.1591800000000001,0.05357999999999996,-0.31079999999999997,-0.09499999999999997,-0.050000000000000044,-0.41500000000000004,-0.031240000000000046,0.05078000000000005,0.32457999999999987,1742256338.046587
0.08499999999999996,-0.08999999999999997,-0.4099999999999999,-0.05615999999999999,0.006839999999999957,0.054440000000000044,-0.03500000000000003,0.0,-0.41999999999999993,0.02648000000000006,0.08421999999999996,0.01428000000000007,1742256338.152147
-0.030000000000000027,-0.12,-0.48,-0.1373199999999999,0.033440000000000136,0.35753999999999997,-0.15000000000000002,-0.06000000000000005,-0.495,-0.0034199999999999786,0.02429999999999999,-0.2649,1742256338.266382
-0.355,0.20500000000000007,-0.635,-0.21545999999999998,-0.05920000000000003,0.5794600000000001,-0.31000000000000005,-0.35,-0.475,0.12548000000000004,-0.1482,-0.54284,1742256338.3840451
-0.3400000000000001,0.23499999999999988,-0.61,0.25963999999999987,-0.0075599999999999,-0.2623199999999999,-0.29000000000000004,-0.45999999999999996,-0.405,-0.12438000000000005,0.007079999999999975,0.28492000000000006,1742256338.50461
-0.07999999999999996,-0.0050000000000000044,-0.43999999999999995,0.09826000000000001,-0.02429999999999999,-0.22863999999999995,-0.15000000000000002,-0.17000000000000004,-0.43500000000000005,-0.04161999999999999,0.0341800000000001,0.28576,1742256338.608284
0.020000000000000018,-0.06499999999999995,-0.4,0.009519999999999973,0.005120000000000013,-0.08751999999999993,-0.07499999999999996,-0.020000000000000018,-0.42500000000000004,0.024540000000000006,0.06152000000000002,0.1642999999999999,1742256338.723781
0.020000000000000018,-0.07000000000000006,-0.4650000000000001,-0.11839999999999995,0.027700000000000058,0.10301999999999989,-0.06499999999999995,0.010000000000000009,-0.44999999999999996,0.047599999999999865,0.006960000000000077,-0.039059999999999984,1742256338.8448262
-0.125,-0.07999999999999996,-0.535,-0.12072000000000005,0.059579999999999966,0.2913800000000002,-0.17000000000000004,-0.040000000000000036,-0.49,-0.014900000000000024,-0.0025599999999998957,-0.34412,1742256338.950276
-0.2849999999999999,0.20500000000000007,-0.635,-0.031000000000000028,-0.014900000000000024,0.07020000000000004,-0.29000000000000004,-0.615,-0.485,0.0577399999999999,-0.046760000000000024,-0.19152000000000002,1742256339.067107
-0.18500000000000005,0.040000000000000036,-0.535,0.14368000000000003,-0.01867999999999992,-0.25427999999999995,-0.19500000000000006,-0.21999999999999997,-0.43500000000000005,-0.06541999999999992,0.008539999999999992,0.3350799999999998,1742256339.1850948
-0.0050000000000000044,-0.06000000000000005,-0.43999999999999995,0.11583999999999994,0.0006200000000000649,-0.2058199999999999,-0.09499999999999997,-0.040000000000000036,-0.44500000000000006,-0.06408000000000003,0.0307599999999999,0.1861600000000001,1742256339.292168
0.040000000000000036,-0.07499999999999996,-0.41500000000000004,-0.01770000000000005,0.01770000000000005,0.0031799999999999606,-0.07000000000000006,-0.015000000000000013,-0.43500000000000005,-0.01966000000000001,0.020499999999999963,-0.03917999999999999,1742256339.406057
-0.030000000000000027,-0.09499999999999997,-0.475,-0.08960000000000001,0.03942000000000001,0.19520000000000004,-0.15500000000000003,-0.050000000000000044,-0.45999999999999996,-0.0047599999999999865,0.009039999999999937,-0.2611,1742256339.525574
-0.275,0.14000000000000012,-0.6,-0.21558,-0.07496000000000003,0.31104,-0.31000000000000005,-0.485,-0.4099999999999999,0.05018000000000011,-0.07799999999999996,-0.4237000000000001,1742256339.644436
-0.24,0.1200000000000001,-0.6,0.12646000000000002,0.029779999999999918,-0.22631999999999997,-0.27,-0.375,-0.4099999999999999,-0.017340000000000022,0.05479999999999996,0.28723999999999994,1742256339.748058
-0.10499999999999998,0.004999999999999893,-0.53,0.14207999999999998,-0.02391999999999994,-0.24731999999999998,-0.21499999999999997,-0.2849999999999999,-0.45500000000000007,-0.04149999999999998,0.05176000000000003,0.32288000000000006,1742256339.8638332
-0.0050000000000000044,-0.040000000000000036,-0.43999999999999995,0.09644000000000008,-0.041019999999999945,-0.21998000000000006,-0.125,-0.050000000000000044,-0.4650000000000001,-0.03186,0.004999999999999893,0.27674,1742256339.984067
0.09000000000000008,-0.07999999999999996,-0.38,-0.011840000000000073,0.013299999999999867,0.01635999999999993,-0.030000000000000027,0.03499999999999992,-0.355,0.009279999999999955,-0.03710000000000002,-0.054440000000000044,1742256340.090085
-0.015000000000000013,-0.10499999999999998,-0.5,-0.10938000000000003,0.046640000000000015,0.30944000000000016,-0.18999999999999995,-0.050000000000000044,-0.43999999999999995,0.020999999999999908,0.016960000000000086,-0.3505799999999999,1742256340.205159
-0.29000000000000004,0.1299999999999999,-0.62,-0.24878,-0.07287999999999994,0.4056399999999998,-0.365,-0.585,-0.475,0.1573399999999998,-0.15552,-0.54638,1742256340.3250802
-0.275,0.1499999999999999,-0.58,0.20031999999999983,0.014639999999999986,-0.26049999999999995,-0.31499999999999995,-0.48,-0.41500000000000004,-0.11021999999999998,0.0040199999999999125,0.37170000000000014,1742256340.432071
-0.09499999999999997,-0.0050000000000000044,-0.505,0.15856000000000003,0.014639999999999986,-0.31701999999999997,-0.17500000000000004,-0.15500000000000003,-0.42500000000000004,-0.07874000000000003,0.06824000000000008,0.41088000000000013,1742256340.5465422
0.03499999999999992,-0.09999999999999998,-0.43500000000000005,0.06666000000000016,0.00048000000000003595,-0.18334000000000006,-0.07499999999999996,0.004999999999999893,-0.43500000000000005,0.00048000000000003595,0.045539999999999914,0.18175999999999992,1742256340.6648269
0.08000000000000007,-0.09499999999999997,-0.42500000000000004,-0.06787999999999994,0.020380000000000065,0.12707999999999986,-0.030000000000000027,0.0,-0.41500000000000004,0.01097999999999999,0.024900000000000144,-0.12878,1742256340.78468
-0.07999999999999996,-0.13,-0.52,-0.12939999999999996,0.026000000000000023,0.39538000000000006,-0.20999999999999996,-0.07000000000000006,-0.49,-0.03370000000000006,-0.0041599999999999415,-0.41333999999999993,1742256340.88809
-0.4,0.345,-0.685,-0.17786000000000002,-0.13891999999999993,0.22448,-0.395,-0.78,-0.515,0.13196000000000008,-0.1528400000000001,-0.33972,1742256341.004726
-0.21999999999999997,0.10499999999999998,-0.54,0.19178000000000006,0.04248000000000007,-0.3734200000000001,-0.255,-0.32499999999999996,-0.405,-0.03515999999999997,0.016119999999999912,0.3799999999999999,1742256341.124256
-0.04500000000000004,-0.09499999999999997,-0.5,0.14990000000000014,0.0283199999999999,-0.36607999999999996,-0.14500000000000002,-0.09999999999999998,-0.41999999999999993,-0.06835999999999998,0.07397999999999993,0.37561999999999984,1742256341.230098
0.08499999999999996,-0.09499999999999997,-0.4099999999999999,0.017340000000000133,0.024660000000000126,-0.07311999999999996,-0.05500000000000005,0.02499999999999991,-0.44500000000000006,-0.013419999999999987,0.01977999999999991,0.09973999999999994,1742256341.3441489
0.07000000000000006,-0.10499999999999998,-0.47,-0.11291999999999991,0.02611999999999992,0.17979999999999996,-0.06000000000000005,-0.025000000000000022,-0.42500000000000004,0.011239999999999917,0.02185999999999999,-0.19544000000000006,1742256341.46426
-0.16000000000000003,-0.10499999999999998,-0.55,-0.13196000000000008,0.026859999999999884,0.46424,-0.29000000000000004,-0.10999999999999999,-0.48,0.025760000000000005,-0.005979999999999985,-0.4776600000000001,1742256341.572173
-0.39,0.3400000000000001,-0.685,-0.037959999999999994,-0.08165999999999995,0.09179999999999988,-0.4,-0.75,-0.54,0.06567999999999996,-0.15870000000000006,-0.19787999999999994,1742256341.6860852
-0.19500000000000006,0.05499999999999994,-0.525,0.14832,0.014639999999999986,-0.266,-0.255,-0.235,-0.395,-0.06847999999999999,0.04785999999999979,0.4008800000000001,1742256341.803874
-0.010000000000000009,-0.09499999999999997,-0.4650000000000001,0.12414000000000014,0.03638000000000008,-0.25122,-0.20999999999999996,-0.06499999999999995,-0.43999999999999995,-0.14525999999999994,0.16161999999999987,0.4878,1742256341.9244428
0.08499999999999996,-0.11499999999999999,-0.43500000000000005,-0.0022000000000000908,0.012700000000000156,-0.01537999999999995,-0.05500000000000005,0.11499999999999999,-0.47,0.07861999999999991,0.00024000000000001798,0.006720000000000059,1742256342.028026
-0.010000000000000009,-0.125,-0.495,-0.09008000000000005,0.01746000000000003,0.2378,-0.19500000000000006,-0.010000000000000009,-0.44999999999999996,0.016960000000000086,-0.0026799999999999047,-0.39112,1742256342.144184
-0.27,0.15999999999999992,-0.635,-0.15588000000000002,-0.09533999999999998,0.3711,-0.42500000000000004,-0.42500000000000004,-0.485,0.20067999999999997,-0.19384,-0.72242,1742256342.265335
-0.30000000000000004,0.2250000000000001,-0.505,0.17286000000000024,-0.0037800000000000056,-0.22851999999999995,-0.355,-0.42999999999999994,-0.41999999999999993,-0.18053999999999992,0.005619999999999958,0.4323800000000002,1742256342.370065
-0.08999999999999997,0.004999999999999893,-0.49,0.11681999999999992,0.06946000000000008,-0.32653999999999994,-0.19999999999999996,-0.10499999999999998,-0.42500000000000004,-0.08105999999999991,0.10753999999999997,0.43018,1742256342.484359
0.020000000000000018,-0.09499999999999997,-0.47,0.034540000000000015,0.027579999999999938,-0.18676000000000004,-0.10999999999999999,0.030000000000000027,-0.45500000000000007,-0.01746000000000003,0.052240000000000064,0.1667400000000001,1742256342.6031518
0.07499999999999996,-0.09499999999999997,-0.44500000000000006,-0.05810000000000004,0.02075999999999989,0.06140000000000012,-0.06499999999999995,-0.015000000000000013,-0.405,0.02635999999999994,0.034540000000000015,-0.16601999999999995,1742256342.712016
-0.040000000000000036,-0.17999999999999994,-0.515,-0.09436,0.06066000000000016,0.3568199999999999,-0.265,-0.03500000000000003,-0.535,0.011360000000000037,0.011719999999999953,-0.44677999999999995,1742256342.826216
-0.405,0.3500000000000001,-0.69,-0.17565999999999993,-0.1583199999999999,0.45043999999999995,-0.51,-0.605,-0.4650000000000001,0.18090000000000006,-0.25318000000000007,-0.69238,1742256342.944361
-0.21999999999999997,0.030000000000000027,-0.51,0.16968000000000005,0.02624000000000004,-0.34986000000000006,-0.3400000000000001,-0.30000000000000004,-0.38,-0.15527999999999997,0.06274000000000002,0.48706000000000005,1742256343.05399
-0.08999999999999997,-0.010000000000000009,-0.4650000000000001,0.13695999999999997,0.054440000000000044,-0.32398000000000005,-0.22499999999999998,-0.11499999999999999,-0.45500000000000007,-0.035640000000000005,0.07579999999999987,0.39294000000000007,1742256343.168155
0.014999999999999902,-0.07999999999999996,-0.43500000000000005,0.015740000000000087,0.02293999999999996,-0.13818000000000008,-0.10999999999999999,0.04499999999999993,-0.4650000000000001,-0.04834000000000005,0.042240000000000055,0.15638000000000019,1742256343.2851222
0.040000000000000036,-0.125,-0.47,-0.07531999999999994,0.04601999999999995,0.14525999999999994,-0.10999999999999999,0.02499999999999991,-0.42500000000000004,-0.018799999999999928,0.025640000000000107,-0.18128,1742256343.405154
-0.12,-0.13,-0.49,-0.05577999999999994,0.05675999999999992,0.40501999999999994,-0.33000000000000007,-0.08999999999999997,-0.475,-0.036860000000000004,-0.05822000000000005,-0.49304000000000003,1742256343.510113
-0.495,0.5049999999999999,-0.72,-0.3200599999999999,-0.18334000000000006,0.2441399999999998,-0.48,-0.765,-0.38,0.16088000000000013,-0.060799999999999965,-0.24829999999999997,1742256343.6245482
-0.235,-0.010000000000000009,-0.52,0.12657999999999991,-0.011480000000000046,-0.33153999999999995,-0.31499999999999995,-0.20499999999999996,-0.395,-0.020019999999999927,0.062140000000000084,0.44300000000000006,1742256343.7449
-0.07499999999999996,-0.04500000000000004,-0.495,0.13172000000000006,0.03698000000000001,-0.28088,-0.245,-0.08999999999999997,-0.44500000000000006,-0.024660000000000015,0.11681999999999992,0.3675599999999999,1742256343.852094
0.030000000000000027,-0.08999999999999997,-0.42500000000000004,-0.00048000000000003595,-0.00988,-0.07591999999999999,-0.125,0.020000000000000018,-0.4099999999999999,0.010259999999999936,-0.011600000000000055,0.11474000000000006,1742256343.968014
0.014999999999999902,-0.10499999999999998,-0.45999999999999996,-0.12291999999999992,0.00878000000000001,0.1875,-0.14,-0.010000000000000009,-0.42999999999999994,-0.00878000000000001,0.007079999999999975,-0.22241999999999995,1742256344.088524
-0.24,-0.08499999999999996,-0.52,-0.11729999999999996,0.02733999999999992,0.45520000000000005,-0.3400000000000001,-0.17999999999999994,-0.43500000000000005,-0.05384,-0.09863999999999995,-0.51734,1742256344.204727
-0.4099999999999999,0.31000000000000005,-0.665,-0.006340000000000012,-0.058599999999999985,0.03723999999999994,-0.4,-0.675,-0.41999999999999993,0.03516000000000008,-0.1433199999999999,-0.12696000000000007,1742256344.308116
-0.25,0.07000000000000006,-0.515,0.12170000000000014,-0.03210000000000002,-0.34302,-0.29499999999999993,-0.26,-0.38,-0.0039000000000000146,0.07972000000000001,0.3959999999999999,1742256344.4255722
-0.050000000000000044,-0.11499999999999999,-0.48,0.10681999999999992,0.005740000000000078,-0.32166000000000006,-0.22999999999999998,-0.025000000000000022,-0.49,-0.06884000000000001,0.14880000000000004,0.4792400000000001,1742256344.5466602
0.06499999999999995,-0.13,-0.41500000000000004,0.005120000000000013,0.0012199999999999989,-0.06140000000000001,-0.08499999999999996,0.02499999999999991,-0.405,0.015020000000000033,-0.026120000000000032,-0.00048000000000003595,1742256344.649853
0.010000000000000009,-0.21999999999999997,-0.475,-0.10131999999999997,0.043339999999999934,0.26550000000000007,-0.20999999999999996,0.10000000000000009,-0.44999999999999996,-0.02942,0.02404000000000006,-0.35107999999999995,1742256344.765332
-0.48,0.020000000000000018,-0.61,-0.19616,-0.029899999999999927,0.63378,-0.565,-0.39,-0.22999999999999998,0.10816000000000003,-0.1274400000000001,-0.91418,1742256344.884952
-0.41999999999999993,0.31000000000000005,-0.565,0.2245999999999999,0.08885999999999994,-0.3983199999999999,-0.485,-0.45999999999999996,-0.4650000000000001,-0.13463999999999998,0.06188000000000016,0.48438000000000003,1742256344.992096
-0.15000000000000002,-0.04500000000000004,-0.565,0.14294000000000007,0.023800000000000043,-0.34546,-0.3400000000000001,-0.14500000000000002,-0.4650000000000001,0.009519999999999973,-0.017080000000000095,0.4544600000000001,1742256345.106011
-0.040000000000000036,-0.125,-0.49,0.09448000000000012,-0.04810000000000003,-0.2379199999999999,-0.18500000000000005,-0.0050000000000000044,-0.45500000000000007,-0.05467999999999995,-0.03736000000000006,0.32776000000000005,1742256345.2254322
0.08000000000000007,-0.12,-0.375,0.006099999999999994,-0.03882000000000008,0.04370000000000007,-0.030000000000000027,0.030000000000000027,-0.33499999999999996,0.033440000000000136,-0.055179999999999896,-0.10620000000000007,1742256345.344791
-0.07000000000000006,-0.18999999999999995,-0.48,-0.13184000000000007,0.0662799999999999,0.4128399999999999,-0.27,-0.05500000000000005,-0.49,0.058339999999999836,0.006960000000000077,-0.5244199999999999,1742256345.448056
-0.3400000000000001,0.23499999999999988,-0.65,-0.30652,-0.18811999999999995,0.49244,-0.44999999999999996,-0.43999999999999995,-0.4650000000000001,0.12329999999999997,-0.16381999999999997,-0.6866399999999999,1742256345.567346
-0.275,0.10499999999999998,-0.555,0.11021999999999998,-0.0043999999999999595,-0.2830799999999999,-0.375,-0.4099999999999999,-0.4,-0.08008000000000004,-0.005979999999999985,0.32654000000000005,1742256345.685506
-0.09499999999999997,-0.06499999999999995,-0.505,0.12524000000000002,0.04735999999999985,-0.34778,-0.29000000000000004,-0.14500000000000002,-0.41500000000000004,-0.023799999999999932,0.08630000000000004,0.48072000000000004,1742256345.7900002
0.03499999999999992,-0.14,-0.44500000000000006,0.05479999999999996,0.02942,-0.15394000000000008,-0.15500000000000003,0.0,-0.44999999999999996,-0.13514000000000004,0.10803999999999991,0.35583999999999993,1742256345.9048169
0.02499999999999991,-0.14500000000000002,-0.44500000000000006,-0.05834000000000006,0.028799999999999937,0.14844000000000013,-0.12,0.004999999999999893,-0.41999999999999993,0.07323999999999997,0.006099999999999994,-0.20936,1742256346.025999
-0.15000000000000002,-0.16000000000000003,-0.515,-0.07264000000000004,0.03735999999999984,0.4251800000000001,-0.35,-0.07000000000000006,-0.4650000000000001,0.10009999999999986,-0.06835999999999998,-0.60266,1742256346.132011
-0.41999999999999993,0.355,-0.65,-0.11120000000000008,-0.14915999999999996,0.15233999999999992,-0.48,-0.69,-0.53,0.04283999999999999,-0.1532,-0.23486000000000007,1742256346.24588
-0.22499999999999998,0.040000000000000036,-0.495,0.13758000000000004,0.01208000000000009,-0.28344,-0.345,-0.22999999999999998,-0.39,-0.08751999999999993,0.058720000000000105,0.48375999999999997,1742256346.365152
-0.10499999999999998,-0.03500000000000003,-0.485,0.12573999999999996,0.06042000000000014,-0.354,-0.3400000000000001,-0.10999999999999999,-0.47,-0.1850599999999999,0.19190000000000018,0.6092599999999999,1742256346.4847
0.030000000000000027,-0.12,-0.44999999999999996,0.010499999999999954,0.016119999999999912,-0.11485999999999996,-0.07499999999999996,0.040000000000000036,-0.42999999999999994,0.10997999999999997,-0.05688000000000004,-0.007320000000000104,1742256346.588563
