L-AccX,L-AccY,L-AccZ,L-GyrX,L-GyrY,L-GyrZ,R-AccX,R-AccY,R-AccZ,R-GyrX,R-GyrY,R-GyrZ,timestamp
0.09499999999999997,0.2849999999999999,0.3799999999999999,0.03370000000000006,-0.01427999999999996,-0.030279999999999974,0.135,-0.43500000000000005,0.21500000000000008,0.06579999999999986,0.06188000000000016,-0.013919999999999932,1742257929.068452
0.07000000000000006,0.3500000000000001,0.33000000000000007,-0.10131999999999997,-0.035519999999999996,-0.018799999999999928,0.1499999999999999,-0.405,0.17999999999999994,-0.006340000000000012,0.09240000000000004,-0.014519999999999977,1742257929.182454
0.030000000000000027,0.3599999999999999,0.30499999999999994,-0.16527999999999998,-0.0675,0.0007399999999999629,0.16999999999999993,-0.4,0.19500000000000006,0.010499999999999954,0.07006000000000001,-0.07481999999999989,1742257929.296343
-0.03500000000000003,0.45500000000000007,0.30000000000000004,-0.036739999999999995,-0.10438000000000003,0.06835999999999998,0.21500000000000008,-0.44500000000000006,0.1499999999999999,-0.11670000000000003,0.016839999999999966,-0.03870000000000007,1742257929.4105852
-0.040000000000000036,0.41999999999999993,0.33000000000000007,-0.008919999999999928,-0.05235999999999996,0.05188000000000015,0.17999999999999994,-0.505,0.2650000000000001,-0.04039999999999999,-0.11584000000000005,0.053220000000000045,1742257929.528577
-0.050000000000000044,0.4099999999999999,0.29499999999999993,0.005120000000000013,0.0317400000000001,0.06872000000000011,0.125,-0.41999999999999993,0.2849999999999999,-0.009279999999999955,0.02307999999999999,0.12597999999999998,1742257929.638252
-0.05500000000000005,0.3799999999999999,0.2650000000000001,0.01868000000000003,0.059819999999999984,0.07520000000000016,0.1499999999999999,-0.375,0.19500000000000006,0.03709999999999991,-0.027220000000000022,0.09935999999999989,1742257929.752306
-0.050000000000000044,0.365,0.22999999999999998,0.059579999999999966,0.048579999999999846,0.08373999999999993,0.15500000000000003,-0.395,0.23499999999999988,0.05018000000000011,-0.1320800000000001,0.06690000000000018,1742257929.8676429
-0.13,0.5049999999999999,0.2749999999999999,0.02198000000000011,-0.042240000000000055,-0.007940000000000058,0.23499999999999988,-0.29000000000000004,0.41999999999999993,-0.12805999999999995,-0.019540000000000002,0.09533999999999998,1742257929.980391
-0.12,0.3500000000000001,0.2250000000000001,-0.05908000000000002,-0.09251999999999994,-0.030279999999999974,0.17999999999999994,-0.43500000000000005,0.22999999999999998,0.0015800000000001369,0.009879999999999889,0.008419999999999872,1742257930.094168
-0.235,0.45999999999999996,0.44999999999999996,-0.03748000000000007,-0.29882,-0.02648000000000006,0.20999999999999996,-0.3400000000000001,0.21999999999999997,0.029179999999999984,-0.03355999999999992,-0.010499999999999954,1742257930.207804
-0.15500000000000003,0.44500000000000006,0.16500000000000004,0.035760000000000014,0.045539999999999914,0.0008600000000000829,0.19500000000000006,-0.395,0.26,0.0014600000000000168,-0.02391999999999994,0.0013400000000001189,1742257930.321321
-0.14500000000000002,0.3999999999999999,0.21999999999999997,-0.034540000000000015,0.021239999999999926,0.008920000000000039,0.16999999999999993,-0.375,0.2450000000000001,-0.016240000000000032,-0.043460000000000054,-0.02624000000000004,1742257930.4354858
-0.125,0.44500000000000006,0.2250000000000001,-0.03161999999999998,0.03405999999999998,-0.008179999999999965,0.15999999999999992,-0.365,0.29000000000000004,-0.009039999999999937,-0.02648000000000006,-0.026980000000000004,1742257930.549498
-0.09999999999999998,0.41500000000000004,0.2450000000000001,0.04797999999999991,0.009160000000000057,-0.03649999999999998,0.15500000000000003,-0.41500000000000004,0.26,0.02293999999999996,0.03272000000000008,-0.01758000000000004,1742257930.66332
-0.10499999999999998,0.41500000000000004,0.25,0.019039999999999946,0.03233999999999981,-0.007200000000000095,0.14500000000000002,-0.385,0.27,0.012700000000000156,0.03601999999999994,-0.016960000000000086,1742257930.777303
-0.08499999999999996,0.43500000000000005,0.2549999999999999,0.016599999999999948,0.07457999999999987,-0.017220000000000013,0.15999999999999992,-0.405,0.21999999999999997,-0.008919999999999928,0.04235999999999995,-0.015859999999999985,1742257930.8913631
-0.05500000000000005,0.43999999999999995,0.22999999999999998,-0.0018400000000000638,0.06518000000000002,-0.016840000000000077,0.16500000000000004,-0.4,0.23499999999999988,0.04078000000000004,0.02307999999999999,-0.016240000000000032,1742257931.008735
-0.04500000000000004,0.43999999999999995,0.2650000000000001,0.019279999999999964,0.017819999999999947,-0.02758000000000005,0.1499999999999999,-0.385,0.19999999999999996,-0.13073999999999997,0.025140000000000162,0.006599999999999939,1742257931.119359
-0.030000000000000027,0.5150000000000001,0.32000000000000006,-0.06628,0.07654000000000005,-0.11987999999999999,0.15999999999999992,-0.43500000000000005,0.21999999999999997,-0.014900000000000024,0.02635999999999994,0.001100000000000101,1742257931.233321
0.09000000000000008,0.4650000000000001,0.19500000000000006,-0.08544000000000007,0.11621999999999999,-0.21655999999999997,0.16500000000000004,-0.4,0.2250000000000001,0.0027999999999999137,0.0032999999999998586,0.009879999999999889,1742257931.3472571
0.21999999999999997,0.345,0.040000000000000036,-0.11499999999999999,0.04479999999999995,-0.19946000000000008,0.16999999999999993,-0.395,0.20999999999999996,-0.006099999999999994,0.011239999999999917,-0.017820000000000058,1742257931.46142
0.2650000000000001,0.345,0.05499999999999994,-0.10144000000000009,-0.07213999999999998,-0.14672000000000007,0.16999999999999993,-0.4099999999999999,0.21999999999999997,0.0015800000000001369,0.011479999999999935,-0.010379999999999945,1742257931.5753229
0.2650000000000001,0.3599999999999999,0.1200000000000001,-0.06115999999999999,-0.08251999999999993,-0.09265999999999996,0.16999999999999993,-0.4,0.21999999999999997,-0.0006199999999999539,0.022699999999999942,-0.022340000000000027,1742257931.689478
0.31499999999999995,0.30000000000000004,0.135,-0.03051999999999999,-0.03051999999999999,-0.060799999999999965,0.16500000000000004,-0.4099999999999999,0.21500000000000008,-0.0025599999999998957,0.023800000000000043,-0.01990000000000003,1742257931.803482
0.30000000000000004,0.355,0.1100000000000001,-0.08287999999999995,-0.01867999999999992,-0.005120000000000013,0.15999999999999992,-0.43500000000000005,0.19999999999999996,-0.007080000000000086,0.006099999999999994,-0.02061999999999997,1742257931.91742
0.31000000000000005,0.3700000000000001,0.09499999999999997,-0.08886000000000005,-0.03760000000000008,0.0042800000000000615,0.15500000000000003,-0.41999999999999993,0.19999999999999996,0.0008600000000000829,-0.002080000000000082,-0.00036000000000002697,1742257932.03141
0.33000000000000007,0.3999999999999999,0.06499999999999995,-0.058599999999999985,-0.024899999999999922,-0.011480000000000046,0.1499999999999999,-0.41500000000000004,0.21999999999999997,0.006460000000000132,-0.006720000000000059,-0.0030599999999999516,1742257932.1479812
0.30499999999999994,0.43999999999999995,0.04499999999999993,-0.05786000000000002,-0.023799999999999932,-0.0514,0.1499999999999999,-0.41999999999999993,0.21500000000000008,0.0012199999999999989,-0.0047599999999999865,-0.006720000000000059,1742257932.259521
0.33499999999999996,0.3799999999999999,0.05499999999999994,-0.03625999999999996,-0.027700000000000058,-0.0036599999999999966,0.14500000000000002,-0.41500000000000004,0.20999999999999996,0.006960000000000077,-0.0032999999999999696,0.0012199999999999989,1742257932.3732312
0.345,0.3700000000000001,0.02499999999999991,-0.02636000000000005,0.01110000000000011,-0.009039999999999937,0.14000000000000012,-0.43500000000000005,0.21500000000000008,-0.0050000000000000044,-0.01978000000000002,-0.0026799999999999047,1742257932.488255
0.32000000000000006,0.33499999999999996,0.04499999999999993,-0.01636000000000004,-0.0032999999999999696,-0.016000000000000014,0.14500000000000002,-0.41500000000000004,0.20999999999999996,0.0025599999999998957,-0.013299999999999979,-0.0050000000000000044,1742257932.6014872
0.3599999999999999,0.365,0.030000000000000027,-0.021720000000000073,-0.03210000000000002,-0.0009799999999999809,0.135,-0.41999999999999993,0.21999999999999997,0.0019599999999999618,-0.009159999999999946,0.0041599999999999415,1742257932.715248
0.3700000000000001,0.31000000000000005,0.04499999999999993,0.03857999999999984,-0.00660000000000005,-0.016960000000000086,0.135,-0.4099999999999999,0.2250000000000001,-0.0035399999999999876,-0.0042799999999999505,0.0023200000000000998,1742257932.832132
0.3500000000000001,0.345,0.06499999999999995,-0.006220000000000003,0.0023200000000000998,-0.009159999999999946,0.1299999999999999,-0.42500000000000004,0.2250000000000001,-0.007940000000000058,-0.0035399999999999876,-0.006099999999999994,1742257932.947958
0.3500000000000001,0.345,0.050000000000000044,-0.062019999999999964,-0.016720000000000068,0.0045200000000000795,0.14500000000000002,-0.41999999999999993,0.25,-0.014399999999999968,0.001100000000000101,-0.005859999999999976,1742257933.0574238
0.365,0.3400000000000001,0.0,0.016599999999999948,-0.04688000000000003,-0.0122000000000001,0.15999999999999992,-0.4099999999999999,0.2450000000000001,-0.04296,0.016000000000000014,0.009519999999999973,1742257933.1712372
0.355,0.30000000000000004,0.05499999999999994,0.04821999999999993,0.02442000000000011,-0.0024400000000001087,0.17500000000000004,-0.38,0.28,-0.07398000000000005,0.008920000000000039,0.05396000000000001,1742257933.290443
0.3400000000000001,0.29499999999999993,0.08000000000000007,0.04932000000000003,0.01415999999999995,0.08435999999999999,0.17500000000000004,-0.365,0.29000000000000004,-0.0625,-0.00048000000000003595,0.06518000000000002,1742257933.399456
0.30499999999999994,0.3500000000000001,0.09499999999999997,0.05603999999999987,0.05896000000000012,0.11988000000000021,0.20500000000000007,-0.31000000000000005,0.32499999999999996,-0.06274000000000002,0.0,0.08325999999999989,1742257933.513276
0.2749999999999999,0.355,0.07499999999999996,0.05054000000000003,0.12292000000000014,0.21276000000000006,0.22999999999999998,-0.36,0.33499999999999996,-0.04613999999999996,-0.01966000000000001,0.10314000000000001,1742257933.627854
0.125,0.42999999999999994,0.05499999999999994,0.22730000000000006,0.12573999999999996,0.22399999999999998,0.21999999999999997,-0.265,0.31499999999999995,-0.021120000000000028,-0.030279999999999974,0.12414000000000014,1742257933.7413251
0.06499999999999995,0.43500000000000005,0.15500000000000003,0.23974000000000006,-0.012580000000000036,0.2562200000000001,0.2250000000000001,-0.21999999999999997,0.3799999999999999,-0.0958199999999999,-0.08629999999999993,0.16027999999999998,1742257933.855335
-0.14,0.6400000000000001,0.08499999999999996,-0.4226,-0.03051999999999999,0.24244,0.22999999999999998,-0.14,0.405,-0.018179999999999974,0.0045200000000000795,0.08874000000000004,1742257933.969237
-0.09999999999999998,0.52,0.15999999999999992,0.29881999999999986,-0.005979999999999985,0.02635999999999994,0.24,-0.07999999999999996,0.3799999999999999,-0.02088000000000001,-0.0007399999999999629,0.05249999999999999,1742257934.087979
-0.07999999999999996,0.21999999999999997,0.3799999999999999,0.30616,0.030019999999999936,0.08275999999999994,0.22999999999999998,-0.08999999999999997,0.3700000000000001,-0.009279999999999955,-0.03698000000000001,-0.017820000000000058,1742257934.197448
-0.17000000000000004,0.4099999999999999,0.44500000000000006,0.027220000000000022,0.007200000000000095,0.00011999999999989797,0.23499999999999988,-0.14500000000000002,0.345,0.015139999999999931,-0.09105999999999992,-0.06335999999999997,1742257934.311841
-0.13,0.3700000000000001,0.5,-0.03649999999999998,0.14647999999999994,-0.16991999999999996,0.26,-0.17999999999999994,0.685,0.016240000000000032,0.2341399999999998,0.06128,1742257934.428594
0.15500000000000003,0.14500000000000002,0.17500000000000004,-0.11914000000000002,0.19996000000000014,-0.1764,0.18999999999999995,-0.15500000000000003,0.395,-0.02429999999999999,0.00550000000000006,0.00011999999999989797,1742257934.539273
0.06499999999999995,0.2849999999999999,0.32000000000000006,0.008059999999999956,-0.07116,0.08972000000000002,0.20500000000000007,-0.13,0.44500000000000006,-0.0048799999999999955,-0.0022000000000000908,0.016119999999999912,1742257934.653456
-0.04500000000000004,0.44999999999999996,0.33499999999999996,-0.23046,-0.10914000000000001,0.14844000000000013,0.21500000000000008,-0.125,0.4750000000000001,-0.01966000000000001,0.040039999999999853,0.013800000000000034,1742257934.77005
-0.07499999999999996,0.44500000000000006,0.20500000000000007,-0.46424,-0.11205999999999994,0.15111999999999992,0.23499999999999988,-0.07999999999999996,0.395,0.0,0.03051999999999988,-0.00024000000000001798,1742257934.881272
-0.09999999999999998,0.49,0.07000000000000006,0.4334800000000001,0.1334200000000001,-0.020019999999999927,0.21999999999999997,-0.07999999999999996,0.3599999999999999,0.0019599999999999618,-0.01966000000000001,-0.024419999999999997,1742257934.995399
-0.17000000000000004,0.5449999999999999,0.31499999999999995,0.25708,-0.011099999999999999,-0.04724000000000006,0.20500000000000007,-0.16000000000000003,0.2450000000000001,0.06054000000000004,-0.14148000000000005,-0.04296,1742257935.1093812
-0.12,0.355,0.54,0.05357999999999996,0.14966000000000013,-0.16834000000000005,0.26,0.03499999999999992,0.405,-0.04932000000000003,-0.030019999999999936,-0.011480000000000046,1742257935.225676
0.1100000000000001,0.004999999999999893,0.1200000000000001,0.08460000000000001,-0.04601999999999995,-0.015739999999999976,0.17999999999999994,-0.17500000000000004,0.43999999999999995,-0.05274000000000001,-0.011240000000000028,-0.0035399999999999876,1742257935.337556
-0.040000000000000036,0.375,0.2849999999999999,-0.3256800000000001,-0.16822000000000004,0.11071999999999993,0.21500000000000008,-0.135,0.42500000000000004,0.008920000000000039,0.016119999999999912,0.012320000000000109,1742257935.45106
-0.14500000000000002,0.5699999999999998,0.09499999999999997,-0.64428,-0.15748000000000006,0.15748000000000006,0.21999999999999997,-0.13,0.43999999999999995,-0.03283999999999998,0.058720000000000105,-0.0048799999999999955,1742257935.569104
-0.16500000000000004,0.5049999999999999,-0.10499999999999998,-0.28124000000000005,-0.052240000000000064,0.0968,0.23499999999999988,-0.06499999999999995,0.42999999999999994,0.00550000000000006,0.04614000000000007,-0.0029199999999999227,1742257935.678186
-0.17000000000000004,0.3400000000000001,-0.29499999999999993,-0.37207999999999997,-0.14427999999999996,0.09057999999999988,0.20500000000000007,-0.135,0.395,-0.019540000000000002,-0.039919999999999956,-0.01317999999999997,1742257935.792344
-0.27,0.51,-0.375,0.26805999999999996,0.1933600000000002,-0.10509999999999997,0.19500000000000006,-0.12,0.3900000000000001,0.017079999999999984,-0.08240000000000003,0.009400000000000075,1742257935.9091551
-0.20999999999999996,0.49,-0.17999999999999994,0.5090399999999999,0.23497999999999997,-0.23985999999999996,0.15500000000000003,-0.11499999999999999,0.41999999999999993,0.04785999999999979,-0.12414000000000003,0.02198000000000011,1742257936.02017
-0.07499999999999996,0.4750000000000001,-0.010000000000000009,0.18542000000000014,0.012700000000000156,-0.1591800000000001,0.11499999999999999,-0.17999999999999994,0.48,0.02540000000000009,-0.19335999999999998,0.0041599999999999415,1742257936.134112
0.010000000000000009,0.395,0.1100000000000001,0.13746000000000014,-0.05018,-0.11865999999999999,0.0,-0.13,0.6499999999999999,0.02222000000000013,0.01990000000000003,0.02185999999999999,1742257936.2498
0.02499999999999991,0.3900000000000001,0.21500000000000008,0.03956000000000004,-0.024899999999999922,-0.030019999999999936,0.06000000000000005,-0.07499999999999996,0.6200000000000001,-0.04394000000000009,0.4300599999999999,-0.06311999999999995,1742257936.362279
0.004999999999999893,0.48,0.17500000000000004,0.06994000000000011,0.027579999999999938,0.012700000000000156,0.20999999999999996,-0.21499999999999997,0.23499999999999988,0.02746000000000004,0.0650599999999999,-0.047599999999999976,1742257936.476282
0.09000000000000008,0.365,0.31499999999999995,-0.17396,0.041380000000000194,0.019039999999999946,0.08000000000000007,-0.22499999999999998,0.42500000000000004,-0.0025599999999998957,-0.18847999999999998,0.026739999999999986,1742257936.590288
0.04499999999999993,0.395,0.2749999999999999,0.04188000000000014,-0.024540000000000006,-0.030019999999999936,0.1100000000000001,-0.14,0.43500000000000005,0.018059999999999965,-0.18408000000000002,-0.01867999999999992,1742257936.709213
0.06000000000000005,0.42999999999999994,0.2650000000000001,0.014399999999999968,0.03527999999999998,-0.006220000000000003,0.06499999999999995,-0.14,0.5150000000000001,-0.0047599999999999865,-0.22460000000000002,0.01977999999999991,1742257936.818256
0.08000000000000007,0.4099999999999999,0.2250000000000001,0.0045200000000000795,0.017340000000000133,-0.014780000000000015,-0.17500000000000004,-0.13,0.75,0.036619999999999875,-0.07079999999999997,0.03956000000000004,1742257936.932279
0.07000000000000006,0.385,0.2250000000000001,0.01097999999999999,-0.037719999999999976,0.001100000000000101,-0.05500000000000005,-0.13,0.44999999999999996,0.06030000000000002,0.63354,-0.019159999999999955,1742257937.0501251
0.04499999999999993,0.41500000000000004,0.20999999999999996,-0.011960000000000082,-0.0858199999999999,0.023800000000000043,0.10499999999999998,-0.17999999999999994,0.2749999999999999,-0.0008599999999999719,-0.19177999999999995,0.0042800000000000615,1742257937.160275
0.06000000000000005,0.41500000000000004,0.3400000000000001,-0.009639999999999982,0.04590000000000005,-0.008919999999999928,0.06499999999999995,-0.15000000000000002,0.53,-0.03870000000000007,-0.040039999999999965,-0.032480000000000064,1742257937.274338
0.014999999999999902,0.41500000000000004,0.2549999999999999,-0.0007399999999999629,0.016720000000000068,0.02526000000000006,0.040000000000000036,-0.17999999999999994,0.5,0.03370000000000006,0.037839999999999874,-0.09387999999999996,1742257937.390362
0.03499999999999992,0.41999999999999993,0.2549999999999999,-0.0035399999999999876,0.010000000000000009,0.016599999999999948,0.06000000000000005,-0.17999999999999994,0.42999999999999994,0.05090000000000017,0.04051999999999989,-0.09277999999999997,1742257937.502221
0.010000000000000009,0.42999999999999994,0.2650000000000001,-0.0034199999999999786,0.022699999999999942,0.023440000000000127,0.06499999999999995,-0.245,0.395,0.01110000000000011,-0.015020000000000033,-0.06237999999999999,1742257937.61628
0.014999999999999902,0.44500000000000006,0.2650000000000001,0.0013400000000001189,0.01966000000000001,0.013419999999999987,0.04499999999999993,-0.265,0.45500000000000007,-0.05676000000000003,-0.09498000000000006,0.03698000000000001,1742257937.730273
0.014999999999999902,0.43999999999999995,0.23499999999999988,0.01966000000000001,0.01635999999999993,-0.014639999999999986,-0.015000000000000013,-0.20499999999999996,0.675,0.009400000000000075,0.04492000000000007,0.16503999999999985,1742257937.844171
0.04499999999999993,0.3799999999999999,0.14000000000000012,-0.026859999999999995,-0.02966000000000002,0.009039999999999937,0.05499999999999994,-0.265,0.19999999999999996,0.08240000000000003,0.12475999999999998,-0.02624000000000004,1742257937.958189
-0.265,0.30000000000000004,1.0,0.10681999999999992,-0.12768000000000002,-0.02954000000000001,0.125,-0.18999999999999995,0.30499999999999994,0.05235999999999996,-0.18872,-0.034540000000000015,1742257938.072383
0.010000000000000009,0.43500000000000005,0.23499999999999988,0.020499999999999963,0.009400000000000075,-0.015020000000000033,0.014999999999999902,-0.18999999999999995,0.4849999999999999,0.048960000000000115,-0.14439999999999997,-0.006960000000000077,1742257938.189942
0.040000000000000036,0.395,0.29000000000000004,-0.01097999999999999,0.06994000000000011,-0.016840000000000077,0.004999999999999893,-0.22999999999999998,0.5150000000000001,0.04785999999999979,-0.10803999999999991,0.020999999999999908,1742257938.300193
0.06000000000000005,0.385,0.25,-0.015739999999999976,0.030999999999999917,-0.01990000000000003,-0.015000000000000013,-0.21499999999999997,0.5550000000000002,-0.014900000000000024,0.04150000000000009,0.04027999999999987,1742257938.414214
0.08499999999999996,0.3799999999999999,0.23499999999999988,-0.013299999999999979,-0.02844000000000002,-0.005859999999999976,0.10000000000000009,-0.18999999999999995,0.5449999999999999,-0.03503999999999996,0.5443200000000001,0.010259999999999936,1742257938.530146
0.030000000000000027,0.41500000000000004,0.20999999999999996,-0.0023200000000000998,-0.07689999999999997,0.0341800000000001,0.16500000000000004,-0.22999999999999998,0.23499999999999988,-0.0050000000000000044,-0.19616,0.020499999999999963,1742257938.642195
0.040000000000000036,0.31499999999999995,0.6200000000000001,-0.018059999999999965,0.12928000000000006,-0.02966000000000002,0.07000000000000006,-0.16000000000000003,0.49,-0.03295999999999999,-0.13329999999999997,0.04699999999999993,1742257938.756392
0.0,0.41999999999999993,0.30499999999999994,0.04455999999999993,0.05821999999999994,-0.007320000000000104,0.02499999999999991,-0.19999999999999996,0.4650000000000001,0.03735999999999984,-0.25024,-0.01758000000000004,1742257938.8701692
0.050000000000000044,0.3900000000000001,0.29499999999999993,0.00865999999999989,0.0343,0.0042800000000000615,0.0,-0.21499999999999997,0.575,0.00537999999999994,-0.007320000000000104,0.02210000000000001,1742257938.990177
0.050000000000000044,0.395,0.27,-0.013299999999999979,0.012820000000000054,-0.0012199999999999989,0.050000000000000044,-0.15000000000000002,0.6200000000000001,-0.048960000000000004,0.5698200000000002,-0.021480000000000055,1742257939.098177
0.040000000000000036,0.3900000000000001,0.21500000000000008,-0.018799999999999928,-0.04271999999999998,0.004999999999999893,0.15500000000000003,-0.17000000000000004,0.2749999999999999,0.04027999999999987,-0.26305999999999996,0.03968000000000016,1742257939.212057
0.014999999999999902,0.10499999999999998,0.845,-0.052000000000000046,0.041020000000000056,0.006220000000000114,0.10499999999999998,-0.17500000000000004,0.5899999999999999,-0.04052,0.06773999999999991,-0.014639999999999986,1742257939.326369
-0.0050000000000000044,0.345,0.33000000000000007,0.031380000000000186,0.046499999999999986,0.036739999999999995,0.24,-0.18999999999999995,0.3799999999999999,-0.009519999999999973,0.16088000000000013,-0.03465999999999991,1742257939.440203
0.014999999999999902,0.3799999999999999,0.23499999999999988,-0.01317999999999997,0.054319999999999924,0.09314,0.2549999999999999,-0.17999999999999994,0.33000000000000007,-0.00024000000000001798,0.023320000000000007,-0.0042799999999999505,1742257939.554177
-0.06499999999999995,0.4650000000000001,0.22999999999999998,0.14525999999999994,-0.043340000000000045,0.0662799999999999,0.2250000000000001,-0.15000000000000002,0.375,-0.01537999999999995,-0.02429999999999999,0.020999999999999908,1742257939.670652
-0.09999999999999998,0.385,0.3999999999999999,0.2170399999999999,-0.11241999999999996,-0.009759999999999991,0.21999999999999997,-0.15000000000000002,0.3700000000000001,0.005980000000000096,-0.008919999999999928,0.007560000000000011,1742257939.782088
-0.18500000000000005,0.45999999999999996,0.69,0.07630000000000003,-0.03527999999999998,-0.04358000000000006,0.1100000000000001,-0.16500000000000004,0.575,0.031500000000000083,-0.20275999999999994,-0.04747999999999997,1742257939.896238
0.050000000000000044,0.22999999999999998,0.365,-0.23363999999999996,0.24646000000000012,-0.1689400000000001,0.14000000000000012,-0.125,0.42500000000000004,-0.017820000000000058,-0.02855999999999992,-0.022580000000000044,1742257940.0111191
-0.010000000000000009,0.19999999999999996,0.30499999999999994,0.023679999999999923,-0.0048799999999999955,-0.04405999999999999,0.1299999999999999,-0.07000000000000006,0.47,-0.021360000000000046,0.022580000000000044,-0.11705999999999994,1742257940.130708
0.030000000000000027,0.2250000000000001,0.47,0.0013400000000001189,0.05761999999999978,0.14466,0.135,-0.17999999999999994,0.405,-0.03076000000000001,0.08850000000000002,-0.20252000000000003,1742257940.238267
0.014999999999999902,0.26,0.405,0.05090000000000017,0.12707999999999986,0.20472,0.15500000000000003,-0.21499999999999997,0.4099999999999999,-0.041139999999999954,0.06274000000000002,-0.19886000000000004,1742257940.35594
0.020000000000000018,0.31499999999999995,0.3799999999999999,0.08373999999999993,0.09606000000000003,0.19604,0.16500000000000004,-0.21499999999999997,0.405,-0.030159999999999965,0.08776000000000006,-0.16858000000000006,1742257940.471628
0.010000000000000009,0.30000000000000004,0.41500000000000004,0.03735999999999984,0.03992000000000018,0.13146000000000013,0.15999999999999992,-0.22499999999999998,0.3799999999999999,-0.015499999999999958,0.08311999999999986,-0.15722000000000003,1742257940.5802171
0.0,0.2650000000000001,0.395,-0.022700000000000053,0.02185999999999999,0.09570000000000012,0.135,-0.245,0.33000000000000007,0.03845999999999994,-0.0009799999999999809,-0.15501999999999994,1742257940.694321
0.020000000000000018,0.19500000000000006,0.29499999999999993,-0.13281999999999994,-0.03942000000000001,0.13378,0.05499999999999994,-0.32499999999999996,0.3900000000000001,-0.009639999999999982,-0.05932000000000004,-0.13573999999999997,1742257940.813787
-0.16000000000000003,0.27,0.29499999999999993,-0.10302,-0.08728000000000002,0.22033999999999998,0.03499999999999992,-0.22499999999999998,0.385,-0.025639999999999996,-0.08508000000000004,-0.09179999999999999,1742257940.922289
-0.265,0.29000000000000004,0.29000000000000004,-0.1311,-0.10327999999999993,0.22204000000000002,-0.030000000000000027,-0.21499999999999997,0.3999999999999999,0.016599999999999948,-0.08020000000000005,-0.12585999999999997,1742257941.03629
-0.31000000000000005,0.29499999999999993,0.25,-0.14002000000000003,-0.08448,0.2048399999999999,-0.135,-0.2849999999999999,0.3799999999999999,-0.028320000000000012,-0.13951999999999998,-0.13244,1742257941.150699
-0.405,0.17999999999999994,0.2549999999999999,0.009160000000000057,-0.08862000000000003,0.21154000000000006,-0.24,-0.245,0.3900000000000001,-0.0393,-0.19738,-0.10229999999999995,1742257941.264888
-0.485,0.15500000000000003,0.16999999999999993,0.07385999999999981,-0.12622,0.23828000000000005,-0.32499999999999996,-0.18500000000000005,0.31499999999999995,0.02293999999999996,-0.25402,-0.13746000000000003,1742257941.378316
-0.52,0.03499999999999992,0.16999999999999993,0.14856000000000003,-0.12426000000000004,0.15442,-0.48,-0.19500000000000006,0.27,0.03088000000000002,-0.21118000000000003,-0.14002000000000003,1742257941.4923258
-0.535,0.03499999999999992,0.11499999999999999,0.029779999999999918,-0.05235999999999996,0.03186,-0.48,-0.16000000000000003,0.27,0.01305999999999985,-0.11108000000000007,-0.013919999999999932,1742257941.611137
-0.495,-0.015000000000000013,0.06499999999999995,0.20166000000000017,0.0015800000000001369,-0.044440000000000035,-0.4650000000000001,-0.135,0.20999999999999996,0.06469999999999998,0.026619999999999866,0.023679999999999923,1742257941.720137
-0.44999999999999996,-0.21499999999999997,0.17999999999999994,0.10925999999999991,-0.0122000000000001,-0.03405999999999998,-0.42999999999999994,-0.10999999999999999,0.1299999999999999,0.0283199999999999,0.06678000000000006,0.010620000000000074,1742257941.834785
-0.49,-0.04500000000000004,0.04499999999999993,0.01428000000000007,0.03198000000000012,0.05003999999999986,-0.43999999999999995,-0.12,0.1499999999999999,0.02198000000000011,-0.019540000000000002,-0.018919999999999937,1742257941.951296
-0.49,-0.05500000000000005,0.07499999999999996,-0.018919999999999937,-0.027840000000000087,0.011479999999999935,-0.44999999999999996,-0.14500000000000002,0.16999999999999993,0.033320000000000016,-0.01305999999999996,-0.00878000000000001,1742257942.0623271
-0.485,-0.08499999999999996,0.09499999999999997,-0.007320000000000104,0.0035399999999998766,0.007200000000000095,-0.44500000000000006,-0.14500000000000002,0.15500000000000003,0.025640000000000107,0.0009799999999999809,0.0019599999999999618,1742257942.176139
-0.48,-0.06499999999999995,0.07000000000000006,-0.0037800000000000056,0.0034199999999999786,0.0048799999999999955,-0.44500000000000006,-0.13,0.15999999999999992,0.014899999999999913,0.007940000000000058,0.0024399999999999977,1742257942.293313
-0.48,-0.07999999999999996,0.08000000000000007,-0.0050000000000000044,-0.0008599999999999719,0.0047600000000000975,-0.44500000000000006,-0.135,0.15999999999999992,0.02075999999999989,0.011479999999999935,-0.007320000000000104,1742257942.410625
-0.48,-0.07999999999999996,0.08000000000000007,-0.006720000000000059,-0.0042799999999999505,0.005120000000000013,-0.44999999999999996,-0.15000000000000002,0.14500000000000002,0.011840000000000073,0.016599999999999948,-0.009159999999999946,1742257942.5182168
-0.475,-0.07999999999999996,0.08499999999999996,-0.0034199999999999786,-0.0006199999999999539,0.007319999999999993,-0.43999999999999995,-0.125,0.15999999999999992,-0.01525999999999994,0.006220000000000114,-0.01660000000000006,1742257942.632221
-0.475,-0.08999999999999997,0.08000000000000007,-0.05262,0.03807999999999989,0.0030599999999998406,-0.43999999999999995,-0.11499999999999999,0.17999999999999994,-0.010259999999999936,0.016599999999999948,-0.01978000000000002,1742257942.75137
-0.47,-0.07999999999999996,0.11499999999999999,-0.08472000000000002,0.04150000000000009,0.0024399999999999977,-0.43500000000000005,-0.10999999999999999,0.17999999999999994,-0.0035399999999999876,0.017340000000000133,-0.02758000000000005,1742257942.871093
-0.45500000000000007,-0.07499999999999996,0.1499999999999999,-0.09314,0.048819999999999864,0.010620000000000074,-0.43999999999999995,-0.09999999999999998,0.18500000000000005,0.008419999999999872,0.01746000000000003,-0.028679999999999928,1742257942.974145
-0.47,-0.06499999999999995,0.16999999999999993,-0.08692,0.022460000000000147,0.02293999999999996,-0.43999999999999995,-0.10499999999999998,0.16999999999999993,0.0047600000000000975,0.005859999999999976,-0.019159999999999955,1742257943.091092
-0.45999999999999996,-0.06000000000000005,0.15999999999999992,-0.05188000000000004,-0.00782000000000005,0.016119999999999912,-0.44500000000000006,-0.10999999999999999,0.19500000000000006,-0.02942,-0.009279999999999955,-0.0015800000000000258,1742257943.2022982
-0.4650000000000001,-0.06000000000000005,0.16500000000000004,-0.03417999999999999,-0.03272000000000008,0.013679999999999914,-0.44999999999999996,-0.125,0.20999999999999996,-0.03173999999999999,-0.0036599999999999966,0.02746000000000004,1742257943.316227
-0.47,-0.050000000000000044,0.1499999999999999,-0.0549400000000001,-0.05298000000000003,0.010620000000000074,-0.43999999999999995,-0.15000000000000002,0.20500000000000007,0.019160000000000066,0.012199999999999989,0.07299999999999995,1742257943.431496
-0.485,-0.040000000000000036,0.135,-0.030159999999999965,-0.03870000000000007,-0.0041599999999999415,-0.42500000000000004,-0.16000000000000003,0.18999999999999995,-0.05896000000000001,0.017220000000000013,0.08776000000000006,1742257943.550409
-0.49,-0.025000000000000022,0.10499999999999998,-0.0514,-0.026000000000000023,-0.01770000000000005,-0.43999999999999995,-0.19500000000000006,0.21500000000000008,-0.08094000000000001,0.028200000000000003,0.1729799999999999,1742257943.6582432
-0.505,-0.0050000000000000044,0.09000000000000008,-0.11865999999999999,-0.07728000000000002,-0.011840000000000073,-0.365,-0.16000000000000003,0.20999999999999996,0.036739999999999995,-0.005859999999999976,0.13146000000000013,1742257943.772251
-0.49,-0.0050000000000000044,0.06000000000000005,-0.09753999999999996,-0.04858000000000007,-0.031120000000000037,-0.345,-0.18500000000000005,0.19500000000000006,-0.01746000000000003,-0.01978000000000002,0.07618000000000014,1742257943.891306
-0.5,0.004999999999999893,0.040000000000000036,-0.04174,-0.031000000000000028,-0.014780000000000015,-0.33499999999999996,-0.19999999999999996,0.17500000000000004,0.10681999999999992,-0.04174,0.017340000000000133,1742257944.000247
-0.48,-0.025000000000000022,0.03499999999999992,0.02929999999999988,0.01758000000000015,-0.025519999999999987,-0.345,-0.19500000000000006,0.14500000000000002,0.2094800000000001,-0.040039999999999965,-0.08362000000000003,1742257944.114344
-0.47,-0.025000000000000022,0.06000000000000005,0.08020000000000005,0.034540000000000015,0.010140000000000038,-0.4099999999999999,-0.41999999999999993,0.004999999999999893,0.3704799999999999,-0.05700000000000005,0.01868000000000003,1742257944.2311869
-0.485,-0.03500000000000003,0.05499999999999994,0.0,0.011360000000000037,0.04039999999999999,-0.35,-0.355,-0.135,0.33142000000000005,-0.03736000000000006,0.08288000000000006,1742257944.342336
-0.495,-0.030000000000000027,0.08000000000000007,-0.05712000000000006,-0.03736000000000006,0.05577999999999994,-0.33499999999999996,-0.33000000000000007,-0.245,0.13904000000000005,-0.09399999999999997,0.062019999999999964,1742257944.4562502
-0.515,-0.025000000000000022,0.050000000000000044,-0.12791999999999992,-0.08081999999999989,0.08435999999999999,-0.31000000000000005,-0.32000000000000006,-0.275,0.09570000000000012,-0.12768000000000002,0.049799999999999844,1742257944.5712872
-0.54,0.010000000000000009,-0.050000000000000044,-0.29688000000000003,-0.11291999999999991,0.02171999999999996,-0.26,-0.33000000000000007,-0.275,0.0017000000000000348,-0.09998000000000007,0.044440000000000035,1742257944.6909928
-0.485,-0.03500000000000003,-0.04500000000000004,-0.06128,-0.04027999999999998,-0.05786000000000002,-0.22999999999999998,-0.33499999999999996,-0.27,-0.08704,-0.060659999999999936,0.051020000000000065,1742257944.798271
-0.515,-0.010000000000000009,-0.09999999999999998,0.007940000000000058,-0.01648000000000005,-0.07311999999999996,-0.18500000000000005,-0.38,-0.26,-0.05615999999999999,-0.02758000000000005,0.03492000000000006,1742257944.912228
-0.515,0.02499999999999991,-0.09499999999999997,0.05738000000000021,-0.07177999999999995,-0.12084000000000006,-0.15000000000000002,-0.39,-0.25,0.011239999999999917,-0.046760000000000024,0.031380000000000186,1742257945.0315058
-0.51,0.07499999999999996,-0.12,0.00550000000000006,-0.11462000000000006,-0.11351999999999995,-0.13,-0.39,-0.2849999999999999,0.08898000000000006,-0.029899999999999927,0.025640000000000107,1742257945.140161
-0.45500000000000007,0.10000000000000009,-0.16500000000000004,-0.06311999999999995,-0.16955999999999993,-0.10033999999999998,-0.125,-0.4099999999999999,-0.32499999999999996,0.0026800000000000157,-0.020499999999999963,0.030279999999999863,1742257945.2541912
-0.41500000000000004,0.1499999999999999,-0.21999999999999997,-0.03942000000000001,-0.1311,-0.062019999999999964,-0.08499999999999996,-0.42999999999999994,-0.29499999999999993,-0.40162,-0.04834000000000005,0.13868000000000014,1742257945.370272
-0.365,0.14500000000000002,-0.265,0.07335999999999987,-0.04271999999999998,-0.07946000000000009,-0.020000000000000018,-0.44500000000000006,-0.09999999999999998,-0.05725999999999998,-0.08299999999999996,0.0638399999999999,1742257945.482281
-0.33499999999999996,0.2250000000000001,-0.265,0.010499999999999954,-0.07103999999999999,-0.06689999999999996,0.004999999999999893,-0.44500000000000006,-0.09999999999999998,0.0029200000000000337,-0.026859999999999995,0.030019999999999936,1742257945.596172
-0.2849999999999999,0.21500000000000008,-0.33000000000000007,-0.22241999999999995,-0.18225999999999998,-0.0075599999999999,0.004999999999999893,-0.4650000000000001,-0.10999999999999999,-0.06640000000000001,0.018179999999999863,0.021239999999999926,1742257945.710573
-0.24,0.16500000000000004,-0.38,-0.11584000000000005,-0.08081999999999989,-0.002080000000000082,0.02499999999999991,-0.495,-0.09499999999999997,-0.02758000000000005,0.016000000000000014,0.0009799999999999809,1742257945.824073
-0.22999999999999998,0.16500000000000004,-0.385,0.11364000000000019,0.04797999999999991,-0.05041999999999991,0.040000000000000036,-0.515,-0.09499999999999997,-0.07068000000000008,0.027099999999999902,0.02416000000000018,1742257945.9380858
-0.28,0.30000000000000004,-0.41999999999999993,0.2878399999999999,0.1309800000000001,-0.11363999999999996,0.040000000000000036,-0.53,-0.050000000000000044,-0.09986000000000006,0.03259999999999996,0.05188000000000015,1742257946.0520792
-0.19999999999999996,0.3500000000000001,-0.20999999999999996,0.51708,0.1655199999999999,-0.13573999999999997,0.07000000000000006,-0.45500000000000007,0.014999999999999902,-0.17224000000000006,0.04161999999999999,0.013800000000000034,1742257946.170485
-0.20499999999999996,0.43500000000000005,0.07499999999999996,0.5640799999999999,0.18676000000000004,-0.20629999999999993,0.07000000000000006,-0.44999999999999996,0.06499999999999995,-0.11170000000000002,0.03308,-0.0393,1742257946.280189
-0.05500000000000005,0.2849999999999999,0.33499999999999996,0.24,0.01648000000000005,-0.15698,0.040000000000000036,-0.47,0.1100000000000001,-0.07496000000000003,0.0047600000000000975,-0.0037800000000000056,1742257946.394101
-0.06499999999999995,0.33000000000000007,0.375,-0.05688000000000004,-0.0035399999999999876,-0.06762000000000001,0.06499999999999995,-0.45999999999999996,0.15999999999999992,-0.01770000000000005,0.0,0.006960000000000077,1742257946.510454
0.0,0.33499999999999996,0.32000000000000006,0.002080000000000082,0.03222000000000014,-0.04052,0.08000000000000007,-0.47,0.17999999999999994,-0.0908199999999999,0.043339999999999934,0.03625999999999996,1742257946.622019
0.040000000000000036,0.32499999999999996,0.33000000000000007,0.03222000000000014,0.029059999999999864,-0.060919999999999974,0.08499999999999996,-0.4650000000000001,0.24,-0.17310000000000003,0.06347999999999998,0.0674999999999999,1742257946.736036
0.0,0.345,0.3599999999999999,0.13758000000000004,-0.014900000000000024,0.0040199999999999125,0.15500000000000003,-0.355,0.24,-0.14746000000000004,0.009160000000000057,0.06407999999999991,1742257946.855158
-0.030000000000000027,0.30499999999999994,0.3999999999999999,0.06347999999999998,-0.04064000000000001,-0.06665999999999994,0.17999999999999994,-0.2849999999999999,0.30000000000000004,-0.17396,-0.06835999999999998,0.09777999999999998,1742257946.9661372
-0.010000000000000009,0.28,0.42500000000000004,0.07957999999999998,-0.04455999999999993,-0.07275999999999994,0.17999999999999994,-0.18999999999999995,0.45999999999999996,-0.09448000000000001,0.045660000000000034,0.04797999999999991,1742257947.078014
0.030000000000000027,0.19999999999999996,0.44500000000000006,0.08007999999999993,0.0006200000000000649,-0.07044000000000006,0.25,-0.07000000000000006,0.33000000000000007,-0.37561999999999995,0.18859999999999988,0.04405999999999999,1742257947.191993
0.020000000000000018,0.16500000000000004,0.42999999999999994,0.0018400000000000638,-0.05737999999999999,-0.02636000000000005,0.20999999999999996,-0.09499999999999997,0.4750000000000001,-0.03834000000000004,-0.06568000000000007,-0.02513999999999994,1742257947.313227
-0.025000000000000022,0.15500000000000003,0.5550000000000002,-0.10509999999999997,0.0031799999999999606,-0.04200000000000004,0.17999999999999994,-0.15500000000000003,0.48,-0.017220000000000013,-0.01648000000000005,-0.07287999999999994,1742257947.420186
0.014999999999999902,0.25,0.45500000000000007,0.005740000000000078,0.034660000000000135,0.012580000000000036,0.18500000000000005,-0.11499999999999999,0.395,0.013299999999999867,0.0040199999999999125,-0.028079999999999994,1742257947.5339992
0.02499999999999991,0.22999999999999998,0.42999999999999994,-0.03308,0.017220000000000013,0.020140000000000047,0.18500000000000005,-0.10499999999999998,0.41500000000000004,-0.008059999999999956,-0.031000000000000028,-0.009039999999999937,1742257947.649958
0.050000000000000044,0.21999999999999997,0.44500000000000006,-0.010379999999999945,0.007560000000000011,0.02540000000000009,0.16999999999999993,-0.07000000000000006,0.5049999999999999,0.07031999999999994,0.06274000000000002,-0.05628,1742257947.761984
0.030000000000000027,0.17999999999999994,0.42999999999999994,-0.016000000000000014,-0.020499999999999963,0.12768000000000002,0.14500000000000002,-0.4099999999999999,0.395,-0.015499999999999958,0.027700000000000058,-0.04908000000000001,1742257947.876069
-0.14500000000000002,0.2749999999999999,0.43999999999999995,-0.08544000000000007,-0.03382000000000007,0.16662,0.20500000000000007,-0.09499999999999997,0.47,-0.010619999999999963,-0.01978000000000002,0.035640000000000116,1742257947.990082
-0.19500000000000006,0.2849999999999999,0.44500000000000006,0.02540000000000009,0.05018000000000011,0.03308,0.20500000000000007,-0.15500000000000003,0.42500000000000004,-0.01085999999999998,-0.00012000000000000899,0.005740000000000078,1742257948.1093178
-0.07000000000000006,0.2250000000000001,0.44999999999999996,0.00878000000000001,0.016599999999999948,-0.020379999999999954,0.19500000000000006,-0.10999999999999999,0.45999999999999996,-0.013539999999999996,-0.0030599999999999516,0.0037799999999998946,1742257948.2180128
-0.020000000000000018,0.22999999999999998,0.42999999999999994,-0.007200000000000095,0.00537999999999994,0.001100000000000101,0.19999999999999996,-0.13,0.42999999999999994,-0.008299999999999974,0.0036599999999999966,-0.0046399999999999775,1742257948.334045
-0.07499999999999996,0.2450000000000001,0.43500000000000005,-0.014399999999999968,0.007200000000000095,0.05944000000000016,0.21500000000000008,-0.12,0.4099999999999999,-0.09986000000000006,-0.03527999999999998,0.016839999999999966,1742257948.449964
-0.07499999999999996,0.25,0.41500000000000004,0.017940000000000067,0.04638000000000009,0.10328000000000004,0.17999999999999994,-0.06499999999999995,0.4849999999999999,-0.03808,-0.06529999999999991,0.04235999999999995,1742257948.612437
-0.08999999999999997,0.26,0.41999999999999993,0.02293999999999996,0.006460000000000132,0.02075999999999989,0.15500000000000003,-0.07000000000000006,0.4849999999999999,-0.0012199999999999989,0.0024399999999999977,-0.04200000000000004,1742257948.674079
-0.10499999999999998,0.25,0.42999999999999994,-0.026859999999999995,-0.001960000000000073,-0.05834000000000006,0.17500000000000004,-0.07499999999999996,0.4650000000000001,0.006599999999999939,0.009279999999999955,0.011479999999999935,1742257948.792423
-0.06000000000000005,0.25,0.44999999999999996,-0.01855999999999991,0.027839999999999865,-0.059700000000000086,0.17500000000000004,-0.07000000000000006,0.47,0.02942,0.07299999999999995,-0.027100000000000013,1742257948.9009778
-0.020000000000000018,0.24,0.41999999999999993,-0.011099999999999999,0.02320000000000011,-0.012319999999999998,0.21999999999999997,-0.135,0.3999999999999999,0.045539999999999914,0.04785999999999979,-0.06262000000000001,1742257949.015002
-0.020000000000000018,0.26,0.42500000000000004,0.00024000000000001798,-0.0012199999999999989,-0.026120000000000032,0.2250000000000001,-0.08499999999999996,0.43500000000000005,-0.021240000000000037,-0.02210000000000001,0.023320000000000007,1742257949.129929
-0.030000000000000027,0.26,0.43999999999999995,0.0035399999999998766,-0.03076000000000001,-0.00660000000000005,0.20999999999999996,-0.09999999999999998,0.43500000000000005,-0.014399999999999968,-0.02758000000000005,0.02746000000000004,1742257949.2431328
-0.03500000000000003,0.2650000000000001,0.41500000000000004,0.048699999999999966,-0.053100000000000036,-0.009399999999999964,0.19500000000000006,-0.08999999999999997,0.44999999999999996,-0.008179999999999965,-0.013799999999999923,0.00782000000000016,1742257949.35702
-0.03500000000000003,0.21999999999999997,0.43999999999999995,0.10143999999999997,-0.08531999999999995,-0.06847999999999999,0.19999999999999996,-0.09999999999999998,0.43999999999999995,0.006839999999999957,-0.007940000000000058,0.00035999999999991594,1742257949.470931
-0.05500000000000005,0.10499999999999998,0.45999999999999996,0.043099999999999916,-0.03698000000000001,-0.005120000000000013,0.18999999999999995,-0.10499999999999998,0.44500000000000006,0.009519999999999973,0.006720000000000059,-0.00770000000000004,1742257949.590589
-0.125,0.15999999999999992,0.45999999999999996,-0.03748000000000007,0.03869999999999996,0.09620000000000006,0.18500000000000005,-0.14500000000000002,0.41999999999999993,-0.028200000000000003,-0.07020000000000004,0.06922000000000006,1742257949.699135
-0.08999999999999997,0.20500000000000007,0.45999999999999996,0.021479999999999944,-0.027700000000000058,-0.0048799999999999955,0.17999999999999994,-0.06000000000000005,0.48,0.03807999999999989,0.03698000000000001,-0.03405999999999998,1742257949.812872
-0.09499999999999997,0.1499999999999999,0.47,-0.0036599999999999966,-0.006460000000000021,0.0031799999999999606,0.20999999999999996,-0.15000000000000002,0.405,0.054319999999999924,0.06372,-0.06603999999999999,1742257949.93069
-0.09999999999999998,0.17999999999999994,0.45999999999999996,0.0012199999999999989,0.008539999999999992,0.0025599999999998957,0.20999999999999996,-0.125,0.44500000000000006,-0.04601999999999995,-0.08422000000000007,0.10009999999999986,1742257950.040929
-0.08999999999999997,0.17500000000000004,0.45999999999999996,-0.005739999999999967,0.0019599999999999618,-0.0045199999999999685,0.15500000000000003,-0.050000000000000044,0.51,-0.022580000000000044,-0.04700000000000004,-0.0040200000000000236,1742257950.155038
-0.09499999999999997,0.16999999999999993,0.45999999999999996,0.0021999999999999797,0.00770000000000004,0.0019599999999999618,0.17500000000000004,-0.06000000000000005,0.47,0.022460000000000147,0.08068000000000008,-0.04455999999999993,1742257950.269747
-0.06499999999999995,0.21999999999999997,0.48,0.0024399999999999977,-0.036739999999999995,0.054319999999999924,0.09000000000000008,-0.13,0.4750000000000001,0.05750000000000011,-0.01978000000000002,-0.03503999999999996,1742258199.887784
-0.17000000000000004,0.2549999999999999,0.5,-0.01085999999999998,-0.017940000000000067,0.01110000000000011,0.040000000000000036,-0.15000000000000002,0.51,-0.008179999999999965,0.008299999999999974,-0.005499999999999949,1742258200.003723
-0.09999999999999998,0.20999999999999996,0.43999999999999995,-0.0015800000000000258,0.012820000000000054,-0.013299999999999979,0.08000000000000007,-0.135,0.48,-0.022580000000000044,-0.023799999999999932,0.02648000000000006,1742258200.1192
-0.08499999999999996,0.20999999999999996,0.45500000000000007,0.017079999999999984,0.02429999999999999,-0.014039999999999941,0.04499999999999993,-0.14,0.51,-0.02966000000000002,0.013539999999999885,0.021479999999999944,1742258200.2316349
-0.09499999999999997,0.18500000000000005,0.47,0.01990000000000003,0.02198000000000011,-0.014639999999999986,0.06000000000000005,-0.10999999999999999,0.45500000000000007,-0.0047599999999999865,0.016240000000000032,0.012320000000000109,1742258200.345678
-0.06000000000000005,0.16999999999999993,0.45999999999999996,-0.022580000000000044,0.03161999999999998,-0.012319999999999998,0.06499999999999995,-0.08999999999999997,0.4650000000000001,0.017940000000000067,0.01428000000000007,0.0026800000000000157,1742258200.459511
-0.050000000000000044,0.1499999999999999,0.45999999999999996,-0.08629999999999993,0.007560000000000011,0.01550000000000007,0.06000000000000005,-0.08499999999999996,0.44500000000000006,0.07481999999999989,-0.005859999999999976,-0.034540000000000015,1742258200.573206
-0.06000000000000005,0.16500000000000004,0.41500000000000004,-0.0908199999999999,-0.017340000000000022,0.06042000000000014,0.030000000000000027,-0.14,0.42999999999999994,0.10827999999999993,-0.02636000000000005,-0.10058,1742258200.6873028
-0.11499999999999999,0.26,0.3500000000000001,-0.08716000000000002,-0.057499999999999996,0.09838000000000013,-0.010000000000000009,-0.24,0.3999999999999999,0.11047999999999991,-0.01097999999999999,-0.11596000000000006,1742258200.8012888
-0.18500000000000005,0.3500000000000001,0.395,-0.11363999999999996,-0.009639999999999982,0.022460000000000147,-0.050000000000000044,-0.29499999999999993,0.405,0.04051999999999989,-0.015499999999999958,-0.10839999999999994,1742258200.9153228
-0.18999999999999995,0.31000000000000005,0.30499999999999994,-0.04259999999999997,-0.02210000000000001,0.06640000000000001,-0.07999999999999996,-0.32000000000000006,0.365,0.06445999999999996,-0.03637999999999997,-0.09924,1742258201.02928
-0.19500000000000006,0.3400000000000001,0.28,-0.10914000000000001,-0.030019999999999936,0.06225999999999998,-0.08999999999999997,-0.41500000000000004,0.3400000000000001,0.11206000000000005,-0.020379999999999954,-0.03979999999999995,1742258201.1434429
-0.25,0.395,0.23499999999999988,-0.11438000000000004,-0.0017000000000000348,0.037599999999999856,-0.09999999999999998,-0.345,0.32499999999999996,-0.011480000000000046,-0.06396000000000002,0.00865999999999989,1742258201.259865
-0.245,0.3900000000000001,0.22999999999999998,-0.011099999999999999,0.0034199999999999786,0.016960000000000086,-0.14500000000000002,-0.3400000000000001,0.3400000000000001,-0.011840000000000073,-0.05041999999999991,0.005120000000000013,1742258201.3712509
-0.26,0.355,0.2250000000000001,0.02320000000000011,-0.015739999999999976,0.07531999999999983,-0.17000000000000004,-0.30000000000000004,0.33000000000000007,0.04039999999999999,-0.00878000000000001,-0.01636000000000004,1742258201.4850829
-0.26,0.3400000000000001,0.2250000000000001,0.03320000000000012,0.007079999999999975,0.0042800000000000615,-0.18500000000000005,-0.32499999999999996,0.29499999999999993,0.07972000000000001,-0.0009799999999999809,-0.07103999999999999,1742258201.599208
-0.26,0.345,0.22999999999999998,0.0014600000000000168,0.0030599999999998406,0.00035999999999991594,-0.18500000000000005,-0.35,0.32499999999999996,0.026619999999999866,0.034540000000000015,-0.0393,1742258201.712992
-0.255,0.3400000000000001,0.23499999999999988,-0.007320000000000104,-0.0008599999999999719,-0.0024400000000001087,-0.19500000000000006,-0.375,0.2749999999999999,0.03747999999999996,-0.002080000000000082,-0.03846000000000005,1742258201.826787
-0.275,0.365,0.23499999999999988,-0.012580000000000036,-0.0046399999999999775,-0.00048000000000003595,-0.21999999999999997,-0.385,0.2549999999999999,0.020019999999999927,-0.005739999999999967,-0.027840000000000087,1742258201.9407868
-0.265,0.3500000000000001,0.2250000000000001,-0.02855999999999992,-0.005120000000000013,0.001100000000000101,-0.21499999999999997,-0.345,0.25,-0.0030599999999999516,-0.00024000000000001798,-0.0023200000000000998,1742258202.05491
-0.255,0.345,0.20999999999999996,-0.061880000000000046,-0.017080000000000095,0.00782000000000016,-0.21999999999999997,-0.355,0.25,0.010140000000000038,-0.0023200000000000998,-0.016120000000000023,1742258202.168776
-0.30000000000000004,0.385,0.17999999999999994,-0.07604,-0.03479999999999994,0.022460000000000147,-0.22499999999999998,-0.345,0.26,0.04614000000000007,-0.013919999999999932,-0.014399999999999968,1742258202.282785
-0.31499999999999995,0.345,0.14000000000000012,-0.09998000000000007,-0.039059999999999984,0.05152000000000001,-0.255,-0.35,0.21500000000000008,0.1471,-0.04637999999999998,-0.08216000000000001,1742258202.399848
-0.31000000000000005,0.385,0.11499999999999999,-0.04358000000000006,0.01195999999999997,0.0354000000000001,-0.29000000000000004,-0.375,0.15999999999999992,0.10021999999999998,0.01758000000000015,-0.04527999999999999,1742258202.5107222
-0.30499999999999994,0.375,0.09499999999999997,-0.02525999999999995,0.06103999999999998,0.014520000000000088,-0.29499999999999993,-0.375,0.1100000000000001,0.05140000000000011,0.03601999999999994,-0.04955999999999994,1742258202.624714
-0.29499999999999993,0.31000000000000005,0.08499999999999996,-0.0046399999999999775,0.03064,0.05821999999999994,-0.2849999999999999,-0.365,0.09000000000000008,0.023560000000000025,0.014780000000000015,-0.04188000000000003,1742258202.739936
-0.33499999999999996,0.2650000000000001,0.08000000000000007,-0.015739999999999976,0.023679999999999923,0.13038000000000016,-0.30499999999999994,-0.31000000000000005,0.06499999999999995,0.08044000000000007,-0.019279999999999964,-0.07984000000000002,1742258202.852812
-0.485,0.3400000000000001,0.10000000000000009,-0.016840000000000077,0.018320000000000114,0.11877999999999989,-0.385,-0.32499999999999996,0.03499999999999992,0.12475999999999998,-0.04858000000000007,-0.11402000000000001,1742258202.966794
-0.395,0.2450000000000001,0.050000000000000044,-0.054320000000000035,-0.027220000000000022,0.09448000000000012,-0.38,-0.275,0.014999999999999902,0.10509999999999997,-0.010259999999999936,-0.08020000000000005,1742258203.085037
-0.42500000000000004,0.15999999999999992,0.020000000000000018,0.005239999999999911,-0.03588000000000002,0.13842,-0.43500000000000005,-0.25,0.0,0.037839999999999874,0.03259999999999996,-0.11705999999999994,1742258203.194738
-0.52,0.1200000000000001,0.06000000000000005,0.14026000000000005,-0.04467999999999994,0.17774,-0.485,-0.245,0.004999999999999893,0.0018400000000000638,0.02855999999999992,-0.11560000000000004,1742258203.308647
-0.545,0.07499999999999996,0.07499999999999996,0.11694000000000004,0.015020000000000033,0.10827999999999993,-0.475,-0.20999999999999996,0.030000000000000027,-0.06408000000000003,0.02442000000000011,-0.03917999999999999,1742258203.422814
-0.515,0.04499999999999993,0.04499999999999993,-0.021240000000000037,0.021360000000000046,-0.0032999999999999696,-0.4650000000000001,-0.19500000000000006,0.020000000000000018,0.02210000000000001,0.0,0.00048000000000003595,1742258203.536564
-0.485,0.010000000000000009,0.05499999999999994,-0.0009799999999999809,-0.0043999999999999595,-0.015619999999999967,-0.45999999999999996,-0.16500000000000004,0.02499999999999991,-0.011840000000000073,-0.00048000000000003595,-0.0012199999999999989,1742258203.650849
-0.495,0.014999999999999902,0.06499999999999995,0.005120000000000013,0.0015800000000001369,0.007560000000000011,-0.4650000000000001,-0.17000000000000004,0.030000000000000027,0.08325999999999989,-0.02636000000000005,0.002080000000000082,1742258203.7646809
-0.49,0.02499999999999991,0.05499999999999994,0.006720000000000059,0.0009799999999999809,0.0035399999999998766,-0.45500000000000007,-0.14500000000000002,0.020000000000000018,-0.011840000000000073,0.01317999999999997,0.01110000000000011,1742258203.88045
-0.495,0.014999999999999902,0.06000000000000005,-0.0013400000000000079,-0.00024000000000001798,-0.0029199999999999227,-0.45999999999999996,-0.17000000000000004,0.020000000000000018,-0.04467999999999994,0.015260000000000051,-0.006460000000000021,1742258203.992735
-0.495,0.020000000000000018,0.06000000000000005,0.00048000000000003595,0.0015800000000001369,-0.00024000000000001798,-0.45999999999999996,-0.17500000000000004,0.040000000000000036,-0.04736000000000007,0.005120000000000013,0.0048799999999999955,1742258204.106664
-0.495,0.020000000000000018,0.06000000000000005,-0.0006199999999999539,0.00035999999999991594,-0.0008599999999999719,-0.45999999999999996,-0.17000000000000004,0.04499999999999993,-0.015139999999999931,0.010739999999999972,-0.0009799999999999809,1742258204.220717
-0.49,0.014999999999999902,0.05499999999999994,-0.0015800000000000258,0.00048000000000003595,-0.0009799999999999809,-0.45999999999999996,-0.16500000000000004,0.050000000000000044,-0.023559999999999914,0.0030599999999998406,0.0019599999999999618,1742258204.334681
-0.495,0.020000000000000018,0.06000000000000005,-0.0042799999999999505,0.002080000000000082,0.0,-0.45500000000000007,-0.17000000000000004,0.08000000000000007,-0.01855999999999991,0.010739999999999972,0.009279999999999955,1742258204.448669
-0.49,0.020000000000000018,0.06000000000000005,-0.006960000000000077,0.009519999999999973,-0.00012000000000000899,-0.45500000000000007,-0.17000000000000004,0.06000000000000005,-0.006220000000000003,0.03186,0.006599999999999939,1742258204.562878
-0.49,0.020000000000000018,0.06000000000000005,0.005239999999999911,-0.00012000000000000899,0.0045200000000000795,-0.44999999999999996,-0.15500000000000003,0.050000000000000044,-0.03503999999999996,-0.001960000000000073,0.0013400000000001189,1742258204.680379
-0.49,0.014999999999999902,0.07000000000000006,0.0029200000000000337,0.0009799999999999809,0.0009799999999999809,-0.44999999999999996,-0.17000000000000004,0.09000000000000008,-0.027100000000000013,-0.02307999999999999,-0.0018400000000000638,1742258204.790848
-0.49,0.020000000000000018,0.06499999999999995,0.002080000000000082,0.0024399999999999977,0.0036599999999999966,-0.45999999999999996,-0.19999999999999996,0.07499999999999996,-0.01758000000000004,0.010140000000000038,0.00537999999999994,1742258204.904654
-0.495,0.040000000000000036,0.09499999999999997,-0.055299999999999905,0.04601999999999995,-0.04394000000000009,-0.44500000000000006,-0.17500000000000004,0.08499999999999996,-0.07787999999999995,-0.006220000000000003,0.06469999999999998,1742258205.0220292
-0.495,0.040000000000000036,0.10499999999999998,-0.07811999999999997,0.03709999999999991,-0.036739999999999995,-0.43999999999999995,-0.17999999999999994,0.11499999999999999,-0.05164000000000002,-0.002080000000000082,0.03857999999999984,1742258205.133753
-0.505,0.09000000000000008,0.10499999999999998,-0.12231999999999998,0.01537999999999995,-0.03088000000000002,-0.44500000000000006,-0.265,0.14500000000000002,-0.06041999999999992,0.012580000000000036,0.09361999999999981,1742258205.2511418
-0.495,0.11499999999999999,0.06000000000000005,-0.19531999999999994,-0.06541999999999992,-0.03846000000000005,-0.4099999999999999,-0.29499999999999993,0.14500000000000002,-0.060799999999999965,0.03638000000000008,0.1665000000000001,1742258205.361751
-0.515,0.19999999999999996,-0.06499999999999995,-0.2889400000000001,-0.19018000000000002,-0.03808,-0.365,-0.30499999999999994,0.1499999999999999,-0.06335999999999997,0.04394000000000009,0.1689400000000001,1742258205.475807
-0.48,0.16999999999999993,-0.10499999999999998,0.03064,-0.07689999999999997,-0.11536000000000002,-0.33000000000000007,-0.38,0.1499999999999999,-0.04382000000000008,-0.006720000000000059,0.14172000000000007,1742258205.589653
-0.48,0.2549999999999999,-0.13,0.016599999999999948,-0.09277999999999997,-0.11729999999999996,-0.255,-0.36,0.1299999999999999,0.0047600000000000975,-0.024660000000000015,0.15429999999999988,1742258205.703577
-0.515,0.3900000000000001,-0.16000000000000003,0.1677200000000001,-0.04174,-0.25805999999999996,-0.19500000000000006,-0.3400000000000001,0.15500000000000003,-0.028079999999999994,-0.0232,0.13038000000000016,1742258205.820972
-0.36,0.405,-0.11499999999999999,0.20300000000000007,-0.09045999999999998,-0.3950199999999999,-0.17000000000000004,-0.4,0.17999999999999994,-0.06616,0.010860000000000092,0.04394000000000009,1742258205.931566
-0.07499999999999996,0.4099999999999999,-0.09999999999999998,0.17846000000000006,-0.12134,-0.50024,-0.13,-0.45999999999999996,0.15999999999999992,-0.015020000000000033,0.009400000000000075,0.06066000000000016,1742258206.045632
0.16999999999999993,0.2549999999999999,0.07000000000000006,0.08338000000000001,-0.15991999999999995,-0.45472,-0.08499999999999996,-0.4099999999999999,0.19999999999999996,-0.11926000000000003,0.008179999999999854,0.06690000000000018,1742258206.1614
0.2250000000000001,0.25,0.16500000000000004,-0.016840000000000077,-0.07091999999999998,-0.21862000000000004,-0.07499999999999996,-0.39,0.27,-0.07323999999999997,-0.018059999999999965,0.035519999999999996,1742258206.2738008
0.32499999999999996,0.29499999999999993,0.1100000000000001,-0.042120000000000046,-0.05371999999999999,-0.10803999999999991,-0.05500000000000005,-0.38,0.31000000000000005,-0.04822000000000004,-0.006340000000000012,0.037599999999999856,1742258206.387688
0.3599999999999999,0.27,0.16500000000000004,-0.025519999999999987,-0.027700000000000058,-0.06541999999999992,-0.050000000000000044,-0.4,0.30000000000000004,-0.028679999999999928,0.02746000000000004,0.033560000000000034,1742258206.501774
0.405,0.26,0.08000000000000007,0.03492000000000006,0.014780000000000015,-0.018059999999999965,-0.040000000000000036,-0.43500000000000005,0.31499999999999995,-0.027700000000000058,-0.014039999999999941,0.058599999999999985,1742258206.615641
0.3799999999999999,0.2650000000000001,0.14000000000000012,-0.02391999999999994,-0.0007399999999999629,-0.010379999999999945,-0.015000000000000013,-0.375,0.355,-0.018320000000000003,0.10498000000000007,0.08129999999999993,1742258206.729646
0.385,0.30499999999999994,0.09499999999999997,-0.03515999999999997,0.0035399999999998766,0.014520000000000088,0.050000000000000044,-0.42500000000000004,0.31499999999999995,0.020999999999999908,0.07103999999999999,0.06957999999999998,1742258206.843362
0.3900000000000001,0.26,0.07499999999999996,-0.057740000000000014,0.0040199999999999125,-0.0050000000000000044,0.125,-0.405,0.32499999999999996,-0.036619999999999986,0.020259999999999945,0.10498000000000007,1742258206.960494
0.41500000000000004,0.2650000000000001,0.10499999999999998,-0.019159999999999955,-0.040159999999999973,-0.00782000000000005,0.14500000000000002,-0.32000000000000006,0.31499999999999995,-0.07275999999999994,0.031239999999999934,0.10742000000000007,1742258207.070501
0.385,0.23499999999999988,0.09499999999999997,0.037959999999999994,-0.04625999999999997,-0.0047599999999999865,0.17500000000000004,-0.22499999999999998,0.32000000000000006,-0.17381999999999997,-0.0122000000000001,0.08142000000000005,1742258207.1845918
0.4099999999999999,0.2250000000000001,0.17500000000000004,0.12451999999999996,-0.03649999999999998,0.015020000000000033,0.17500000000000004,-0.245,0.3900000000000001,-0.10997999999999997,-0.055179999999999896,0.027099999999999902,1742258207.301903
0.43500000000000005,0.2749999999999999,0.16500000000000004,-0.01867999999999992,-0.03465999999999991,0.05726000000000009,0.1100000000000001,-0.15000000000000002,0.4750000000000001,-0.04589999999999994,-0.006460000000000021,0.04577999999999993,1742258207.4125571
0.33000000000000007,0.2450000000000001,0.20500000000000007,0.011360000000000037,-0.023679999999999923,0.029179999999999984,0.21500000000000008,-0.15000000000000002,0.43999999999999995,-0.03186,0.049799999999999844,0.035519999999999996,1742258207.526488
0.32499999999999996,0.2849999999999999,0.23499999999999988,-0.016720000000000068,0.04039999999999999,0.06933999999999996,0.2650000000000001,-0.08999999999999997,0.42999999999999994,-0.08153999999999995,0.05761999999999978,0.05944000000000016,1742258207.641954
0.33499999999999996,0.3500000000000001,0.19999999999999996,0.0034199999999999786,0.0577399999999999,0.054079999999999906,0.2650000000000001,-0.08499999999999996,0.41999999999999993,-0.09570000000000001,0.009279999999999955,0.03272000000000008,1742258207.754475
0.30499999999999994,0.345,0.15999999999999992,-0.01636000000000004,0.01635999999999993,0.03698000000000001,0.2650000000000001,-0.040000000000000036,0.405,-0.06458000000000008,0.009279999999999955,-0.00988,1742258207.868889
0.32000000000000006,0.375,0.14500000000000002,-0.01427999999999996,0.006099999999999994,0.04845999999999995,0.21999999999999997,-0.010000000000000009,0.51,-0.08618000000000003,0.01195999999999997,-0.022820000000000062,1742258207.982576
0.3400000000000001,0.2849999999999999,0.17999999999999994,0.021239999999999926,0.006839999999999957,0.06285999999999992,0.26,0.07499999999999996,0.3700000000000001,-0.04149999999999998,0.029179999999999984,-0.07299999999999995,1742258208.096457
0.25,0.3599999999999999,0.19500000000000006,0.1557599999999999,0.04492000000000007,0.18286000000000002,0.21500000000000008,-0.030000000000000027,0.395,-0.0027999999999999137,-0.024899999999999922,-0.10608000000000006,1742258208.210666
0.21500000000000008,0.4099999999999999,0.2250000000000001,0.09644000000000008,0.026980000000000004,0.12657999999999991,0.21999999999999997,-0.15500000000000003,0.3900000000000001,0.05761999999999978,-0.02429999999999999,-0.02100000000000002,1742258208.324556
0.1200000000000001,0.44999999999999996,0.24,0.11229999999999984,0.012939999999999952,0.08094000000000001,0.24,-0.07999999999999996,0.4750000000000001,0.0046399999999999775,-0.01636000000000004,0.03503999999999996,1742258208.441856
0.15500000000000003,0.385,0.28,0.09436,-0.02525999999999995,0.0942400000000001,0.23499999999999988,-0.030000000000000027,0.4650000000000001,0.03857999999999984,-0.005859999999999976,0.02929999999999988,1742258208.552475
0.1499999999999999,0.33499999999999996,0.355,0.15905999999999998,0.0009799999999999809,0.056640000000000024,0.20500000000000007,-0.07499999999999996,0.48,0.07190000000000007,-0.006720000000000059,-0.06128,1742258208.6665962
0.08499999999999996,0.45500000000000007,0.33000000000000007,0.4596,0.06359999999999988,0.03735999999999984,0.17999999999999994,-0.10499999999999998,0.3999999999999999,0.011360000000000037,0.05726000000000009,-0.13758000000000004,1742258208.781823
-0.020000000000000018,0.125,0.53,0.053220000000000045,-0.1018,-0.10596000000000005,0.29000000000000004,-0.22499999999999998,0.44999999999999996,0.020499999999999963,0.016000000000000014,-0.14758000000000004,1742258208.894604
0.08000000000000007,-0.0050000000000000044,0.5150000000000001,0.1236600000000001,-0.03382000000000007,-0.08105999999999991,0.17500000000000004,-0.22499999999999998,0.355,0.05468000000000006,0.03370000000000006,-0.16149999999999998,1742258209.0085802
0.08000000000000007,-0.025000000000000022,0.48,-0.1189,0.051140000000000185,0.01758000000000015,0.14000000000000012,-0.345,0.3500000000000001,0.10021999999999998,0.035880000000000134,-0.1654,1742258209.122418
0.11499999999999999,0.0,0.43999999999999995,-0.09899999999999998,0.1656399999999998,0.11877999999999989,0.14500000000000002,-0.33499999999999996,0.29499999999999993,0.09985999999999984,0.17042000000000002,-0.1945800000000001,1742258209.242073
0.19500000000000006,0.18999999999999995,0.3400000000000001,0.0018400000000000638,0.08996000000000004,0.22546,0.14500000000000002,-0.43999999999999995,0.16500000000000004,0.00024000000000001798,0.0009799999999999809,-0.08801999999999999,1742258209.350351
0.09000000000000008,0.25,0.41999999999999993,-0.10070000000000001,-0.03748000000000007,0.05848000000000009,0.09000000000000008,-0.44500000000000006,0.23499999999999988,0.019039999999999946,-0.11351999999999995,-0.037959999999999994,1742258209.464446
0.09499999999999997,0.31499999999999995,0.5699999999999998,-0.13939999999999997,-0.09605999999999992,0.11461999999999994,0.04499999999999993,-0.42500000000000004,0.2749999999999999,-0.013419999999999987,-0.043220000000000036,-0.0032999999999999696,1742258209.5848792
0.050000000000000044,0.355,0.32000000000000006,-0.16370000000000007,0.01305999999999985,0.07885999999999993,0.07000000000000006,-0.3400000000000001,0.30000000000000004,-0.3674400000000001,-0.04858000000000007,0.20043999999999995,1742258209.692503
0.050000000000000044,0.3500000000000001,0.32499999999999996,-0.14686,0.033440000000000136,0.11827999999999994,0.06499999999999995,-0.20999999999999996,0.42999999999999994,-0.13391999999999993,-0.08068000000000008,0.19788000000000006,1742258209.806515
0.0,0.41999999999999993,0.2650000000000001,-0.08326,-0.031000000000000028,0.08129999999999993,0.08000000000000007,-0.19999999999999996,0.45999999999999996,0.012199999999999989,-0.09899999999999998,0.17503999999999986,1742258209.92237
-0.04500000000000004,0.44500000000000006,0.22999999999999998,0.009400000000000075,-0.042360000000000064,-0.0007399999999999629,0.07000000000000006,-0.15000000000000002,0.48,-0.0008599999999999719,-0.09789999999999999,0.20178000000000007,1742258210.034483
-0.030000000000000027,0.385,0.30499999999999994,0.0638399999999999,-0.016960000000000086,-0.0036599999999999966,0.05499999999999994,-0.15500000000000003,0.5049999999999999,-0.04589999999999994,-0.07984000000000002,0.11877999999999989,1742258210.1484869
-0.07999999999999996,0.42500000000000004,0.355,-0.07410000000000005,-0.0045199999999999685,-0.02954000000000001,0.030000000000000027,-0.135,0.48,0.00537999999999994,-0.03405999999999998,0.09277999999999986,1742258210.262351
0.010000000000000009,0.3999999999999999,0.25,0.00011999999999989797,0.010860000000000092,-0.01097999999999999,0.10499999999999998,-0.16500000000000004,0.48,0.19288000000000016,0.07591999999999999,0.04908000000000001,1742258210.380797
-0.030000000000000027,0.3999999999999999,0.31499999999999995,0.05346000000000006,-0.041019999999999945,-0.0037800000000000056,0.1100000000000001,-0.25,0.3900000000000001,0.12597999999999998,0.04370000000000007,0.09349999999999992,1742258210.489498
-0.040000000000000036,0.405,0.31499999999999995,0.008179999999999854,-0.01525999999999994,-0.030279999999999974,0.15500000000000003,-0.245,0.385,-0.0012199999999999989,0.006960000000000077,0.07933999999999997,1742258210.6065
-0.010000000000000009,0.385,0.32000000000000006,0.02210000000000001,-0.0050000000000000044,-0.06140000000000001,0.1499999999999999,-0.24,0.3999999999999999,-0.03088000000000002,0.005619999999999958,-0.008660000000000001,1742258210.722134
0.010000000000000009,0.3799999999999999,0.31499999999999995,0.1190199999999999,-0.006840000000000068,-0.015499999999999958,0.15500000000000003,-0.25,0.395,-0.07091999999999998,0.027700000000000058,-0.03186,1742258210.8314629
-0.015000000000000013,0.33499999999999996,0.42500000000000004,0.08716000000000013,-0.027700000000000058,-0.024780000000000024,0.1499999999999999,-0.245,0.405,-0.007320000000000104,0.0008600000000000829,-0.016240000000000032,1742258210.945635
0.0,0.32000000000000006,0.385,0.00550000000000006,-0.03161999999999998,-0.00024000000000001798,0.15999999999999992,-0.21999999999999997,0.41500000000000004,-0.044320000000000026,0.030019999999999936,-0.03882000000000008,1742258211.065245
-0.010000000000000009,0.31499999999999995,0.385,0.0024399999999999977,-0.025399999999999978,-0.036739999999999995,0.1499999999999999,-0.16500000000000004,0.44999999999999996,-0.14294000000000007,0.030399999999999983,-0.048820000000000086,1742258211.173517
-0.0050000000000000044,0.30000000000000004,0.405,0.011239999999999917,0.0012199999999999989,-0.018059999999999965,0.15500000000000003,-0.135,0.41500000000000004,-0.04382000000000008,-0.020259999999999945,-0.08326,1742258211.287678
0.004999999999999893,0.31000000000000005,0.3700000000000001,0.020259999999999945,-0.00048000000000003595,-0.017940000000000067,0.07499999999999996,-0.14,0.4950000000000001,-0.07311999999999996,-0.09998000000000007,-0.17553999999999992,1742258211.402011
0.010000000000000009,0.28,0.42999999999999994,0.0295399999999999,-0.0030599999999999516,0.005980000000000096,0.03499999999999992,-0.14,0.48,-0.012319999999999998,0.012939999999999952,-0.12951999999999997,1742258211.5155818
0.0,0.29000000000000004,0.4099999999999999,0.020380000000000065,-0.0041599999999999415,-0.0025599999999998957,0.020000000000000018,-0.16000000000000003,0.4650000000000001,0.007079999999999975,-0.017340000000000022,-0.09314,1742258211.629532
0.0,0.2749999999999999,0.41999999999999993,0.01305999999999985,-0.00012000000000000899,0.002080000000000082,0.030000000000000027,-0.18500000000000005,0.44500000000000006,-0.0048799999999999955,0.030279999999999863,-0.03942000000000001,1742258211.745095
0.004999999999999893,0.2749999999999999,0.41500000000000004,0.009160000000000057,0.0034199999999999786,0.010140000000000038,0.014999999999999902,-0.16000000000000003,0.49,0.01990000000000003,-0.00024000000000001798,-0.07434000000000007,1742258211.861848
0.0,0.2749999999999999,0.42999999999999994,-0.026120000000000032,0.01428000000000007,0.0021999999999999797,0.020000000000000018,-0.16500000000000004,0.48,0.0027999999999999137,0.08570000000000011,-0.10777999999999999,1742258211.9714172
0.0,0.29000000000000004,0.41999999999999993,-0.016840000000000077,0.015260000000000051,0.008179999999999854,0.04499999999999993,-0.20999999999999996,0.43999999999999995,0.02075999999999989,0.06579999999999986,-0.04688000000000003,1742258212.0854368
0.014999999999999902,0.29000000000000004,0.3999999999999999,-0.011840000000000073,0.024540000000000006,0.018920000000000048,0.08000000000000007,-0.16500000000000004,0.44500000000000006,0.0019599999999999618,0.03723999999999994,-0.02758000000000005,1742258212.202334
0.004999999999999893,0.28,0.3999999999999999,0.013419999999999987,0.012320000000000109,0.09570000000000012,0.07499999999999996,-0.20499999999999996,0.45500000000000007,0.0036599999999999966,0.007940000000000058,-0.04637999999999998,1742258212.313442
-0.0050000000000000044,0.30000000000000004,0.3999999999999999,0.010620000000000074,0.025880000000000125,0.04248000000000007,0.07000000000000006,-0.19500000000000006,0.42500000000000004,0.0019599999999999618,-0.010739999999999972,-0.023679999999999923,1742258212.427625
-0.020000000000000018,0.28,0.42999999999999994,0.05261999999999989,0.01635999999999993,0.04405999999999999,0.06499999999999995,-0.17999999999999994,0.45999999999999996,-0.0007399999999999629,0.0009799999999999809,-0.05188000000000004,1742258212.543948
-0.015000000000000013,0.25,0.42999999999999994,0.0307599999999999,0.021360000000000046,0.03320000000000012,0.050000000000000044,-0.19999999999999996,0.43999999999999995,0.0,-0.007080000000000086,-0.03858000000000006,1742258212.655446
-0.015000000000000013,0.23499999999999988,0.42999999999999994,0.012320000000000109,0.018059999999999965,0.02942,0.040000000000000036,-0.19999999999999996,0.44999999999999996,-0.0036599999999999966,-0.02061999999999997,-0.018440000000000012,1742258212.769501
-0.015000000000000013,0.22999999999999998,0.43999999999999995,0.03869999999999996,0.004999999999999893,0.020259999999999945,0.03499999999999992,-0.18999999999999995,0.43999999999999995,0.007079999999999975,-0.02501999999999993,-0.009159999999999946,1742258212.8835368
-0.015000000000000013,0.21999999999999997,0.43999999999999995,0.015740000000000087,-0.0010999999999999899,0.013800000000000034,0.010000000000000009,-0.20499999999999996,0.44999999999999996,0.0009799999999999809,-0.025399999999999978,-0.010499999999999954,1742258213.0019672
-0.025000000000000022,0.21500000000000008,0.44500000000000006,0.0008600000000000829,-0.010140000000000038,-0.0007399999999999629,-0.0050000000000000044,-0.19999999999999996,0.44999999999999996,-0.005619999999999958,-0.021600000000000064,-0.007940000000000058,1742258213.111658
-0.03500000000000003,0.21999999999999997,0.45500000000000007,0.010259999999999936,-0.013419999999999987,0.007079999999999975,-0.015000000000000013,-0.19999999999999996,0.44999999999999996,-0.00012000000000000899,-0.01660000000000006,-0.0029199999999999227,1742258213.225635
-0.040000000000000036,0.20999999999999996,0.45500000000000007,0.013419999999999987,-0.021360000000000046,0.007560000000000011,-0.025000000000000022,-0.19999999999999996,0.44999999999999996,-0.011240000000000028,-0.022220000000000018,-0.00012000000000000899,1742258213.342381
-0.050000000000000044,0.20999999999999996,0.44500000000000006,0.009160000000000057,-0.01660000000000006,-0.0010999999999999899,-0.030000000000000027,-0.19500000000000006,0.45500000000000007,-0.012820000000000054,-0.010379999999999945,0.005239999999999911,1742258213.453534
-0.05500000000000005,0.20999999999999996,0.44500000000000006,0.007079999999999975,0.0032999999999998586,-0.001960000000000073,-0.03500000000000003,-0.18500000000000005,0.44999999999999996,-0.009039999999999937,-0.02624000000000004,0.0018400000000000638,1742258213.5675368
-0.05500000000000005,0.20999999999999996,0.44999999999999996,-0.0035399999999999876,-0.005240000000000022,-0.0012199999999999989,-0.05500000000000005,-0.18999999999999995,0.45500000000000007,-0.020499999999999963,-0.03320000000000001,0.006599999999999939,1742258213.6821811
-0.06000000000000005,0.20999999999999996,0.44999999999999996,0.0,-0.0009799999999999809,-0.0009799999999999809,-0.07000000000000006,-0.16500000000000004,0.4750000000000001,-0.017340000000000022,-0.01746000000000003,0.0024399999999999977,1742258213.795527
-0.06499999999999995,0.20999999999999996,0.44999999999999996,0.00011999999999989797,-0.0012199999999999989,-0.0008599999999999719,-0.07499999999999996,-0.16500000000000004,0.4650000000000001,0.0034199999999999786,-0.0075599999999999,0.006839999999999957,1742258213.909406
-0.06000000000000005,0.20999999999999996,0.44999999999999996,0.0043999999999999595,0.0023200000000000998,-0.0007399999999999629,-0.07499999999999996,-0.17000000000000004,0.4650000000000001,-0.0015800000000000258,-0.0037800000000000056,0.0007399999999999629,1742258214.023415
-0.06000000000000005,0.20999999999999996,0.44999999999999996,0.0008600000000000829,0.00011999999999989797,-0.00024000000000001798,-0.07000000000000006,-0.16500000000000004,0.45500000000000007,-0.0008599999999999719,-0.0009799999999999809,0.00048000000000003595,1742258214.141948
-0.06000000000000005,0.20999999999999996,0.44999999999999996,0.0019599999999999618,-0.00012000000000000899,-0.00048000000000003595,-0.07499999999999996,-0.17000000000000004,0.45500000000000007,0.00048000000000003595,0.00011999999999989797,-0.00024000000000001798,1742258214.251538
-0.06000000000000005,0.20999999999999996,0.44999999999999996,0.00024000000000001798,-0.00012000000000000899,-0.00012000000000000899,-0.07000000000000006,-0.16500000000000004,0.45500000000000007,-0.00012000000000000899,0.00011999999999989797,0.0006200000000000649,1742258214.36557
-0.06000000000000005,0.20999999999999996,0.44999999999999996,0.00024000000000001798,0.00048000000000003595,-0.00012000000000000899,-0.07499999999999996,-0.16500000000000004,0.45500000000000007,-0.0009799999999999809,-0.0012199999999999989,0.0014600000000000168,1742258214.481685
-0.06000000000000005,0.20999999999999996,0.44999999999999996,0.0009799999999999809,0.00035999999999991594,-0.00012000000000000899,-0.07499999999999996,-0.17000000000000004,0.45500000000000007,-0.00012000000000000899,-0.0007399999999999629,0.00048000000000003595,1742258214.593645
-0.06000000000000005,0.20500000000000007,0.44999999999999996,-0.0007399999999999629,-0.00036000000000002697,0.00035999999999991594,-0.07499999999999996,-0.16500000000000004,0.45999999999999996,-0.0025599999999998957,0.0,0.0013400000000001189,1742258214.70754
-0.06000000000000005,0.20999999999999996,0.44999999999999996,-0.0013400000000000079,-0.0007399999999999629,0.0012199999999999989,-0.07499999999999996,-0.16500000000000004,0.45999999999999996,-0.0015800000000000258,-0.00036000000000002697,0.0021999999999999797,1742258214.822061
-0.06499999999999995,0.20999999999999996,0.45500000000000007,0.0048799999999999955,0.0013400000000001189,0.00011999999999989797,-0.07499999999999996,-0.16500000000000004,0.45500000000000007,-0.0010999999999999899,0.0012199999999999989,-0.0040200000000000236,1742258214.935658
-0.06000000000000005,0.20999999999999996,0.44999999999999996,-0.00024000000000001798,-0.00012000000000000899,-0.0008599999999999719,-0.07499999999999996,-0.16500000000000004,0.45999999999999996,0.00035999999999991594,0.0008600000000000829,0.0018400000000000638,1742258215.0493388
-0.06000000000000005,0.20999999999999996,0.44999999999999996,0.00048000000000003595,0.00024000000000001798,-0.0009799999999999809,-0.06499999999999995,-0.16000000000000003,0.45500000000000007,-0.0026799999999999047,0.001100000000000101,0.0036599999999999966,1742258215.163553
-0.06000000000000005,0.20999999999999996,0.44999999999999996,-0.0009799999999999809,0.00011999999999989797,-0.00024000000000001798,-0.07000000000000006,-0.16500000000000004,0.45500000000000007,-0.00036000000000002697,-0.0007399999999999629,0.00011999999999989797,1742258215.281729
-0.06000000000000005,0.20999999999999996,0.44999999999999996,0.00024000000000001798,0.0,-0.00024000000000001798,-0.07499999999999996,-0.16500000000000004,0.45500000000000007,0.00024000000000001798,-0.0006199999999999539,-0.00036000000000002697,1742258215.391573
-0.06000000000000005,0.20999999999999996,0.44999999999999996,-0.0009799999999999809,-0.00024000000000001798,0.0,-0.07000000000000006,-0.16000000000000003,0.45500000000000007,0.00035999999999991594,-0.00012000000000000899,0.0,1742258215.505313
-0.06499999999999995,0.20999999999999996,0.45500000000000007,0.00035999999999991594,0.0018400000000000638,0.0045200000000000795,-0.07000000000000006,-0.16500000000000004,0.45500000000000007,0.0017000000000000348,-0.0006199999999999539,-0.00012000000000000899,1742258215.621085
-0.07499999999999996,0.2250000000000001,0.45999999999999996,-0.018320000000000003,0.005859999999999976,-0.011480000000000046,-0.07499999999999996,-0.16500000000000004,0.45500000000000007,0.0027999999999999137,-0.0006199999999999539,-0.00048000000000003595,1742258215.733492
-0.06499999999999995,0.2450000000000001,0.45500000000000007,-0.04394000000000009,0.02855999999999992,-0.049679999999999946,-0.07999999999999996,-0.17000000000000004,0.4650000000000001,0.00770000000000004,0.006960000000000077,0.006340000000000012,1742258215.847275
-0.0050000000000000044,0.25,0.44500000000000006,-0.06579999999999997,0.03685999999999989,-0.059700000000000086,-0.06499999999999995,-0.17500000000000004,0.45999999999999996,0.0017000000000000348,0.009039999999999937,0.024660000000000126,1742258215.9614122
0.010000000000000009,0.345,0.375,-0.22424,-0.04688000000000003,-0.07386000000000004,-0.04500000000000004,-0.135,0.47,-0.014399999999999968,0.018799999999999928,0.02416000000000018,1742258216.075356
-0.08499999999999996,0.4849999999999999,0.33499999999999996,-0.15148000000000006,-0.07740000000000002,-0.15564,-0.03500000000000003,-0.18999999999999995,0.44500000000000006,-0.0034199999999999786,0.03405999999999998,0.06030000000000002,1742258216.189439
0.0,0.49,0.30499999999999994,-0.14978000000000002,-0.07629999999999992,-0.26574,-0.025000000000000022,-0.18500000000000005,0.45500000000000007,0.006340000000000012,0.030019999999999936,0.041380000000000194,1742258216.303374
0.16999999999999993,0.29499999999999993,0.25,0.10572000000000004,0.10655999999999999,-0.33044000000000007,0.004999999999999893,-0.17000000000000004,0.45500000000000007,-0.0034199999999999786,0.0042800000000000615,0.05346000000000006,1742258216.421676
0.33000000000000007,0.18999999999999995,0.24,-0.14915999999999996,-0.0030599999999999516,-0.2586600000000001,0.010000000000000009,-0.19500000000000006,0.4650000000000001,0.03186,0.05042000000000013,0.13392000000000004,1742258216.531348
0.3799999999999999,0.2250000000000001,0.18500000000000005,-0.2539,-0.03295999999999999,-0.07653999999999994,0.004999999999999893,-0.21999999999999997,0.45500000000000007,0.08031999999999995,-0.03076000000000001,0.21019999999999994,1742258216.6453729
0.3999999999999999,0.25,0.10499999999999998,-0.32618,-0.09460000000000002,0.0035399999999998766,0.08000000000000007,-0.22499999999999998,0.4099999999999999,0.19067999999999996,0.04821999999999993,0.08129999999999993,1742258216.761377
0.405,0.32000000000000006,0.08499999999999996,-0.21998000000000006,-0.05346000000000006,0.005740000000000078,0.10499999999999998,-0.2849999999999999,0.3799999999999999,0.022580000000000044,0.07409999999999983,-0.018179999999999974,1742258216.873304
0.405,0.30000000000000004,-0.010000000000000009,-0.15844000000000003,-0.04467999999999994,0.027099999999999902,0.1299999999999999,-0.30499999999999994,0.365,0.0012199999999999989,0.04601999999999995,-0.018179999999999974,1742258216.987322
0.3599999999999999,0.345,0.02499999999999991,0.00770000000000004,-0.0047599999999999865,-0.026619999999999977,0.1299999999999999,-0.32000000000000006,0.365,0.01305999999999985,0.005859999999999976,-0.001960000000000073,1742258217.106606
0.355,0.345,-0.0050000000000000044,0.03088000000000002,-0.025399999999999978,-0.043340000000000045,0.14000000000000012,-0.31000000000000005,0.3500000000000001,-0.013679999999999914,0.005740000000000078,0.006340000000000012,1742258217.215327
0.385,0.2749999999999999,0.02499999999999991,0.08299999999999996,-0.042360000000000064,-0.06347999999999998,0.135,-0.29499999999999993,0.365,-0.010000000000000009,0.006340000000000012,-0.009519999999999973,1742258217.3294132
0.42999999999999994,0.16500000000000004,0.125,0.08972000000000002,-0.04479999999999995,0.024900000000000144,0.14000000000000012,-0.29499999999999993,0.365,-0.03710000000000002,0.0014600000000000168,-0.006840000000000068,1742258217.443486
0.395,0.22999999999999998,0.15500000000000003,0.12719999999999998,0.024540000000000006,0.12928000000000006,0.135,-0.28,0.385,-0.062019999999999964,-0.018179999999999974,0.0047600000000000975,1742258217.5574348
0.32499999999999996,0.33499999999999996,0.17999999999999994,0.14966000000000013,0.017220000000000013,0.19531999999999994,0.1299999999999999,-0.24,0.395,-0.0393,-0.05274000000000001,0.0043999999999999595,1742258217.671403
0.2749999999999999,0.3799999999999999,0.21999999999999997,0.07006000000000001,0.0354000000000001,0.15894000000000008,0.10000000000000009,-0.245,0.44500000000000006,-0.033320000000000016,-0.03479999999999994,0.010000000000000009,1742258217.785289
0.22999999999999998,0.4099999999999999,0.23499999999999988,0.16369999999999996,0.046640000000000015,0.13476,0.10499999999999998,-0.24,0.41999999999999993,-0.016000000000000014,-0.018179999999999974,0.05003999999999986,1742258217.9019089
0.14000000000000012,0.3400000000000001,0.31499999999999995,0.09716000000000014,0.031119999999999814,0.1667400000000001,0.10000000000000009,-0.20999999999999996,0.4650000000000001,-0.09826000000000001,0.0035399999999998766,0.041020000000000056,1742258218.013364
0.04499999999999993,0.41500000000000004,0.33499999999999996,0.08251999999999993,0.056519999999999904,0.17846000000000006,0.1100000000000001,-0.17000000000000004,0.41500000000000004,-0.0908199999999999,0.020019999999999927,0.025140000000000162,1742258218.12727
0.014999999999999902,0.385,0.3400000000000001,0.08972000000000002,0.07201999999999997,0.13270000000000004,0.08000000000000007,-0.06000000000000005,0.5150000000000001,-0.05810000000000004,0.10694000000000004,0.12866,1742258218.2420008
0.06499999999999995,0.33000000000000007,0.3400000000000001,0.06957999999999998,0.026739999999999986,0.04833999999999983,0.23499999999999988,-0.11499999999999999,0.4099999999999999,0.07335999999999987,-0.0039000000000000146,0.03272000000000008,1742258218.35524
0.014999999999999902,0.30499999999999994,0.3599999999999999,0.10277999999999987,0.03980000000000006,0.014399999999999968,0.17500000000000004,-0.22499999999999998,0.43999999999999995,0.027099999999999902,-0.01770000000000005,0.05603999999999987,1742258218.469172
0.014999999999999902,0.30499999999999994,0.4099999999999999,0.00024000000000001798,0.00550000000000006,0.018440000000000012,0.19999999999999996,-0.15000000000000002,0.43999999999999995,-0.01537999999999995,0.00550000000000006,0.0671400000000002,1742258218.584928
0.06499999999999995,0.2650000000000001,0.44999999999999996,0.03601999999999994,-0.006220000000000003,-0.020019999999999927,0.21500000000000008,-0.08999999999999997,0.3999999999999999,-0.0013400000000000079,-0.027700000000000058,0.06788000000000016,1742258218.701789
0.08499999999999996,0.2549999999999999,0.405,0.0015800000000001369,0.005980000000000096,-0.0010999999999999899,0.19500000000000006,-0.08499999999999996,0.4650000000000001,-0.08838000000000001,-0.036619999999999986,0.15088000000000013,1742258218.811305
0.05499999999999994,0.27,0.44999999999999996,-0.0035399999999999876,-0.014039999999999941,-0.01208000000000009,0.20999999999999996,-0.07499999999999996,0.43999999999999995,0.09631999999999996,0.06678000000000006,0.11071999999999993,1742258218.925052
0.050000000000000044,0.27,0.41500000000000004,0.011840000000000073,-0.0015800000000000258,-0.01317999999999997,0.22999999999999998,-0.025000000000000022,0.4099999999999999,0.05066000000000015,-0.014519999999999977,0.16016000000000008,1742258219.0433338
0.08499999999999996,0.26,0.385,0.007440000000000113,-0.034420000000000006,-0.018179999999999974,0.20500000000000007,0.11499999999999999,0.5449999999999999,-0.008179999999999965,-0.028940000000000077,-0.011240000000000028,1742258219.1523058
0.05499999999999994,0.2250000000000001,0.45500000000000007,0.05688000000000004,-0.024540000000000006,-0.02076,0.26,-0.015000000000000013,0.385,-0.05249999999999999,0.08129999999999993,-0.14891999999999994,1742258219.266287
0.050000000000000044,0.19500000000000006,0.45999999999999996,0.011239999999999917,0.001100000000000101,0.00024000000000001798,0.19999999999999996,-0.10499999999999998,0.51,-0.017220000000000013,0.007560000000000011,-0.16688000000000003,1742258219.381769
0.040000000000000036,0.24,0.43500000000000005,0.014899999999999913,-0.013799999999999923,0.017340000000000133,0.23499999999999988,-0.07999999999999996,0.395,0.01953999999999989,-0.031000000000000028,-0.14588,1742258219.4942698
0.040000000000000036,0.19999999999999996,0.4650000000000001,0.03980000000000006,0.0036599999999999966,0.00878000000000001,0.19500000000000006,-0.17000000000000004,0.4849999999999999,0.05920000000000014,-0.0030599999999999516,-0.05065999999999993,1742258219.608285
0.030000000000000027,0.20999999999999996,0.4650000000000001,0.029900000000000038,0.01966000000000001,0.0041599999999999415,0.18999999999999995,-0.18999999999999995,0.41500000000000004,0.06152000000000002,-0.05932000000000004,0.02540000000000009,1742258219.72766
0.030000000000000027,0.22999999999999998,0.48,0.1311,0.0295399999999999,0.002080000000000082,0.16999999999999993,-0.10999999999999999,0.45999999999999996,-0.00988,0.013539999999999885,-0.00878000000000001,1742258219.838051
0.05499999999999994,0.07499999999999996,0.5049999999999999,0.060920000000000085,-0.01097999999999999,0.016240000000000032,0.21500000000000008,-0.17500000000000004,0.365,0.015619999999999967,-0.007200000000000095,0.027579999999999938,1742258219.950256
0.020000000000000018,0.10000000000000009,0.48,0.02293999999999996,-0.015499999999999958,0.029900000000000038,0.16999999999999993,-0.10999999999999999,0.4650000000000001,0.048579999999999846,-0.05822000000000005,0.05761999999999978,1742258220.065275
0.02499999999999991,0.06000000000000005,0.47,-0.02844000000000002,0.025020000000000042,0.05018000000000011,0.16500000000000004,-0.17999999999999994,0.45999999999999996,0.0009799999999999809,0.04064000000000001,-0.022700000000000053,1742258220.18205
0.06499999999999995,0.09499999999999997,0.5049999999999999,-0.07591999999999999,0.05711999999999984,0.09143999999999997,0.18999999999999995,-0.15000000000000002,0.42999999999999994,-0.03820000000000001,0.05738000000000021,-0.03405999999999998,1742258220.292332
0.06499999999999995,0.1299999999999999,0.48,-0.041139999999999954,0.03064,0.059940000000000104,0.19500000000000006,-0.16000000000000003,0.41999999999999993,-0.01317999999999997,0.01855999999999991,-0.04370000000000007,1742258220.4062998
0.010000000000000009,0.24,0.48,-0.010739999999999972,-0.06237999999999999,0.029779999999999918,0.20500000000000007,-0.13,0.43999999999999995,-0.020019999999999927,0.030160000000000187,-0.06408000000000003,1742258220.523446
0.0,0.22999999999999998,0.47,-0.06774000000000002,-0.04259999999999997,-0.07665999999999995,0.20500000000000007,-0.135,0.41500000000000004,-0.09899999999999998,-0.043460000000000054,-0.19764000000000004,1742258220.634423
0.004999999999999893,0.1499999999999999,0.5049999999999999,0.030999999999999917,-0.01085999999999998,0.011719999999999953,0.1200000000000001,-0.22999999999999998,0.3900000000000001,0.0023200000000000998,-0.033440000000000025,-0.17065999999999992,1742258220.748302
0.014999999999999902,0.16500000000000004,0.4650000000000001,0.014520000000000088,0.005619999999999958,-0.022700000000000053,0.06499999999999995,-0.22499999999999998,0.4849999999999999,0.01110000000000011,-0.05384,-0.0048799999999999955,1742258220.862292
0.004999999999999893,0.17500000000000004,0.47,0.0045200000000000795,0.0009799999999999809,-0.0009799999999999809,0.06499999999999995,-0.14500000000000002,0.44999999999999996,-0.005499999999999949,-0.02942,0.028799999999999937,1742258220.981546
0.010000000000000009,0.17500000000000004,0.4650000000000001,0.0009799999999999809,-0.001960000000000073,-0.011360000000000037,0.08499999999999996,-0.16500000000000004,0.45999999999999996,0.006460000000000132,-0.011720000000000064,0.02171999999999996,1742258221.094145
0.010000000000000009,0.16999999999999993,0.4750000000000001,-0.0015800000000000258,0.004999999999999893,0.0009799999999999809,0.07000000000000006,-0.135,0.4650000000000001,-0.02758000000000005,-0.021120000000000028,0.018179999999999863,1742258221.204459
0.010000000000000009,0.17999999999999994,0.47,-0.008059999999999956,0.0027999999999999137,0.0019599999999999618,0.06000000000000005,-0.125,0.5049999999999999,-0.009519999999999973,0.009759999999999991,-0.013419999999999987,1742258221.321801
0.010000000000000009,0.18500000000000005,0.4650000000000001,-0.015859999999999985,0.011479999999999935,-0.006220000000000003,0.07499999999999996,-0.11499999999999999,0.44500000000000006,-0.007440000000000002,-0.006960000000000077,-0.047599999999999976,1742258221.4323132
0.020000000000000018,0.18999999999999995,0.4650000000000001,-0.02746000000000004,0.007319999999999993,0.006340000000000012,0.09000000000000008,-0.14500000000000002,0.47,0.0023200000000000998,-0.009639999999999982,-0.015020000000000033,1742258221.546435
0.014999999999999902,0.19999999999999996,0.45999999999999996,-0.014780000000000015,0.011600000000000055,0.015020000000000033,0.07000000000000006,-0.13,0.45500000000000007,0.04272000000000009,-0.026000000000000023,0.02088000000000001,1742258221.661796
0.020000000000000018,0.20500000000000007,0.4650000000000001,-0.03051999999999999,0.0,0.016240000000000032,0.06499999999999995,-0.14,0.48,-0.006340000000000012,-0.009279999999999955,0.005740000000000078,1742258221.774267
-0.020000000000000018,0.2849999999999999,0.4099999999999999,-0.053100000000000036,0.00770000000000004,0.01966000000000001,0.07000000000000006,-0.125,0.47,0.04259999999999997,0.0,-0.010379999999999945,1742258221.888342
0.0,0.26,0.42999999999999994,-0.0034199999999999786,-0.0037800000000000056,0.00770000000000004,0.06000000000000005,-0.17500000000000004,0.44999999999999996,0.07068000000000008,-0.014039999999999941,-0.007200000000000095,1742258222.002207
0.004999999999999893,0.26,0.42500000000000004,-0.009159999999999946,-0.00782000000000005,0.011840000000000073,0.050000000000000044,-0.21499999999999997,0.43999999999999995,0.006460000000000132,-0.022460000000000035,0.017819999999999947,1742258222.1210291
-0.0050000000000000044,0.2650000000000001,0.42500000000000004,-0.0035399999999999876,-0.0037800000000000056,0.006839999999999957,0.05499999999999994,-0.17999999999999994,0.45500000000000007,-0.018919999999999937,-0.01867999999999992,0.01428000000000007,1742258222.230245
0.4650000000000001,-0.24,0.030000000000000027,0.15599999999999992,0.1423399999999999,-0.07689999999999997,0.42999999999999994,0.18500000000000005,-0.07999999999999996,-0.045539999999999914,0.07469999999999999,0.11729999999999996,1742259841.8997629
0.5049999999999999,-0.15000000000000002,-0.015000000000000013,-0.02758000000000005,0.04381999999999997,-0.05958000000000008,0.4750000000000001,0.15999999999999992,0.030000000000000027,0.06311999999999984,-0.0024400000000001087,0.05455999999999994,1742259842.013908
0.4750000000000001,-0.16000000000000003,0.03499999999999992,-0.01867999999999992,-0.009039999999999937,-0.15368000000000004,0.45999999999999996,0.27,0.020000000000000018,0.11499999999999999,0.04188000000000014,0.13196000000000008,1742259842.126402
0.3700000000000001,-0.28,0.030000000000000027,-0.02942,0.08349999999999991,-0.14588,0.4099999999999999,0.2749999999999999,0.08499999999999996,0.1407400000000001,0.04090000000000016,0.1861600000000001,1742259842.23936
0.3700000000000001,-0.345,0.014999999999999902,0.015619999999999967,0.005859999999999976,-0.11658000000000002,0.33000000000000007,0.33499999999999996,0.14000000000000012,0.1411199999999999,0.07409999999999983,0.16662,1742259842.353474
0.30000000000000004,-0.375,0.02499999999999991,0.024780000000000024,-0.03834000000000004,-0.07068000000000008,0.2749999999999999,0.3400000000000001,0.16500000000000004,0.030279999999999863,0.023679999999999923,0.11949999999999994,1742259842.465425
0.2849999999999999,-0.405,0.004999999999999893,-0.05589999999999995,-0.0697000000000001,0.03442000000000012,0.23499999999999988,0.4099999999999999,0.1200000000000001,0.09985999999999984,0.022820000000000062,-0.022580000000000044,1742259842.5785012
0.4099999999999999,-0.345,-0.0050000000000000044,0.06066000000000016,-0.06274000000000002,-0.026859999999999995,0.32000000000000006,0.43999999999999995,0.040000000000000036,-0.03149999999999997,-0.06910000000000005,-0.024660000000000015,1742259842.693233
0.29499999999999993,-0.4099999999999999,0.06499999999999995,0.09777999999999998,-0.015139999999999931,-0.15588000000000002,0.21500000000000008,0.5350000000000001,0.10000000000000009,-0.33996000000000004,-0.22192,0.12622,1742259842.805655
0.2450000000000001,-0.35,-0.06499999999999995,0.17381999999999986,-0.15674,-0.0601799999999999,0.19999999999999996,0.32499999999999996,0.08499999999999996,-0.15698,-0.20996000000000004,0.07946000000000009,1742259842.9195368
0.21999999999999997,-0.485,0.010000000000000009,0.05396000000000001,-0.14794000000000007,-0.07410000000000005,0.17999999999999994,0.43500000000000005,0.17999999999999994,-0.057499999999999996,0.07457999999999987,0.11914000000000002,1742259843.033906
0.16500000000000004,-0.495,0.07499999999999996,-0.17358000000000007,0.06690000000000018,-0.038940000000000086,0.08499999999999996,0.5150000000000001,0.04499999999999993,0.04235999999999995,0.07909999999999995,0.09251999999999994,1742259843.146433
0.18999999999999995,-0.51,0.050000000000000044,-0.16101999999999994,0.027959999999999985,0.023320000000000007,0.09000000000000008,0.55,0.10000000000000009,0.1360999999999999,0.02635999999999994,-0.03479999999999994,1742259843.2595148
0.09000000000000008,-0.275,0.19500000000000006,-0.32811999999999997,0.0043999999999999595,0.09289999999999998,0.06499999999999995,0.3799999999999999,0.27,0.5559000000000001,0.06982,-0.18006,1742259843.373502
0.14000000000000012,-0.39,0.28,-0.20422000000000007,0.05675999999999992,-0.029779999999999918,0.11499999999999999,0.32000000000000006,0.31499999999999995,0.17736000000000018,-0.022580000000000044,0.11182000000000003,1742259843.486731
0.19500000000000006,-0.385,0.25,-0.21165999999999996,0.11390000000000011,0.15100000000000002,0.09000000000000008,0.43999999999999995,0.29499999999999993,0.14427999999999996,-0.06237999999999999,-0.12487999999999999,1742259843.600781
0.405,-0.24,0.20999999999999996,-0.2376800000000001,0.09045999999999998,0.23658,0.1100000000000001,0.1499999999999999,0.41999999999999993,0.15344000000000002,-0.023440000000000016,-0.27124000000000004,1742259843.7146082
0.44999999999999996,0.05499999999999994,0.21500000000000008,-0.36950000000000005,0.05357999999999996,0.2218,0.25,-0.07499999999999996,0.44999999999999996,0.16198,0.0041599999999999415,-0.22533999999999998,1742259843.832564
0.355,0.20500000000000007,0.30000000000000004,-0.1754199999999999,0.05590000000000006,0.24951999999999996,0.10499999999999998,-0.135,0.4849999999999999,0.24366,-0.11975999999999998,-0.17822000000000005,1742259843.941799
0.3700000000000001,0.30499999999999994,0.21999999999999997,-0.10314000000000001,-0.10572000000000004,0.2539,-0.0050000000000000044,-0.395,0.45999999999999996,0.22840000000000016,-0.08996000000000004,-0.1373199999999999,1742259844.055778
0.1200000000000001,0.365,0.345,-0.013799999999999923,-0.13160000000000005,0.2829600000000001,-0.040000000000000036,-0.2849999999999999,0.41500000000000004,0.08531999999999984,0.03381999999999996,-0.24902000000000002,1742259844.169695
-0.08999999999999997,0.595,0.5,0.21972000000000014,-0.10438000000000003,0.35534,-0.040000000000000036,-0.545,0.3500000000000001,-0.013419999999999987,0.2782,-0.08557999999999999,1742259844.283803
-0.015000000000000013,0.43999999999999995,0.43500000000000005,-0.008419999999999983,0.2915000000000001,-0.16125999999999996,0.1200000000000001,-0.41500000000000004,0.30499999999999994,-0.04358000000000006,0.30542,0.24829999999999997,1742259844.397581
0.3400000000000001,0.18500000000000005,0.21999999999999997,0.58704,0.4239600000000001,-0.11634,0.3599999999999999,-0.21999999999999997,0.2650000000000001,-0.49951999999999996,0.2878399999999999,0.18090000000000006,1742259844.51329
0.33499999999999996,-0.010000000000000009,0.19999999999999996,0.12805999999999984,0.2823399999999998,-0.15308,0.3400000000000001,0.06499999999999995,0.20500000000000007,-0.22974000000000006,0.1423399999999999,0.30286000000000013,1742259844.625502
0.3799999999999999,-0.09499999999999997,0.23499999999999988,0.010860000000000092,0.22326000000000001,-0.15148000000000006,0.355,0.15999999999999992,0.28,-0.1945800000000001,0.14392000000000005,0.13916000000000017,1742259844.738436
0.45999999999999996,-0.125,0.18999999999999995,-0.21448,0.20092,-0.14258000000000004,0.365,0.15999999999999992,0.33000000000000007,0.21911999999999998,0.12134,0.06420000000000003,1742259844.853342
0.45500000000000007,-0.20499999999999996,0.11499999999999999,-0.34814,-0.016720000000000068,-0.09301999999999999,0.3700000000000001,0.2450000000000001,0.2250000000000001,-0.00988,0.1494200000000001,0.1433199999999999,1742259844.964521
0.4099999999999999,-0.21499999999999997,0.1299999999999999,-0.09533999999999998,0.059700000000000086,0.0029200000000000337,0.3999999999999999,0.2849999999999999,0.04499999999999993,0.14966000000000013,0.07983999999999991,0.08630000000000004,1742259845.0772989
0.43999999999999995,-0.08999999999999997,0.07499999999999996,-0.16236000000000006,0.015020000000000033,0.04675999999999991,0.355,0.17500000000000004,0.30499999999999994,0.1936,-0.16944000000000004,-0.03382000000000007,1742259845.19365
0.44500000000000006,-0.13,0.15500000000000003,-0.17334000000000005,0.06396000000000002,0.059700000000000086,0.31000000000000005,0.20999999999999996,0.31499999999999995,-0.057740000000000014,-0.04039999999999999,-0.054200000000000026,1742259845.304664
0.44500000000000006,0.040000000000000036,0.10000000000000009,-0.023320000000000007,0.036739999999999995,0.11681999999999992,0.365,0.1499999999999999,0.2549999999999999,0.0008600000000000829,0.025020000000000042,-0.09216000000000002,1742259845.418439
0.49,0.010000000000000009,0.1299999999999999,-0.01427999999999996,0.11182000000000003,0.06678000000000006,0.3999999999999999,0.1100000000000001,0.2549999999999999,0.23876000000000008,-0.07374000000000003,-0.12951999999999997,1742259845.533958
0.56,0.04499999999999993,-0.0050000000000000044,-0.10644000000000009,0.11499999999999999,0.08031999999999995,0.43999999999999995,0.02499999999999991,0.3500000000000001,0.23536000000000024,-0.03382000000000007,-0.0650599999999999,1742259845.6455722
0.4750000000000001,0.14500000000000002,0.020000000000000018,-0.10938000000000003,0.04394000000000009,0.09361999999999981,0.30000000000000004,-0.07499999999999996,0.43999999999999995,0.1334200000000001,-0.009159999999999946,0.021600000000000064,1742259845.759546
0.5,0.125,-0.07000000000000006,-0.03186,0.07957999999999998,0.02611999999999992,0.41999999999999993,-0.07999999999999996,0.23499999999999988,0.05078000000000005,0.16626000000000007,0.09192,1742259845.874075
0.45500000000000007,0.19999999999999996,-0.015000000000000013,0.04492000000000007,-0.005619999999999958,0.09888000000000008,0.5,-0.040000000000000036,0.17999999999999994,0.08421999999999996,0.07214000000000009,0.0012199999999999989,1742259845.986402
0.4950000000000001,0.19999999999999996,-0.135,0.3169000000000002,0.17920000000000003,0.2082599999999999,0.51,-0.13,0.18999999999999995,0.018320000000000114,0.03394000000000008,-0.17420000000000002,1742259846.1005828
0.395,0.4099999999999999,-0.08499999999999996,0.6395200000000001,-0.032340000000000035,0.10314000000000001,0.3700000000000001,-0.245,0.16999999999999993,-0.13879999999999992,-0.021720000000000073,-0.29346000000000005,1742259846.214716
0.2749999999999999,0.21999999999999997,0.28,0.19178000000000006,-0.19544000000000006,-0.08386000000000005,0.29000000000000004,-0.29499999999999993,0.23499999999999988,-0.14112000000000002,-0.062019999999999964,-0.23729999999999996,1742259846.333518
0.28,0.15500000000000003,0.345,0.20472,-0.0747000000000001,-0.07862000000000002,0.15999999999999992,-0.32499999999999996,0.29000000000000004,-0.13829999999999998,-0.013419999999999987,-0.19531999999999994,1742259846.442687
0.30000000000000004,0.08000000000000007,0.385,0.03625999999999996,-0.03846000000000005,-0.07886000000000004,0.15999999999999992,-0.31499999999999995,0.3500000000000001,-0.03625999999999996,-0.025639999999999996,-0.08141999999999994,1742259846.556684
0.29000000000000004,0.07499999999999996,0.395,-0.03405999999999998,-0.03870000000000007,-0.061880000000000046,0.17500000000000004,-0.31499999999999995,0.3799999999999999,-0.14466,-0.09216000000000002,-0.10596000000000005,1742259846.670684
0.19999999999999996,-0.11499999999999999,0.5449999999999999,-0.08801999999999999,0.04590000000000005,-0.0006199999999999539,0.004999999999999893,-0.18500000000000005,0.5,0.03649999999999998,-0.09058,-0.00878000000000001,1742259846.7846029
0.2749999999999999,0.1100000000000001,0.4099999999999999,-0.04479999999999995,0.023440000000000127,0.08654000000000006,0.014999999999999902,-0.265,0.45999999999999996,-0.040159999999999973,0.05750000000000011,-0.05298000000000003,1742259846.8986292
0.3599999999999999,0.19500000000000006,0.28,-0.08129999999999993,0.0341800000000001,0.07800000000000007,0.09499999999999997,-0.17999999999999994,0.42500000000000004,-0.10863999999999996,0.13853999999999989,-0.10851999999999995,1742259847.014306
0.365,0.19999999999999996,0.2450000000000001,-0.019039999999999946,-0.06774000000000002,0.07116000000000011,0.10000000000000009,-0.16000000000000003,0.41999999999999993,-0.07886000000000004,0.08020000000000005,-0.06029999999999991,1742259847.126592
0.29499999999999993,0.135,0.345,0.05577999999999994,-0.046640000000000015,0.033320000000000016,0.10000000000000009,-0.11499999999999999,0.45999999999999996,-0.005619999999999958,0.04920000000000013,-0.014780000000000015,1742259847.240499
0.16999999999999993,0.1299999999999999,0.47,0.17003999999999997,-0.13746000000000003,0.07373999999999992,-0.010000000000000009,-0.06000000000000005,0.615,0.18981999999999988,0.016839999999999966,0.00537999999999994,1742259847.354505
0.02499999999999991,0.125,0.4750000000000001,0.022460000000000147,-0.08287999999999995,0.043099999999999916,0.15999999999999992,-0.3400000000000001,0.24,0.4290799999999999,0.2635399999999999,-0.006840000000000068,1742259847.474407
0.10499999999999998,0.19500000000000006,0.43999999999999995,-0.018179999999999974,-0.018059999999999965,-0.008299999999999974,0.21999999999999997,-0.365,0.1299999999999999,-0.07189999999999996,0.21142000000000016,-0.026000000000000023,1742259847.582567
0.1100000000000001,0.17500000000000004,0.41999999999999993,-0.11218000000000006,-0.011240000000000028,-0.055179999999999896,0.24,-0.33499999999999996,0.1200000000000001,-0.04747999999999997,0.09216000000000002,-0.039059999999999984,1742259847.69655
0.07499999999999996,0.2450000000000001,0.4099999999999999,-0.19446000000000008,-0.08228000000000002,-0.07347999999999999,0.27,-0.385,0.15500000000000003,-0.09350000000000003,-0.00988,-0.09851999999999994,1742259847.815171
0.040000000000000036,0.29499999999999993,0.45999999999999996,-0.013419999999999987,-0.016000000000000014,-0.02100000000000002,0.2549999999999999,-0.365,0.21500000000000008,-0.12438000000000005,-0.007320000000000104,-0.07496000000000003,1742259847.9246368
0.020000000000000018,0.2849999999999999,0.5,0.08618000000000015,0.007200000000000095,-0.02636000000000005,0.25,-0.37,0.2549999999999999,-0.1433199999999999,-0.009639999999999982,-0.016840000000000077,1742259848.0386162
0.09499999999999997,0.15999999999999992,0.4750000000000001,0.0032999999999998586,-0.018320000000000003,-0.07128000000000001,0.23499999999999988,-0.37,0.30000000000000004,-0.06176000000000004,-0.04077999999999993,0.01428000000000007,1742259848.158758
0.09000000000000008,0.18999999999999995,0.43500000000000005,-0.03064,-0.021240000000000037,-0.04810000000000003,0.2450000000000001,-0.32499999999999996,0.3400000000000001,0.030399999999999983,-0.015499999999999958,0.05750000000000011,1742259848.266405
0.135,0.24,0.4099999999999999,-0.057499999999999996,0.018440000000000012,-0.015739999999999976,0.25,-0.30499999999999994,0.3500000000000001,0.032480000000000064,-0.030159999999999965,0.10596000000000005,1742259848.3804002
0.14000000000000012,0.18999999999999995,0.45999999999999996,-0.021480000000000055,-0.014639999999999986,-0.049679999999999946,0.24,-0.30000000000000004,0.31499999999999995,0.08044000000000007,-0.07031999999999994,0.14525999999999994,1742259848.4947042
0.11499999999999999,0.22999999999999998,0.43500000000000005,0.01317999999999997,-0.0026799999999999047,-0.02734000000000003,0.24,-0.24,0.365,0.09118000000000004,-0.0916800000000001,0.11607999999999996,1742259848.6083782
0.10499999999999998,0.20999999999999996,0.43999999999999995,0.016599999999999948,-0.01317999999999997,-0.0393,0.23499999999999988,-0.22499999999999998,0.355,0.10533999999999999,-0.08594000000000002,0.09655999999999998,1742259848.722393
0.1200000000000001,0.20500000000000007,0.44500000000000006,-0.009519999999999973,0.043220000000000036,-0.03394000000000008,0.2450000000000001,-0.25,0.355,0.03186,-0.04736000000000007,0.0354000000000001,1742259848.836404
0.17500000000000004,0.18999999999999995,0.42500000000000004,0.011840000000000073,0.05003999999999986,-0.023559999999999914,0.27,-0.245,0.3999999999999999,-0.040159999999999973,0.008539999999999992,0.04027999999999987,1742259848.954958
0.22999999999999998,0.17500000000000004,0.405,-0.05884,0.06152000000000002,-0.023679999999999923,0.32000000000000006,-0.18500000000000005,0.345,-0.04515999999999998,0.00011999999999989797,0.055299999999999905,1742259849.064399
0.2549999999999999,0.19500000000000006,0.3599999999999999,0.0023200000000000998,0.045660000000000034,-0.010259999999999936,0.29499999999999993,-0.17999999999999994,0.3799999999999999,-0.1641800000000001,-0.03198000000000001,0.06066000000000016,1742259849.178899
0.20500000000000007,0.24,0.42999999999999994,0.14769999999999994,0.018320000000000114,0.010860000000000092,0.26,-0.17000000000000004,0.4099999999999999,-0.15637999999999996,-0.03149999999999997,0.035519999999999996,1742259849.294816
0.24,0.16999999999999993,0.42500000000000004,0.08606000000000003,0.018920000000000048,0.01635999999999993,0.2650000000000001,-0.06499999999999995,0.43500000000000005,-0.18298000000000003,-0.06005999999999989,-0.0040200000000000236,1742259849.406592
0.26,0.1200000000000001,0.3900000000000001,0.09143999999999997,0.014399999999999968,0.040039999999999853,0.21999999999999997,-0.09499999999999997,0.4099999999999999,-0.09765999999999997,-0.13854,-0.1139,1742259849.520588
0.22999999999999998,0.06499999999999995,0.44999999999999996,-0.012460000000000027,-0.01415999999999995,0.03625999999999996,0.14500000000000002,-0.03500000000000003,0.44500000000000006,-0.0048799999999999955,-0.07591999999999999,-0.05810000000000004,1742259849.6369228
0.19500000000000006,0.17500000000000004,0.395,0.13880000000000003,-0.0916800000000001,0.11938000000000004,0.14500000000000002,-0.21999999999999997,0.42500000000000004,-0.08374000000000004,-0.03613999999999995,-0.10705999999999993,1742259849.754169
0.09499999999999997,0.1499999999999999,0.4099999999999999,0.23804000000000003,-0.0014600000000000168,0.17420000000000013,0.15500000000000003,-0.12,0.51,0.08275999999999994,-0.06872,-0.05152000000000001,1742259849.862519
-0.04500000000000004,0.17500000000000004,0.4650000000000001,0.14769999999999994,-0.09777999999999998,0.011840000000000073,0.07000000000000006,-0.20999999999999996,0.43999999999999995,0.07776000000000005,-0.0022000000000000908,-0.03405999999999998,1742259849.9765089
-0.020000000000000018,-0.06000000000000005,0.5249999999999999,-0.0036599999999999966,-0.02648000000000006,0.03614000000000006,0.004999999999999893,-0.21499999999999997,0.41999999999999993,0.05699999999999994,0.04272000000000009,0.07335999999999987,1742259850.095368
0.08499999999999996,0.1499999999999999,0.5049999999999999,-0.11791999999999991,0.10705999999999993,-0.001960000000000073,0.14000000000000012,-0.16000000000000003,0.5150000000000001,-0.018440000000000012,-0.01978000000000002,0.15173999999999999,1742259850.204523
0.09000000000000008,0.20500000000000007,0.43500000000000005,-0.03465999999999991,-0.016960000000000086,-0.10694000000000004,0.17500000000000004,-0.24,0.42500000000000004,-0.06994,0.051140000000000185,0.03735999999999984,1742259850.318408
0.06000000000000005,0.04499999999999993,0.5249999999999999,0.030019999999999936,-0.0035399999999999876,0.009039999999999937,0.19500000000000006,-0.16000000000000003,0.41500000000000004,-0.03272000000000008,-0.005979999999999985,0.029059999999999864,1742259850.4343731
0.040000000000000036,0.14500000000000002,0.4849999999999999,-0.031120000000000037,0.0041599999999999415,0.00782000000000016,0.16999999999999993,-0.17000000000000004,0.4849999999999999,0.0684800000000001,0.023800000000000043,-0.019399999999999973,1742259850.5463989
-0.010000000000000009,0.2450000000000001,0.56,-0.03491999999999995,0.013919999999999932,-0.023559999999999914,0.18999999999999995,-0.32000000000000006,0.44500000000000006,0.04527999999999999,0.14466,0.023800000000000043,1742259850.660411
-0.015000000000000013,0.2549999999999999,0.595,-0.01537999999999995,0.13134,-0.12658000000000003,0.2549999999999999,-0.30499999999999994,0.405,-0.08751999999999993,0.15124000000000004,0.11461999999999994,1742259850.775132
0.1299999999999999,0.17999999999999994,0.41500000000000004,-0.00048000000000003595,0.28881999999999985,-0.21899999999999997,0.31499999999999995,-0.275,0.3400000000000001,0.03259999999999996,0.19666000000000006,0.17491999999999996,1742259850.895225
0.2749999999999999,0.07000000000000006,0.31499999999999995,-0.09277999999999997,0.3164,-0.23426000000000002,0.3900000000000001,-0.17000000000000004,0.19999999999999996,0.2441399999999998,0.14623999999999993,0.24878,1742259851.002391
0.47,-0.07999999999999996,0.08499999999999996,-0.1897000000000001,0.26746000000000003,-0.2773399999999999,0.3599999999999999,0.10000000000000009,0.125,-0.049919999999999964,0.009160000000000057,0.3637600000000001,1742259851.116609
0.47,-0.09499999999999997,0.02499999999999991,-0.06603999999999999,0.036619999999999875,-0.22521999999999998,0.395,0.29499999999999993,0.1499999999999999,-0.07811999999999997,-0.04834000000000005,0.25659999999999994,1742259851.235858
0.45500000000000007,-0.15500000000000003,0.07499999999999996,0.04174000000000011,0.023800000000000043,-0.21558,0.3500000000000001,0.30000000000000004,0.23499999999999988,-0.07128000000000001,-0.03625999999999996,0.19531999999999994,1742259851.344512
0.375,-0.265,0.04499999999999993,0.06811999999999996,-0.024540000000000006,-0.1691800000000001,0.2650000000000001,0.3999999999999999,0.14000000000000012,-0.05384,-0.07458000000000009,0.1177999999999999,1742259851.458296
0.33000000000000007,-0.345,0.05499999999999994,0.031239999999999934,-0.07225999999999999,-0.1177999999999999,0.24,0.385,0.17500000000000004,-0.025639999999999996,-0.07763999999999993,0.09620000000000006,1742259851.575124
0.30000000000000004,-0.33499999999999996,0.11499999999999999,-0.030279999999999974,-0.10218000000000005,-0.06225999999999998,0.17500000000000004,0.405,0.21500000000000008,-0.0010999999999999899,-0.04798000000000002,0.058720000000000105,1742259851.6862762
0.24,-0.41500000000000004,0.2250000000000001,-0.23938000000000004,-0.14246000000000003,-0.024780000000000024,0.11499999999999999,0.405,0.32000000000000006,0.2401199999999999,0.019160000000000066,-0.04027999999999998,1742259851.80016
0.2450000000000001,-0.20999999999999996,0.30000000000000004,-0.39490000000000003,-0.12463999999999997,-0.0697000000000001,0.2250000000000001,0.2250000000000001,0.32000000000000006,0.44945999999999997,0.006099999999999994,-0.04479999999999995,1742259851.915647
0.16999999999999993,-0.235,0.41500000000000004,-0.15148000000000006,-0.23827999999999994,-0.07031999999999994,0.19999999999999996,0.1200000000000001,0.385,0.20544000000000007,-0.18089999999999995,0.08630000000000004,1742259852.026194
0.05499999999999994,-0.09999999999999998,0.4849999999999999,-0.04955999999999994,-0.18896000000000002,-0.05958000000000008,0.014999999999999902,0.06000000000000005,0.54,0.09766000000000008,-0.30357999999999996,0.07214000000000009,1742259852.139189
-0.09499999999999997,-0.20499999999999996,0.52,-0.04625999999999997,-0.11351999999999995,-0.04601999999999995,-0.18999999999999995,-0.010000000000000009,0.5,0.01855999999999991,-0.31323999999999996,0.041380000000000194,1742259852.255924
-0.05500000000000005,-0.14500000000000002,0.43500000000000005,0.0031799999999999606,0.14305999999999996,-0.020019999999999927,-0.19500000000000006,0.08499999999999996,0.5049999999999999,-0.05041999999999991,0.07850000000000001,0.02416000000000018,1742259852.366284
0.07499999999999996,-0.17000000000000004,0.395,0.07201999999999997,0.3170200000000001,0.08948,-0.125,0.08499999999999996,0.42999999999999994,0.014639999999999986,0.09411999999999998,-0.06835999999999998,1742259852.480279
0.29499999999999993,-0.19999999999999996,0.43500000000000005,0.009279999999999955,0.3468,0.13061999999999996,-0.04500000000000004,0.010000000000000009,0.48,0.06640000000000001,0.09251999999999994,-0.08972000000000002,1742259852.596033
0.43999999999999995,-0.010000000000000009,0.23499999999999988,-0.07091999999999998,0.31396,0.09509999999999996,0.03499999999999992,-0.03500000000000003,0.51,0.042119999999999935,0.10875999999999997,-0.04382000000000008,1742259852.715652
0.4750000000000001,-0.04500000000000004,0.20999999999999996,0.0035399999999998766,0.17994,0.05553999999999992,0.08499999999999996,-0.07499999999999996,0.49,0.04064000000000001,0.07642000000000015,0.0031799999999999606,1742259852.822191
0.5249999999999999,-0.050000000000000044,0.06000000000000005,-0.11670000000000003,0.2545200000000001,0.07031999999999994,0.02499999999999991,-0.10499999999999998,0.605,0.05688000000000004,0.05261999999999989,0.09644000000000008,1742259852.9360929
0.69,-0.09999999999999998,-0.18500000000000005,-0.11670000000000003,0.013419999999999987,0.10522000000000009,0.18500000000000005,-0.0050000000000000044,0.5150000000000001,-0.021240000000000037,0.35277999999999987,0.11131999999999986,1742259853.056602
0.4950000000000001,0.1499999999999999,-0.18500000000000005,0.5606599999999999,-0.11865999999999999,0.06152000000000002,0.45500000000000007,0.014999999999999902,0.050000000000000044,-0.6229199999999999,0.54748,-0.24963999999999997,1742259853.163317
0.3599999999999999,0.0,0.17999999999999994,0.54908,-0.09655999999999998,-0.16358000000000006,0.3999999999999999,0.11499999999999999,0.15500000000000003,-0.56702,-0.11803999999999992,0.016119999999999912,1742259853.277289
0.395,-0.13,0.21999999999999997,-0.14002000000000003,0.014520000000000088,-0.1925,0.30000000000000004,0.31499999999999995,0.47,0.056400000000000006,-0.018799999999999928,0.10474000000000006,1742259853.396249
0.405,-0.20999999999999996,0.14000000000000012,-0.09899999999999998,0.035519999999999996,-0.09374000000000005,0.365,0.1299999999999999,0.15999999999999992,0.6311,-0.19641999999999993,0.05371999999999999,1742259853.5042229
0.43500000000000005,-0.15000000000000002,0.11499999999999999,-0.11218000000000006,-0.05786000000000002,-0.01990000000000003,0.21999999999999997,-0.10499999999999998,0.395,0.2711199999999998,-0.31787999999999994,0.024660000000000126,1742259853.6190028
0.43999999999999995,-0.21999999999999997,0.20500000000000007,0.11071999999999993,0.14379999999999993,-0.0041599999999999415,0.14000000000000012,-0.17999999999999994,0.51,0.03503999999999996,0.17896,0.18811999999999984,1742259853.7365582
0.5,-0.17500000000000004,-0.05500000000000005,0.09888000000000008,0.15344000000000002,0.07190000000000007,0.3999999999999999,0.03499999999999992,0.45999999999999996,0.011239999999999917,0.266,0.1520999999999999,1742259853.846102
0.49,-0.025000000000000022,-0.06000000000000005,0.15856000000000003,-0.0026799999999999047,0.006460000000000132,0.605,0.010000000000000009,-0.125,-0.40001999999999993,0.62036,-0.06896000000000002,1742259853.959303
0.48,-0.13,0.004999999999999893,0.25292000000000003,0.00024000000000001798,-0.15576,0.41500000000000004,-0.09999999999999998,-0.07499999999999996,-0.83826,-0.14636000000000005,0.13074000000000008,1742259854.075799
