L-AccX,L-AccY,L-AccZ,L-GyrX,L-GyrY,L-GyrZ,R-AccX,R-AccY,R-AccZ,R-GyrX,R-GyrY,R-GyrZ,timestamp
0.1100000000000001,-0.785,0.4950000000000001,-0.22046,-0.05798000000000003,-0.33362,-0.32000000000000006,1.0,0.8900000000000001,0.23619999999999997,0.012700000000000156,-0.4751000000000001,1742238478.26992
-0.72,-0.685,0.30499999999999994,0.7430399999999999,-0.31652,1.0,-1.0,-1.0,0.875,0.15650000000000008,0.20166000000000017,-0.7030000000000001,1742238478.378168
-0.6,0.815,0.125,-0.92432,0.38050000000000006,-0.20153999999999994,0.07499999999999996,-0.235,0.20500000000000007,-0.1596599999999999,0.07481999999999989,0.3417999999999999,1742238478.492055
-0.025000000000000022,-0.015000000000000013,0.45500000000000007,-0.34986000000000006,0.0040199999999999125,-0.7187399999999999,-0.06000000000000005,0.04499999999999993,0.44500000000000006,0.008920000000000039,-0.17370000000000008,0.42872,1742238478.608711
-0.0050000000000000044,-0.43999999999999995,0.3999999999999999,0.14671999999999996,-0.1311,-0.77796,-0.040000000000000036,0.32499999999999996,0.625,0.05030000000000001,-0.22192,0.14561999999999986,1742238478.729279
0.1499999999999999,-1.0,0.5550000000000002,-0.31396,-0.34374000000000005,-0.16491999999999996,-0.375,0.7650000000000001,0.6499999999999999,0.028079999999999883,0.26025999999999994,-1.0,1742238478.834039
-1.0,-0.75,0.5550000000000002,1.0,-0.4458,1.0,-0.61,-0.82,0.3700000000000001,0.6088800000000001,0.40002000000000004,0.2439,1742238478.949877
-0.45500000000000007,0.7549999999999999,0.07499999999999996,-0.2833199999999999,0.26478,-0.2954200000000001,0.05499999999999994,-0.10499999999999998,0.3400000000000001,-0.19764000000000004,-0.016840000000000077,0.4104000000000001,1742238479.069897
-0.0050000000000000044,-0.050000000000000044,0.3400000000000001,-0.25622,0.045660000000000034,-0.9354199999999999,-0.03500000000000003,0.14000000000000012,0.48,-0.023799999999999932,-0.11048000000000002,0.49449999999999994,1742238479.17614
0.05499999999999994,-0.5,0.4750000000000001,-0.07996000000000003,-0.03834000000000004,-0.61194,0.050000000000000044,0.405,0.5550000000000002,0.1248800000000001,-0.2623199999999999,0.1717599999999999,1742238479.2939808
0.02499999999999991,-0.945,0.6600000000000001,-0.22486000000000006,-0.35705999999999993,0.005239999999999911,-0.48,0.6000000000000001,0.6699999999999999,-0.059940000000000104,0.3184800000000001,-1.0,1742238479.410789
-1.0,-0.555,0.51,1.0,-0.3612000000000001,1.0,-0.665,-0.745,0.5550000000000002,0.8067599999999999,0.31054000000000004,0.45555999999999996,1742238479.517148
-0.28,0.3500000000000001,0.18500000000000005,0.033560000000000034,0.3491199999999999,-0.10265999999999997,0.0,-0.22999999999999998,0.2849999999999999,-0.07677999999999996,-0.0050000000000000044,0.3702399999999999,1742238479.631219
-0.08999999999999997,-0.010000000000000009,0.385,-0.0029199999999999227,0.24913999999999992,-0.78588,-0.015000000000000013,0.07000000000000006,0.42500000000000004,0.03527999999999998,-0.17125999999999997,0.4575199999999999,1742238479.752054
0.09000000000000008,-0.43500000000000005,0.405,-0.28637999999999997,-0.15368000000000004,-0.6479400000000001,-0.12,0.48,0.7250000000000001,0.12083999999999984,-0.33802,0.16442,1742238479.858932
0.14500000000000002,-0.995,0.55,-0.2539,-0.22033999999999998,0.15173999999999999,-0.525,0.32000000000000006,0.6000000000000001,-0.027959999999999985,0.5404,-1.0,1742238479.973055
-1.0,-1.0,0.845,1.0,-0.46251999999999993,1.0,-0.26,-0.615,0.18999999999999995,1.0,0.2019000000000002,0.48120000000000007,1742238480.092837
-0.22999999999999998,0.44500000000000006,0.2749999999999999,-0.05603999999999998,0.3206800000000001,-0.14368000000000003,0.09000000000000008,-0.030000000000000027,0.355,0.18530000000000002,-0.12768000000000002,0.5318600000000002,1742238480.2118342
0.04499999999999993,-0.020000000000000018,0.365,-0.14184000000000008,-0.025519999999999987,-0.94152,-0.05500000000000005,0.16500000000000004,0.54,0.12047999999999992,-0.3111600000000001,0.5146399999999998,1742238480.317919
0.1200000000000001,-0.355,0.4750000000000001,-0.2993199999999999,-0.18774000000000002,-0.57348,-0.17000000000000004,0.2749999999999999,0.6949999999999998,0.10607999999999995,-0.23375999999999997,0.04932000000000003,1742238480.4331698
0.135,-0.735,0.5350000000000001,-0.28344,-0.31128,0.018920000000000048,-0.44500000000000006,0.32499999999999996,0.665,0.014399999999999968,0.48863999999999996,-1.0,1742238480.5529711
-1.0,-0.565,0.5249999999999999,1.0,0.06347999999999998,1.0,-0.255,-0.42500000000000004,0.2749999999999999,0.6196199999999998,0.27269999999999994,0.25927999999999995,1742238480.672768
-0.53,0.5249999999999999,0.22999999999999998,-0.63978,0.11194000000000015,-0.30077999999999994,0.20500000000000007,0.050000000000000044,0.29499999999999993,0.07421999999999995,0.03820000000000001,0.44092,1742238480.7746592
0.14500000000000002,-0.06499999999999995,0.2549999999999999,-0.56494,0.15881999999999996,-0.83472,0.07499999999999996,0.19999999999999996,0.45500000000000007,0.1861600000000001,-0.1420800000000001,0.45458,1742238480.893437
0.07499999999999996,-0.48,0.4950000000000001,-0.07799999999999996,-0.28870000000000007,-0.79944,0.030000000000000027,0.31499999999999995,0.5800000000000001,0.21448,-0.2801600000000001,0.12609999999999988,1742238480.998876
0.08499999999999996,-0.7,0.5699999999999998,-0.1804199999999999,-0.29676,0.11182000000000003,-0.20999999999999996,0.685,0.6800000000000002,-0.011240000000000028,0.1493,-0.93506,1742238481.113583
-1.0,-0.57,0.45500000000000007,0.4533600000000002,0.043099999999999916,1.0,-0.905,-0.45500000000000007,0.96,0.36182000000000003,0.008059999999999956,-0.15052,1742238481.2335832
-0.695,0.5699999999999998,0.20500000000000007,-0.6993400000000001,0.07909999999999995,-0.33436,0.11499999999999999,-0.13,0.29000000000000004,0.08338000000000001,0.05577999999999994,0.53016,1742238481.353494
0.15500000000000003,-0.03500000000000003,0.21999999999999997,-0.41370000000000007,0.19103999999999988,-0.93786,-0.10999999999999999,0.08000000000000007,0.5249999999999999,0.12083999999999984,-0.28344,0.51806,1742238481.454187
-0.0050000000000000044,-0.485,0.5049999999999999,0.0036599999999999966,-0.23375999999999997,-0.70654,-0.08999999999999997,0.21999999999999997,0.6400000000000001,0.10753999999999997,-0.14439999999999997,0.12451999999999996,1742238481.575115
0.07499999999999996,-0.76,0.53,-0.17884,-0.2783199999999999,0.048960000000000115,-0.35,0.6299999999999999,0.7450000000000001,0.10718000000000005,0.1632,-0.87548,1742238481.694121
-1.0,-0.66,0.55,0.38146000000000013,0.14050000000000007,1.0,-0.68,-0.735,0.7149999999999999,0.2818600000000002,0.07433999999999985,-0.13134,1742238481.7965188
-0.825,0.845,0.20999999999999996,-0.38624,0.13817999999999997,-0.03588000000000002,-0.0050000000000000044,-0.255,0.30499999999999994,-0.05041999999999991,-0.09314,0.4173600000000002,1742238481.914409
0.06499999999999995,0.020000000000000018,0.3400000000000001,-0.38514000000000004,0.0343,-0.8513200000000001,-0.07999999999999996,0.03499999999999992,0.48,0.02624000000000004,-0.16637999999999997,0.51,1742238482.035745
0.08499999999999996,-0.555,0.5550000000000002,0.012199999999999989,-0.25268,-0.94764,0.0,0.24,0.5150000000000001,0.2510999999999999,-0.37181999999999993,0.2572000000000001,1742238482.139019
-0.09999999999999998,-0.395,0.635,-0.37548000000000004,-0.32653999999999994,-0.04920000000000002,-0.59,0.26,0.7949999999999999,0.33763999999999994,0.1299999999999999,-0.37683999999999995,1742238482.2588558
-0.565,-0.72,0.595,0.72864,-0.08557999999999999,1.0,-0.765,0.41500000000000004,0.74,-0.89904,-0.09887999999999997,-1.0,1742238482.375528
-0.575,0.685,0.2549999999999999,-0.47729999999999995,-0.18065999999999993,-0.12012,-0.08999999999999997,-0.535,0.16999999999999993,0.3062799999999999,0.028200000000000003,0.5583400000000001,1742238482.479987
-0.14,-0.050000000000000044,0.385,-0.24146,0.10644000000000009,-0.80236,-0.10499999999999998,-0.015000000000000013,0.4849999999999999,0.12268000000000012,-0.26879999999999993,0.6163400000000001,1742238482.5940218
-0.030000000000000027,-0.32000000000000006,0.3999999999999999,0.038819999999999855,-0.10339999999999994,-0.91272,-0.07499999999999996,0.15999999999999992,0.595,0.14880000000000004,-0.31323999999999996,0.34412,1742238482.7189498
0.04499999999999993,-0.495,0.5049999999999999,-0.27588,-0.2826000000000001,-0.14234000000000002,-0.26,0.4099999999999999,0.825,0.29455999999999993,0.08728000000000002,-0.44714,1742238482.836549
-1.0,-0.78,0.5350000000000001,0.4684999999999999,0.041380000000000194,1.0,-0.93,-0.21999999999999997,1.0,0.51806,0.01195999999999997,-0.20335999999999999,1742238482.939594
-0.565,0.56,0.26,-0.3833,0.2143600000000001,-0.06152000000000002,0.0,-0.39,0.2250000000000001,0.0895999999999999,0.008179999999999854,0.38159999999999994,1742238483.058028
0.05499999999999994,0.014999999999999902,0.345,-0.46716000000000013,0.01855999999999991,-0.82006,0.004999999999999893,-0.015000000000000013,0.41500000000000004,0.05699999999999994,-0.09875999999999996,0.48926000000000003,1742238483.177375
0.050000000000000044,-0.41500000000000004,0.355,-0.08728000000000002,-0.21520000000000006,-0.92932,-0.06000000000000005,0.26,0.615,0.07068000000000008,-0.35083999999999993,0.23486000000000007,1742238483.275894
0.06000000000000005,-0.735,0.595,0.04296000000000011,-0.21228000000000002,0.19079999999999986,-0.31000000000000005,0.665,0.8199999999999998,0.17578000000000005,0.00048000000000003595,-0.6542999999999999,1742238483.395425
-0.69,-0.63,0.44500000000000006,0.17345999999999995,-0.21716000000000002,1.0,-1.0,0.10499999999999998,1.0,0.05164000000000013,0.030019999999999936,-0.63746,1742238483.503905
-0.84,0.43500000000000005,0.48,-0.7219199999999999,-0.16613999999999995,-0.13684000000000007,0.050000000000000044,-0.42500000000000004,0.14000000000000012,0.07508000000000004,-0.026000000000000023,0.4779,1742238483.6190562
0.020000000000000018,-0.06499999999999995,0.14000000000000012,-0.28381999999999996,0.48461999999999983,-0.95374,-0.04500000000000004,0.040000000000000036,0.51,0.14746000000000015,-0.18408000000000002,0.5378400000000001,1742238483.7417002
-0.03500000000000003,-0.635,0.4849999999999999,-0.13378,-0.4340799999999999,-1.0,-0.025000000000000022,0.16999999999999993,0.5899999999999999,0.16881999999999997,-0.26672000000000007,0.20409999999999995,1742238483.861202
0.050000000000000044,-0.525,0.5249999999999999,-0.19520000000000004,-0.17688000000000004,0.16016000000000008,-0.14,0.49,0.635,0.35742000000000007,-0.2107,-0.32520000000000004,1742238483.960112
-0.715,-0.41500000000000004,0.405,0.8104200000000001,-0.30726,1.0,-0.94,-1.0,0.09499999999999997,-1.0,1.0,-1.0,1742238484.077991
-0.58,0.23499999999999988,0.20500000000000007,-0.9148,0.11194000000000015,0.14368000000000003,-0.135,-0.625,0.050000000000000044,0.57104,-0.059820000000000095,0.5226999999999999,1742238484.197472
0.020000000000000018,0.21500000000000008,0.395,-0.30786,0.18847999999999998,-0.73754,-0.08999999999999997,0.07499999999999996,0.42500000000000004,0.012460000000000138,-0.16784,0.6285399999999999,1742238484.3179588
0.0,-0.405,0.44999999999999996,0.02526000000000006,-0.1875,-0.91918,-0.09999999999999998,0.3400000000000001,0.6200000000000001,0.17381999999999986,-0.34020000000000006,0.3322799999999999,1742238484.415831
0.04499999999999993,-0.475,0.45500000000000007,-0.07823999999999998,-0.19091999999999998,-0.21105999999999991,-0.29499999999999993,0.5350000000000001,0.7749999999999999,0.06702000000000008,0.16809999999999992,-0.5871599999999999,1742238484.529922
-0.10499999999999998,-0.835,0.365,0.11146000000000011,-0.19628,1.0,-0.98,0.2450000000000001,0.96,-1.0,0.20092,-1.0,1742238484.64411
-0.915,0.06000000000000005,0.6299999999999999,-0.8631599999999999,-0.16455999999999993,-0.0697000000000001,-0.05500000000000005,-0.535,0.20500000000000007,0.05566000000000004,0.12695999999999996,0.36705999999999994,1742238484.759284
-0.10999999999999999,-0.0050000000000000044,0.3799999999999999,-0.11938000000000004,0.2586600000000001,-0.78222,-0.06000000000000005,-0.025000000000000022,0.3999999999999999,0.22070000000000012,-0.22192,0.7184999999999999,1742238484.879495
0.014999999999999902,-0.355,0.4099999999999999,-0.15722000000000003,-0.03320000000000001,-0.76818,-0.08499999999999996,0.32499999999999996,0.575,0.17931999999999992,-0.30357999999999996,0.30786,1742238484.985777
0.11499999999999999,-0.515,0.4650000000000001,-0.1483199999999999,-0.20799999999999996,0.0017000000000000348,-0.22999999999999998,0.6499999999999999,0.6800000000000002,0.12670000000000003,0.0578599999999998,-0.6439199999999999,1742238485.09979
-0.4099999999999999,-0.645,0.5449999999999999,0.3199400000000001,-0.2681800000000001,1.0,-1.0,0.2749999999999999,1.0,-0.5388200000000001,0.15881999999999996,-1.0,1742238485.2182322
-0.62,0.29000000000000004,0.5550000000000002,-0.69458,-0.11426000000000003,0.021479999999999944,0.014999999999999902,-0.47,0.2250000000000001,-0.11658000000000002,0.16052,0.19604,1742238485.337656
-0.20999999999999996,0.02499999999999991,0.43999999999999995,-0.28503999999999996,0.20972000000000013,-0.8517999999999999,0.020000000000000018,-0.10499999999999998,0.3799999999999999,0.17809999999999993,-0.06958000000000009,0.59412,1742238485.457512
-0.03500000000000003,-0.4,0.395,-0.08008000000000004,-0.027840000000000087,-0.9238200000000001,-0.06499999999999995,0.2549999999999999,0.6000000000000001,0.21629999999999994,-0.37194000000000005,0.5211199999999998,1742238485.555832
-0.010000000000000009,-0.575,0.4750000000000001,-0.19396000000000002,-0.48120000000000007,-0.3090799999999999,-0.15000000000000002,0.585,0.77,-0.03465999999999991,0.00048000000000003595,-0.41028,1742238485.6699462
-0.45999999999999996,-0.76,0.43500000000000005,0.10851999999999995,0.001100000000000101,1.0,-1.0,-0.3400000000000001,0.73,-0.7685599999999999,0.30884,-1.0,1742238485.784189
-0.845,0.27,0.75,-0.7204600000000001,-0.21105999999999991,0.18652000000000002,-0.19999999999999996,-0.775,0.17500000000000004,0.3310599999999999,0.35144,0.2792999999999999,1742238485.900338
-0.13,0.0,0.3999999999999999,-0.20472,0.37304000000000004,-0.83814,0.09499999999999997,-0.040000000000000036,0.29000000000000004,0.28736000000000006,-0.26844,0.8280000000000001,1742238486.0215309
-0.05500000000000005,-0.39,0.405,0.0,-0.14490000000000003,-0.98852,-0.17000000000000004,0.135,0.615,0.20642000000000005,-0.34387999999999996,0.5388200000000001,1742238486.125836
0.07000000000000006,-0.375,0.4099999999999999,-0.23950000000000005,-0.1543,-0.10010000000000008,-0.235,0.405,0.72,0.22009999999999996,-0.21655999999999997,-0.2717200000000001,1742238486.241365
-0.030000000000000027,-0.905,0.375,0.18859999999999988,-0.28001999999999994,1.0,-1.0,-0.49,0.565,-0.48572000000000004,0.7435399999999999,-1.0,1742238486.360974
-1.0,-0.16000000000000003,0.6800000000000002,-0.6484400000000001,-0.1541800000000001,0.65808,-0.16500000000000004,-0.62,0.19999999999999996,0.54908,0.08166000000000007,0.3675599999999999,1742238486.481189
-0.26,0.16999999999999993,0.41500000000000004,-0.058719999999999994,0.39344,-0.55004,0.05499999999999994,-0.10999999999999999,0.3799999999999999,0.05235999999999996,-0.06872,0.5509000000000002,1742238486.581848
-0.050000000000000044,-0.25,0.3700000000000001,-0.15112000000000003,-0.13,-1.0,-0.06499999999999995,-0.010000000000000009,0.52,0.14148000000000005,-0.31677999999999995,0.51648,1742238486.696013
0.06000000000000005,-0.42999999999999994,0.5899999999999999,-0.16174,-0.12390000000000001,-0.20728000000000002,-0.135,0.2849999999999999,0.6800000000000002,0.30066000000000015,-0.32531999999999994,0.12609999999999988,1742238486.809715
0.04499999999999993,-0.64,0.45500000000000007,-0.15905999999999998,-0.14978000000000002,0.73278,-0.765,-0.545,0.29000000000000004,-0.11839999999999995,1.0,-1.0,1742238486.924146
-1.0,-0.010000000000000009,0.6800000000000002,0.5504200000000001,0.3332599999999999,1.0,-0.17999999999999994,-0.855,0.1100000000000001,0.7961399999999998,0.09373999999999993,0.28894,1742238487.0388129
-0.29499999999999993,-0.020000000000000018,0.365,-0.10560000000000003,0.2338800000000001,-0.6023,-0.07000000000000006,-0.19500000000000006,0.395,-0.04736000000000007,-0.15760000000000007,0.5322200000000001,1742238487.159263
-0.06000000000000005,0.010000000000000009,0.43999999999999995,-0.14770000000000005,0.014780000000000015,-0.865,-0.06499999999999995,0.10499999999999998,0.4750000000000001,0.12609999999999988,-0.3458199999999999,0.70496,1742238487.279107
0.05499999999999994,-0.42500000000000004,0.48,-0.16822000000000004,-0.23205999999999993,-0.58704,-0.125,0.2650000000000001,0.685,0.20398000000000005,-0.30982,0.2805199999999999,1742238487.399194
-0.03500000000000003,-0.41999999999999993,0.6200000000000001,-0.19848,-0.0858199999999999,0.21520000000000006,-0.375,0.19500000000000006,0.6200000000000001,0.03601999999999994,0.44642000000000004,-0.82728,1742238487.4937322
-0.68,-0.12,0.6800000000000002,0.9996399999999999,0.9371399999999999,1.0,-0.655,-0.33000000000000007,0.875,0.8598600000000001,0.03614000000000006,-0.10560000000000003,1742238487.607957
-0.63,0.685,0.44999999999999996,-0.02294000000000007,0.07618000000000014,-0.11729999999999996,0.040000000000000036,-0.18999999999999995,0.2749999999999999,-0.05065999999999993,-0.040159999999999973,0.48438000000000003,1742238487.7218611
-0.0050000000000000044,0.08499999999999996,0.3599999999999999,-0.34387999999999996,-0.15855999999999992,-0.9675199999999999,-0.09999999999999998,-0.050000000000000044,0.5150000000000001,0.20457999999999998,-0.35218000000000005,0.6628400000000001,1742238487.8404071
0.030000000000000027,-0.45500000000000007,0.595,-0.08044000000000007,-0.17247999999999997,-0.7002,-0.19500000000000006,0.15500000000000003,0.6949999999999998,0.20531999999999995,-0.2489,0.1308600000000002,1742238487.9596128
0.03499999999999992,-0.45500000000000007,0.5449999999999999,-0.05615999999999999,-0.15088000000000001,0.05479999999999996,-0.22999999999999998,0.1100000000000001,0.5249999999999999,-0.25012,0.4707000000000001,-1.0,1742238488.07981
-0.675,-0.57,0.45999999999999996,0.677,-0.039919999999999956,1.0,-0.665,-0.30499999999999994,0.7450000000000001,0.54444,-0.07128000000000001,-0.10596000000000005,1742238488.178217
-0.56,0.45500000000000007,0.3500000000000001,-0.3295799999999999,-0.011480000000000046,-0.2524400000000001,-0.030000000000000027,-0.20499999999999996,0.365,-0.13172000000000006,0.10851999999999995,0.31201999999999996,1742238488.291854
-0.14500000000000002,-0.015000000000000013,0.3599999999999999,-0.08984000000000003,0.04064000000000001,-1.0,-0.04500000000000004,-0.08499999999999996,0.3799999999999999,0.3170200000000001,-0.08826,0.7577,1742238488.405851
-0.07999999999999996,-0.41500000000000004,0.47,-0.06481999999999999,-0.039059999999999984,-0.70838,-0.09499999999999997,0.24,0.6299999999999999,0.08570000000000011,-0.28637999999999997,0.28370000000000006,1742238488.520858
0.030000000000000027,-0.38,0.4750000000000001,-0.11048000000000002,-0.07544000000000006,-0.018799999999999928,-0.28,0.44500000000000006,0.7149999999999999,0.22692,-0.14576,-0.36622,1742238488.641272
-0.31000000000000005,-0.665,0.42500000000000004,0.09289999999999998,-0.03625999999999996,1.0,-0.96,-0.245,0.5899999999999999,-0.88586,0.40418,-1.0,1742238488.76115
-1.0,-0.495,0.8900000000000001,-0.72082,-0.08448,0.19422000000000006,-0.13,-0.545,0.25,0.44531999999999994,0.10070000000000001,0.49083999999999994,1742238488.881218
-0.06499999999999995,0.03499999999999992,0.4950000000000001,-0.17149999999999999,0.3548600000000002,-0.33594,-0.0050000000000000044,-0.05500000000000005,0.44500000000000006,0.10559999999999992,-0.14160000000000006,0.5680000000000001,1742238488.975863
0.050000000000000044,-0.09499999999999997,0.41999999999999993,-0.10950000000000004,-0.04688000000000003,-0.69202,-0.020000000000000018,0.08499999999999996,0.5449999999999999,0.1200000000000001,-0.23729999999999996,0.3469200000000001,1742238489.089801
0.16999999999999993,-0.27,0.395,-0.14758000000000004,-0.11902000000000001,-0.55102,-0.025000000000000022,0.11499999999999999,0.5249999999999999,0.22058,-0.08679999999999999,-0.01208000000000009,1742238489.2038348
-0.010000000000000009,-0.4099999999999999,0.43500000000000005,-0.26305999999999996,-0.5151399999999999,-0.029779999999999918,-0.485,-0.275,0.6000000000000001,-0.26,0.8098200000000002,-0.9401799999999999,1742238489.321898
-0.78,-0.52,0.645,0.7486599999999999,0.15588000000000002,1.0,-0.265,-0.35,0.5449999999999999,0.4607000000000001,-0.11499999999999999,-0.15124000000000004,1742238489.441509
-0.475,0.41999999999999993,0.3799999999999999,-0.3601,-0.07591999999999999,-0.21936,-0.06000000000000005,-0.27,0.41999999999999993,0.032480000000000064,-0.07458000000000009,0.45921999999999996,1742238489.5614002
0.014999999999999902,-0.07000000000000006,0.31499999999999995,-0.3321600000000001,0.21361999999999992,-0.86402,-0.10499999999999998,-0.08999999999999997,0.45500000000000007,0.08728000000000002,-0.21289999999999998,0.55114,1742238489.68101
0.07000000000000006,-0.35,0.42500000000000004,-0.16601999999999995,-0.2623199999999999,-0.6545399999999999,-0.07499999999999996,0.135,0.56,0.16515999999999997,-0.26049999999999995,0.26,1742238489.773848
0.050000000000000044,-0.31499999999999995,0.45500000000000007,-0.10144000000000009,-0.10863999999999996,0.12414000000000014,-0.395,0.05499999999999994,0.7250000000000001,0.037599999999999856,0.30286000000000013,-0.6863999999999999,1742238489.887817
-0.43999999999999995,-0.45999999999999996,0.5350000000000001,0.6634599999999999,-0.01636000000000004,1.0,-0.645,-0.44999999999999996,0.8599999999999999,0.32055999999999996,0.21398000000000006,-0.14344,1742238490.0019069
-0.52,0.395,0.41999999999999993,-0.70458,0.0836199999999998,-0.08728000000000002,0.020000000000000018,-0.29499999999999993,0.2549999999999999,-0.15674,-0.13097999999999999,0.32776000000000005,1742238490.1205912
-0.015000000000000013,-0.06000000000000005,0.3900000000000001,-0.29664,0.10046,-0.8609600000000001,-0.16500000000000004,-0.28,0.4950000000000001,0.010259999999999936,-0.15844000000000003,0.43116,1742238490.241364
-0.03500000000000003,-0.265,0.51,-0.17908000000000002,-0.266,-0.85278,-0.03500000000000003,0.20999999999999996,0.6099999999999999,0.08898000000000006,-0.12854,0.29857999999999985,1742238490.3609889
0.03499999999999992,-0.31000000000000005,0.52,-0.26770000000000005,-0.15905999999999998,-0.23815999999999993,-0.12,0.51,0.6499999999999999,0.1822600000000001,0.04747999999999997,-0.5373600000000001,1742238490.457686
-0.16000000000000003,-0.55,0.45500000000000007,0.47216000000000014,-0.01415999999999995,1.0,-0.99,-0.54,0.6200000000000001,-0.8883,0.44799999999999995,-1.0,1742238490.571883
-0.78,-0.24,0.73,-0.81176,-0.14049999999999996,-0.006840000000000068,-0.06499999999999995,-0.495,0.2549999999999999,0.2989600000000001,0.06702000000000008,0.4366399999999999,1742238490.685785
-0.04500000000000004,0.0,0.43999999999999995,-0.22411999999999999,0.26183999999999985,-0.6352599999999999,-0.0050000000000000044,-0.09999999999999998,0.43500000000000005,0.30542,-0.38403999999999994,0.6999600000000001,1742238490.80079
0.03499999999999992,-0.245,0.45999999999999996,-0.08972000000000002,-0.07299999999999995,-0.8510800000000001,-0.15000000000000002,-0.0050000000000000044,0.615,0.05455999999999994,-0.17846000000000006,0.24340000000000006,1742238490.921938
0.09499999999999997,-0.26,0.47,-0.22229999999999994,-0.17896,-0.24450000000000005,-0.015000000000000013,0.26,0.56,0.29027999999999987,-0.04601999999999995,-0.12854,1742238491.0423071
0.040000000000000036,-0.56,0.395,-0.1900599999999999,-0.23548000000000002,0.8000399999999999,-0.7,-0.78,0.30499999999999994,-0.5429600000000001,0.84998,-1.0,1742238491.160888
-1.0,-1.0,1.0,0.5678800000000002,-0.10827999999999993,1.0,-0.09999999999999998,-0.515,0.2450000000000001,0.61694,0.11304000000000003,0.38452,1742238491.255766
-0.07499999999999996,0.31000000000000005,0.3500000000000001,0.0966800000000001,0.3285,-0.24572000000000005,-0.040000000000000036,-0.050000000000000044,0.44500000000000006,0.09742000000000006,0.005980000000000096,0.4767999999999999,1742238491.369836
0.020000000000000018,-0.050000000000000044,0.3700000000000001,-0.16637999999999997,-0.012940000000000063,-0.8186,-0.14,0.10499999999999998,0.585,-0.005499999999999949,-0.13488,0.42774,1742238491.483721
0.10000000000000009,-0.33499999999999996,0.4750000000000001,-0.14124000000000003,-0.08435999999999999,-0.45287999999999995,0.010000000000000009,0.1299999999999999,0.565,0.32996000000000003,-0.29944000000000004,0.3663399999999999,1742238491.602447
0.07000000000000006,-0.565,0.395,-0.16479999999999995,-0.0039000000000000146,-0.4047799999999999,-0.08999999999999997,0.3500000000000001,0.74,0.04150000000000009,-0.15454,-0.010499999999999954,1742238535.313434
0.06499999999999995,-0.775,0.43999999999999995,0.031500000000000083,-0.1604,0.7578200000000002,-0.7,-0.635,0.5150000000000001,-0.70922,0.4838800000000001,-1.0,1742238535.42757
-1.0,0.10499999999999998,1.0,0.22546,-0.21251999999999993,0.85572,-0.22499999999999998,-0.495,0.2450000000000001,0.5183200000000001,0.2129000000000001,0.36107999999999985,1742238535.541363
-0.040000000000000036,0.014999999999999902,0.26,-0.12072000000000005,0.2780799999999999,-0.82934,0.010000000000000009,0.014999999999999902,0.45500000000000007,0.13183999999999996,-0.24414000000000002,0.6815199999999999,1742238535.655244
0.0,-0.42999999999999994,0.49,-0.07201999999999997,0.07020000000000004,-0.6611400000000001,-0.030000000000000027,0.1499999999999999,0.6000000000000001,0.14100000000000001,-0.11485999999999996,0.32654000000000005,1742238535.770153
0.014999999999999902,-0.405,0.45500000000000007,-0.08886000000000005,-0.20520000000000005,-0.0502999999999999,-0.16500000000000004,0.405,0.77,0.04174000000000011,0.12646000000000002,-0.4876800000000001,1742238535.882473
-0.040000000000000036,-0.675,0.3900000000000001,-0.0050000000000000044,-0.041139999999999954,1.0,-0.585,-0.10999999999999999,0.8199999999999998,-0.6405000000000001,-0.011099999999999999,-0.88928,1742238535.996972
-0.695,0.31499999999999995,0.835,-0.13049999999999995,-0.27037999999999995,0.35938000000000003,-0.050000000000000044,-0.26,0.32499999999999996,0.26892000000000005,0.05126000000000008,0.5027999999999999,1742238536.114858
-0.11499999999999999,-0.07999999999999996,0.33000000000000007,-0.04810000000000003,0.36206000000000005,-0.78052,-0.04500000000000004,-0.050000000000000044,0.45999999999999996,0.1949400000000001,-0.22094000000000003,0.5299,1742238536.2244842
0.05499999999999994,-0.39,0.3999999999999999,-0.29724000000000006,0.007200000000000095,-0.71594,-0.07000000000000006,0.16500000000000004,0.605,0.06994000000000011,-0.21275999999999995,0.11621999999999999,1742238536.33835
0.1200000000000001,-0.66,0.4950000000000001,0.07006000000000001,-0.16796,0.38904000000000005,-0.44500000000000006,-0.04500000000000004,0.6000000000000001,0.013919999999999932,0.37378,-0.7270599999999999,1742238536.455508
-0.945,-0.18500000000000005,0.6400000000000001,0.4743600000000001,-0.33436,1.0,-0.565,-0.125,0.73,0.32421999999999995,-0.0010999999999999899,-0.3466800000000001,1742238536.566505
-0.35,0.45500000000000007,0.3799999999999999,-0.33386000000000005,0.4275,-0.3358199999999999,0.06499999999999995,-0.12,0.3700000000000001,0.18836000000000008,0.025140000000000162,0.4948800000000002,1742238536.6802728
-0.015000000000000013,-0.16000000000000003,0.355,-0.12732,-0.012820000000000054,-0.94678,-0.07999999999999996,-0.04500000000000004,0.5550000000000002,0.14856000000000003,-0.22533999999999998,0.4069800000000001,1742238536.795626
0.05499999999999994,-0.51,0.5049999999999999,-0.03295999999999999,-0.11729999999999996,-0.35718000000000005,-0.07000000000000006,0.2749999999999999,0.675,0.1665000000000001,-0.11987999999999999,0.03161999999999998,1742238536.91656
0.09499999999999997,-0.825,0.48,0.12805999999999984,-0.053340000000000054,0.6297600000000001,-0.655,-0.635,0.565,-0.90942,0.42554000000000003,-1.0,1742238537.022521
-1.0,-0.37,0.8599999999999999,0.60938,-0.44886000000000004,1.0,-0.010000000000000009,-0.575,0.17500000000000004,0.5583400000000001,0.1493,0.42846000000000006,1742238537.136291
-0.07499999999999996,0.16500000000000004,0.3599999999999999,-0.19446000000000008,0.37646,-0.58154,0.02499999999999991,-0.07499999999999996,0.45500000000000007,0.24682000000000004,-0.28833999999999993,0.5635999999999999,1742238537.256741
0.08499999999999996,-0.245,0.43500000000000005,-0.34986000000000006,-0.031240000000000046,-0.71106,0.0,0.050000000000000044,0.55,0.09753999999999996,-0.21314,0.23816000000000015,1742238537.364386
0.16500000000000004,-0.48,0.42999999999999994,-0.04577999999999993,-0.09715999999999991,-0.12585999999999997,-0.0050000000000000044,0.4849999999999999,0.75,0.08570000000000011,-0.03539999999999999,-0.26746000000000003,1742238537.479292
0.14500000000000002,-0.92,0.345,0.1665000000000001,-0.31420000000000003,1.0,-0.635,-0.21499999999999997,0.9199999999999999,-0.63648,0.11107999999999985,-0.57898,1742238537.597066
-0.785,0.605,0.815,-0.50952,-0.04382000000000008,0.34973999999999994,0.010000000000000009,-0.21499999999999997,0.28,0.17420000000000013,0.06555999999999984,0.41857999999999995,1742238537.706325
-0.0050000000000000044,0.02499999999999991,0.1200000000000001,-0.29712000000000005,0.19555999999999996,-0.9188200000000001,0.040000000000000036,0.05499999999999994,0.43500000000000005,-0.0006199999999999539,-0.044320000000000026,0.3066399999999998,1742238537.8203142
0.11499999999999999,-0.53,0.4950000000000001,-0.12109999999999999,-0.12658000000000003,-0.58264,0.06000000000000005,0.1299999999999999,0.4950000000000001,0.15551999999999988,-0.1995800000000001,0.14647999999999994,1742238537.9368792
0.27,-0.495,0.355,-0.17712000000000006,-0.22253999999999996,-0.029179999999999984,-0.22499999999999998,0.4750000000000001,0.8050000000000002,0.1469800000000001,-0.12951999999999997,-0.4364,1742238538.047383
-0.89,-0.32000000000000006,0.53,0.51648,-0.3983199999999999,1.0,-0.79,0.1299999999999999,0.875,-0.57752,0.2547600000000001,-1.0,1742238538.1614988
-0.53,0.5800000000000001,0.33499999999999996,-0.81176,0.16881999999999997,-0.25305999999999995,0.010000000000000009,-0.29499999999999993,0.28,0.2204600000000001,-0.02210000000000001,0.54908,1742238538.278027
0.02499999999999991,-0.14,0.23499999999999988,-0.22486000000000006,0.30003999999999986,-0.7574400000000001,0.06499999999999995,0.06000000000000005,0.5,0.06529999999999991,-0.10950000000000004,0.37916000000000016,1742238538.397834
0.10000000000000009,-0.42500000000000004,0.365,-0.022820000000000062,-0.04798000000000002,-0.58912,0.06499999999999995,0.17999999999999994,0.5449999999999999,0.05298000000000003,-0.19128,0.10277999999999987,1742238538.502348
0.15500000000000003,-0.55,0.47,-0.1852999999999999,-0.19116,0.019279999999999964,-0.07999999999999996,0.385,0.675,-0.1583199999999999,0.1800599999999999,-0.78344,1742238538.620345
-0.745,-0.07499999999999996,0.6699999999999999,0.42357999999999985,-0.22863999999999995,1.0,-0.31499999999999995,-0.36,0.5249999999999999,0.6618600000000001,0.3308199999999999,-0.05262,1742238538.7387352
-0.19999999999999996,0.6600000000000001,0.16999999999999993,-0.72802,0.27404000000000006,-0.20972000000000002,0.0,-0.11499999999999999,0.395,0.20008000000000004,-0.3407,0.47974000000000006,1742238538.844311
0.10000000000000009,-0.125,0.30499999999999994,-0.19531999999999994,0.043099999999999916,-0.63428,0.014999999999999902,-0.050000000000000044,0.43999999999999995,0.043339999999999934,-0.13427999999999995,0.42211999999999983,1742238538.959583
0.2450000000000001,-0.345,0.365,-0.08263999999999994,-0.21165999999999996,-0.45496000000000003,0.1200000000000001,0.405,0.625,0.12609999999999988,-0.24681999999999993,0.1532,1742238539.079179
0.23499999999999988,-0.76,0.4950000000000001,-0.009279999999999955,-0.28601999999999994,0.4230999999999998,-0.99,-0.745,0.565,-0.88428,0.45909999999999984,-1.0,1742238539.1854458
-1.0,-0.54,0.875,1.0,-0.49732,1.0,0.1200000000000001,-0.43999999999999995,0.09000000000000008,0.8240999999999998,0.04248000000000007,0.6578400000000002,1742238539.299773
0.004999999999999893,0.28,0.19999999999999996,-0.14100000000000001,0.5542,-0.42346000000000006,0.004999999999999893,-0.025000000000000022,0.4950000000000001,-0.0514,-0.16381999999999997,0.3493600000000001,1742238539.419584
0.20500000000000007,-0.17500000000000004,0.32000000000000006,-0.19311999999999996,-0.01085999999999998,-0.61854,0.02499999999999991,0.125,0.5449999999999999,0.033440000000000136,-0.14989999999999992,0.1934800000000001,1742238539.527075
0.23499999999999988,-0.355,0.3700000000000001,-0.20263999999999993,-0.19165999999999994,-0.26916000000000007,0.014999999999999902,0.5,0.685,0.10938000000000003,-0.06152000000000002,-0.2780799999999999,1742238539.640769
0.08499999999999996,-0.56,0.33499999999999996,0.23034,-0.22938000000000003,1.0,-0.92,0.08499999999999996,0.915,-0.6642999999999999,0.16357999999999984,-0.8582799999999999,1742238539.7625642
-0.765,0.1200000000000001,0.8300000000000001,-0.76014,0.37036,-0.17625999999999997,-0.015000000000000013,-0.22499999999999998,0.2849999999999999,0.0907,0.030999999999999917,0.49804000000000004,1742238539.880953
0.21999999999999997,-0.29000000000000004,0.2250000000000001,-0.28454,0.28698,-0.5964400000000001,0.020000000000000018,0.040000000000000036,0.45500000000000007,0.10289999999999999,-0.08594000000000002,0.3959999999999999,1742238539.982285
0.20999999999999996,-0.29000000000000004,0.33499999999999996,-0.047860000000000014,0.0611600000000001,-0.3556,0.03499999999999992,0.21500000000000008,0.5550000000000002,0.15870000000000006,-0.12634,0.1290199999999999,1742238540.1016388
0.32499999999999996,-0.66,0.30499999999999994,-0.23278,-0.20508000000000004,-0.03283999999999998,-0.08499999999999996,0.565,0.6699999999999999,-0.05152000000000001,0.2280199999999999,-0.9452,1742238540.2221398
-1.0,-0.09999999999999998,0.4950000000000001,0.5934999999999999,-0.57886,1.0,-0.42500000000000004,-0.575,0.615,0.6530799999999999,0.10411999999999999,0.10864000000000007,1742238540.322551
-0.38,0.3500000000000001,0.26,-0.56214,0.48205999999999993,-0.23608000000000007,0.14500000000000002,0.030000000000000027,0.3700000000000001,-0.0041599999999999415,-0.059700000000000086,0.35119999999999996,1742238540.441965
0.15500000000000003,-0.14500000000000002,0.29000000000000004,-0.27344,0.22155999999999998,-0.71228,0.06000000000000005,0.09499999999999997,0.4849999999999999,0.08642000000000016,-0.059820000000000095,0.29857999999999985,1742238540.561416
0.2849999999999999,-0.45999999999999996,0.28,-0.12146000000000001,-0.15661999999999998,-0.45936,0.08499999999999996,0.32000000000000006,0.56,0.11280000000000001,-0.21472000000000002,0.026000000000000023,1742238540.663071
0.16999999999999993,-0.69,0.375,-0.05125999999999997,-0.29577999999999993,0.63842,-0.57,-0.515,0.53,-0.5516399999999999,0.46411999999999987,-1.0,1742238540.7824728
-1.0,-0.98,1.0,0.0638399999999999,-0.3426600000000001,0.88354,0.10000000000000009,-0.45999999999999996,0.07000000000000006,0.9094200000000001,0.11047999999999991,0.5564,1742238540.904288
-0.030000000000000027,0.15500000000000003,0.2549999999999999,-0.15698,0.40954,-0.48009999999999997,-0.030000000000000027,-0.025000000000000022,0.45500000000000007,-0.039059999999999984,-0.09374000000000005,0.40954,1742238541.011803
0.1499999999999999,-0.26,0.32499999999999996,-0.3722000000000001,0.0283199999999999,-0.83204,0.014999999999999902,0.1100000000000001,0.51,0.14978000000000002,-0.21386000000000005,0.3326399999999998,1742238541.125512
0.2549999999999999,-0.615,0.3900000000000001,-0.059700000000000086,-0.15013999999999994,-0.11060000000000003,-0.12,0.595,0.75,0.2841800000000001,-0.19068000000000007,-0.06458000000000008,1742238541.244601
0.004999999999999893,-0.44999999999999996,0.18999999999999995,0.26770000000000005,-0.21411999999999998,1.0,-0.695,-0.92,0.43999999999999995,-1.0,0.49670000000000014,-1.0,1742238541.348204
-0.78,0.1299999999999999,0.825,-0.85364,0.2743,-0.20689999999999997,0.040000000000000036,-0.49,0.29499999999999993,0.20496000000000003,-0.03173999999999999,0.516,1742238541.4667351
0.1200000000000001,-0.29000000000000004,0.32000000000000006,-0.1174400000000001,0.26916000000000007,-0.8418,0.050000000000000044,0.08499999999999996,0.54,0.11364000000000019,-0.029059999999999975,0.29736000000000007,1742238541.5850508
0.20500000000000007,-0.22999999999999998,0.32000000000000006,-0.11291999999999991,0.08094000000000001,-0.26086,0.15999999999999992,0.135,0.42500000000000004,0.03320000000000012,-0.06958000000000009,0.051140000000000185,1742238541.687105
0.32000000000000006,-0.565,0.29000000000000004,0.07031999999999994,-0.18725999999999998,0.05285999999999991,-0.020000000000000018,0.49,0.7450000000000001,-0.11694000000000004,-0.08751999999999993,-0.46802,1742238541.807271
-0.475,-0.645,0.41999999999999993,0.9094200000000001,-0.83508,1.0,-0.77,-0.29499999999999993,0.96,0.2697799999999999,0.09483999999999981,-0.4032,1742238541.91431
-0.4650000000000001,0.10499999999999998,0.41500000000000004,-0.6487999999999999,0.35509999999999997,-0.023679999999999923,0.1100000000000001,-0.16000000000000003,0.29000000000000004,0.22155999999999998,-0.011360000000000037,0.4645999999999999,1742238542.028359
0.2749999999999999,-0.14500000000000002,0.17999999999999994,-0.45166000000000006,0.3639000000000001,-0.68762,0.09499999999999997,0.06000000000000005,0.45999999999999996,0.3555999999999999,-0.04491999999999996,0.50244,1742238542.1461508
0.3900000000000001,-0.515,0.2849999999999999,-0.25683999999999996,-0.14600000000000002,-0.4093,0.14500000000000002,0.2450000000000001,0.585,0.10314000000000001,-0.11646000000000001,-0.03613999999999995,1742238542.265358
0.21999999999999997,-0.51,0.29000000000000004,0.08177999999999996,-0.40686,0.3801199999999998,-0.31000000000000005,-0.37,0.5800000000000001,-0.71448,0.36840000000000006,-1.0,1742238542.370353
-1.0,-0.655,1.0,0.35875999999999997,-0.51612,0.6055999999999999,-0.12,-0.605,0.21500000000000008,0.67408,0.23242000000000007,0.375,1742238542.486579
0.050000000000000044,0.1100000000000001,0.09499999999999997,-0.4349400000000001,0.64148,-0.32422000000000006,0.08499999999999996,0.08499999999999996,0.405,0.19202000000000008,-0.35546,0.67346,1742238542.6084638
0.23499999999999988,-0.22499999999999998,0.30000000000000004,-0.2721,-0.008299999999999974,-0.6807799999999999,-0.025000000000000022,0.06499999999999995,0.6099999999999999,0.14148000000000005,-0.19396000000000002,0.2805199999999999,1742238542.727102
0.19500000000000006,-0.36,0.3799999999999999,-0.03272000000000008,-0.14561999999999997,-0.11524000000000001,0.06000000000000005,0.125,0.47,0.04735999999999985,-0.05286000000000002,-0.26781999999999995,1742238542.827159
0.10499999999999998,-0.52,0.23499999999999988,0.1689400000000001,-0.42138,0.8145799999999999,-0.26,-0.18500000000000005,0.605,-0.50256,0.2551199999999998,-0.90308,1742238542.9470952
-1.0,-0.49,1.0,-0.4803399999999999,0.15222000000000002,0.4483600000000001,-0.17999999999999994,-0.245,0.53,0.27942,0.08885999999999994,-0.05235999999999996,1742238543.0672672
0.21999999999999997,-0.010000000000000009,0.18500000000000005,-0.33166000000000007,0.4032,-0.59046,0.1100000000000001,0.0,0.375,0.3809800000000001,-0.08287999999999995,0.67004,1742238543.167586
0.16500000000000004,-0.235,0.43999999999999995,-0.18359999999999999,-0.022820000000000062,-0.4121,0.09499999999999997,0.06000000000000005,0.44999999999999996,0.14538000000000006,-0.11021999999999998,0.24083999999999994,1742238543.2876391
0.20999999999999996,-0.235,0.365,-0.01317999999999997,-0.059820000000000095,0.008539999999999992,-0.05500000000000005,0.2650000000000001,0.7050000000000001,-0.029779999999999918,-0.19226,-0.1591800000000001,1742238543.407537
-0.07999999999999996,-0.475,0.3500000000000001,0.45055999999999985,-0.5373600000000001,1.0,-0.635,-0.41999999999999993,0.72,-0.40406,0.4437200000000001,-0.77662,1742238543.5083442
-0.735,-0.255,0.7149999999999999,-0.4830399999999999,0.13354,0.1494200000000001,0.014999999999999902,-0.375,0.2450000000000001,0.4497,0.046640000000000015,0.2813800000000002,1742238543.622045
0.07000000000000006,0.06499999999999995,0.2450000000000001,-0.18603999999999998,0.44544000000000006,-0.45677999999999996,0.135,-0.040000000000000036,0.44500000000000006,0.10718000000000005,-0.18541999999999992,0.3080999999999998,1742238543.735116
0.1499999999999999,-0.19999999999999996,0.33000000000000007,-0.22241999999999995,-0.11938000000000004,-0.5905800000000001,0.10000000000000009,0.05499999999999994,0.48,0.010739999999999972,-0.16688000000000003,0.12170000000000014,1742238543.849011
0.20999999999999996,-0.56,0.44500000000000006,-0.06628,-0.17652,0.0015800000000001369,0.02499999999999991,0.5150000000000001,0.6800000000000002,-0.09034000000000009,-0.0008599999999999719,-0.4707,1742238543.9683478
-0.565,-0.43500000000000005,0.4750000000000001,0.51892,-0.54528,1.0,-0.67,-0.19999999999999996,1.0,0.016599999999999948,0.23253999999999997,-0.32323999999999997,1742238544.0886002
-0.475,0.405,0.26,-0.67188,0.46252000000000004,-0.20446000000000009,0.05499999999999994,-0.255,0.23499999999999988,0.10046,-0.008539999999999992,0.38476,1742238544.208889
0.24,-0.13,0.24,-0.3811,0.03210000000000002,-0.7969999999999999,0.125,0.040000000000000036,0.41999999999999993,0.12134,-0.11987999999999999,0.38134,1742238544.303989
0.18500000000000005,-0.28,0.41999999999999993,-0.08775999999999995,-0.1189,-0.32642000000000004,0.14500000000000002,0.345,0.5449999999999999,0.16003999999999996,-0.31433999999999995,0.10827999999999993,1742238544.419034
0.31000000000000005,-0.665,0.355,-0.06115999999999999,-0.16394000000000009,0.15052,-0.31000000000000005,0.19500000000000006,0.6499999999999999,-0.20068000000000008,0.30200000000000005,-0.9524,1742238544.53125
-1.0,-0.845,1.0,0.7093600000000002,-0.66028,1.0,-0.15500000000000003,-0.385,0.32499999999999996,0.67334,0.12609999999999988,0.2354799999999999,1742238544.649272
-0.16000000000000003,0.22999999999999998,0.33499999999999996,-0.28064,0.38817999999999997,-0.34033999999999986,0.014999999999999902,-0.20999999999999996,0.3700000000000001,0.04932000000000003,-0.06494000000000011,0.45618000000000003,1742238544.76838
0.11499999999999999,-0.135,0.32499999999999996,-0.27662,0.07103999999999999,-0.6771199999999999,0.09499999999999997,0.1200000000000001,0.4849999999999999,0.09289999999999998,-0.19946000000000008,0.3834200000000001,1742238544.888723
0.21500000000000008,-0.39,0.43500000000000005,-0.09741999999999995,-0.20799999999999996,-0.24438000000000004,0.08499999999999996,0.5150000000000001,0.6299999999999999,0.1407400000000001,-0.2815,-0.09192,1742238544.98702
0.1499999999999999,-0.575,0.385,0.25561999999999996,-0.23974000000000006,0.75976,-1.0,-0.885,0.7,-0.54614,0.68774,-1.0,1742238545.1014888
-1.0,-0.49,1.0,-0.47950000000000004,-0.13537999999999994,0.41418,-0.020000000000000018,-0.58,0.10499999999999998,0.8123800000000001,0.005740000000000078,0.45252000000000003,1742238545.215071
0.004999999999999893,-0.10499999999999998,0.2849999999999999,-0.34498000000000006,0.47840000000000016,-0.67164,-0.0050000000000000044,-0.08999999999999997,0.44500000000000006,-0.01317999999999997,-0.15991999999999995,0.4596,1742238545.330577
0.1299999999999999,-0.345,0.355,-0.13794000000000006,-0.039919999999999956,-0.56774,0.030000000000000027,0.1299999999999999,0.5449999999999999,0.027099999999999902,-0.26954,0.3431399999999998,1742238545.450604
0.16999999999999993,-0.41999999999999993,0.3799999999999999,-0.04688000000000003,-0.10620000000000007,-0.009399999999999964,-0.03500000000000003,0.645,0.75,0.16527999999999987,-0.17724000000000006,-0.14246000000000003,1742238545.5708642
0.004999999999999893,-0.6,0.33000000000000007,0.59558,-0.2735599999999999,1.0,-1.0,-1.0,0.595,-0.72692,0.6966599999999998,-1.0,1742238545.690691
-0.45500000000000007,0.645,0.45999999999999996,-0.80274,0.30286000000000013,-0.14698,0.1100000000000001,-0.35,0.04499999999999993,0.14856000000000003,0.03723999999999994,0.37683999999999984,1742238545.783986
0.004999999999999893,-0.040000000000000036,0.2749999999999999,-0.25134,0.038939999999999975,-0.82508,-0.04500000000000004,-0.14500000000000002,0.47,-0.07020000000000004,-0.21314,0.37707999999999986,1742238545.897279
0.07499999999999996,-0.30499999999999994,0.44500000000000006,-0.10620000000000007,-0.012820000000000054,-0.3833,0.02499999999999991,0.17999999999999994,0.5350000000000001,0.08923999999999999,-0.21998000000000006,0.28956000000000004,1742238546.010936
0.16999999999999993,-0.625,0.41999999999999993,-0.22510000000000008,-0.2851600000000001,-0.17479999999999996,-0.17500000000000004,0.6699999999999999,0.845,0.10631999999999997,-0.15576,-0.38294000000000006,1742238546.131055
-0.86,-0.63,0.48,0.40501999999999994,-0.39037999999999995,1.0,-1.0,0.2650000000000001,1.0,-0.34033999999999986,-0.11009999999999998,-1.0,1742238546.2506251
-0.715,0.56,0.20500000000000007,-1.0,-0.17577999999999994,-0.09227999999999992,-0.020000000000000018,-0.525,0.2250000000000001,0.27783999999999986,0.1902999999999999,0.38050000000000006,1742238546.3704782
-0.06499999999999995,-0.17999999999999994,0.21500000000000008,-0.4338399999999999,0.5130599999999998,-1.0,0.1200000000000001,0.014999999999999902,0.365,0.3468,-0.37268,0.6978800000000001,1742238546.466102
0.1499999999999999,-0.54,0.3700000000000001,-0.04908000000000001,-0.26561999999999997,-0.62854,0.004999999999999893,0.21500000000000008,0.635,0.013800000000000034,-0.2376800000000001,0.035640000000000116,1742238546.579971
0.17999999999999994,-0.695,0.45999999999999996,-0.26537999999999995,-0.3086,0.20067999999999997,-0.41500000000000004,0.10499999999999998,0.6800000000000002,0.012580000000000036,0.08885999999999994,-0.85022,1742238546.694114
-1.0,-0.345,0.95,0.44178000000000006,0.2811199999999998,1.0,-0.345,-0.26,0.6299999999999999,0.3580399999999999,0.27159999999999984,-0.23438000000000003,1742238546.810872
-0.49,0.7050000000000001,0.3700000000000001,-0.25061999999999995,0.04699999999999993,-0.17872,0.014999999999999902,-0.29499999999999993,0.2450000000000001,0.13758000000000004,-0.16346000000000005,0.5239200000000002,1742238546.930841
0.06000000000000005,-0.245,0.25,-0.38146,0.10498000000000007,-1.0,-0.08499999999999996,0.09000000000000008,0.53,0.07079999999999997,-0.30589999999999995,0.5328400000000002,1742238547.050872
0.10499999999999998,-0.58,0.4950000000000001,-0.15148000000000006,-0.25903999999999994,-0.5808200000000001,-0.10999999999999999,0.385,0.6949999999999998,0.1212200000000001,-0.32264000000000004,0.07481999999999989,1742238547.171368
0.10499999999999998,-0.645,0.3999999999999999,-0.10863999999999996,-0.20189999999999997,0.48706000000000005,-0.915,-0.765,0.3400000000000001,-0.08299999999999996,0.88916,-1.0,1742238547.264246
-1.0,-0.895,0.835,0.7961399999999998,-0.52088,1.0,-0.21499999999999997,-0.515,0.365,0.34875999999999996,0.022460000000000147,0.10705999999999993,1742238547.3779998
-0.33000000000000007,0.2749999999999999,0.29499999999999993,-0.42664,0.1827399999999999,-0.51586,-0.15500000000000003,0.0,0.395,0.15551999999999988,-0.060919999999999974,0.7441399999999998,1742238547.492099
0.06000000000000005,-0.33499999999999996,0.3400000000000001,-0.2830799999999999,0.2118,-0.7793,-0.16000000000000003,0.14500000000000002,0.5699999999999998,0.04675999999999991,-0.24108000000000007,0.5441799999999999,1742238547.6114008
0.15500000000000003,-0.45500000000000007,0.44999999999999996,-0.26403999999999994,-0.20787999999999995,-0.41881999999999997,-0.21999999999999997,0.55,0.835,0.2644000000000002,-0.36462000000000006,0.010499999999999954,1742238547.73131
-0.050000000000000044,-0.42999999999999994,0.4650000000000001,0.11535999999999991,-0.10938000000000003,0.86694,-0.765,-0.41999999999999993,0.55,-1.0,0.7243600000000001,-1.0,1742238547.8507788
-0.945,-0.735,1.0,-0.2279,0.03968000000000016,0.4264000000000001,-0.025000000000000022,-0.48,0.17999999999999994,0.43823999999999996,-0.04370000000000007,0.4106399999999999,1742238547.948118
-0.030000000000000027,-0.010000000000000009,0.3999999999999999,-0.04077999999999993,0.3077399999999999,-0.39002000000000003,0.02499999999999991,-0.08499999999999996,0.4750000000000001,0.06909999999999994,-0.12841999999999998,0.3971,1742238548.061975
0.18999999999999995,-0.21499999999999997,0.2749999999999999,-0.35997999999999997,0.12231999999999998,-0.54174,0.06000000000000005,0.1499999999999999,0.55,0.1493,-0.25098,0.1790799999999999,1742238548.175892
0.17999999999999994,-0.4,0.3799999999999999,-0.20044000000000006,-0.3730399999999999,-0.18152000000000001,-0.13,0.2849999999999999,0.69,-0.12036000000000002,0.05371999999999999,-0.59924,1742238548.291245
-0.30000000000000004,-0.43999999999999995,0.56,0.2832000000000001,-0.11987999999999999,1.0,-0.835,-0.395,0.7349999999999999,-0.77186,0.21679999999999988,-0.8709800000000001,1742238548.411295
-0.79,-0.58,0.96,-0.69372,0.0042800000000000615,0.2389000000000001,-0.030000000000000027,-0.405,0.2450000000000001,0.30494,0.1822600000000001,0.32311999999999985,1742238548.5310771
0.10499999999999998,-0.06000000000000005,0.355,-0.25903999999999994,0.36206000000000005,-0.5078199999999999,0.16500000000000004,-0.025000000000000022,0.32499999999999996,0.3443600000000002,-0.17334000000000005,0.5764200000000002,1742238548.651225
0.29499999999999993,-0.32000000000000006,0.33499999999999996,-0.43933999999999995,-0.14318000000000008,-0.6143799999999999,-0.040000000000000036,0.20500000000000007,0.72,0.04711999999999983,-0.29589999999999994,0.14368000000000003,1742238548.74514
0.27,-0.7,0.44999999999999996,0.10973999999999995,-0.20508000000000004,0.15466000000000002,-0.040000000000000036,0.3400000000000001,0.5800000000000001,-0.08739999999999992,0.11071999999999993,-0.63758,1742238548.8591108
-0.815,-0.42999999999999994,0.875,0.80176,-0.05712000000000006,1.0,-0.985,-0.17500000000000004,1.0,-0.3259200000000001,0.12194000000000016,-0.4668,1742238548.973262
-0.30000000000000004,0.2749999999999999,0.3799999999999999,-0.27294000000000007,0.21240000000000014,-0.07250000000000001,0.07499999999999996,-0.20499999999999996,0.20500000000000007,0.1336600000000001,0.14466,0.41223999999999994,1742238549.091188
0.26,-0.16000000000000003,0.25,-0.58166,0.10875999999999997,-0.74182,0.06499999999999995,0.11499999999999999,0.4750000000000001,0.22986000000000018,-0.27344,0.46629999999999994,1742238549.211382
0.18500000000000005,-0.43500000000000005,0.4950000000000001,-0.21448,-0.27879999999999994,-0.3259200000000001,-0.09999999999999998,0.44500000000000006,0.7749999999999999,0.05518000000000001,-0.23741999999999996,-0.12684000000000006,1742238549.331042
0.030000000000000027,-0.42500000000000004,0.3799999999999999,-0.03173999999999999,-0.24694000000000005,0.55358,-0.595,-0.25,0.405,-0.18359999999999999,0.26683999999999997,-1.0,1742238549.451036
-1.0,-0.95,0.8300000000000001,0.7207000000000001,-0.42798,1.0,-0.18999999999999995,-0.405,0.33000000000000007,0.69042,0.25061999999999984,0.2182599999999999,1742238549.543042
-0.26,0.050000000000000044,0.4099999999999999,-0.34875999999999996,0.38452,-0.51806,0.06000000000000005,-0.040000000000000036,0.355,0.08409999999999984,-0.018919999999999937,0.5384599999999999,1742238549.6570618
0.16999999999999993,-0.345,0.2549999999999999,-0.5292999999999999,0.22338000000000013,-0.91126,-0.025000000000000022,0.08499999999999996,0.51,0.26317999999999997,-0.3518,0.5286799999999998,1742238549.7710268
0.06499999999999995,-0.44500000000000006,0.565,-0.21716000000000002,-0.2882,-0.29064,-0.22999999999999998,0.19500000000000006,0.7450000000000001,0.4672799999999999,-0.31726,0.013800000000000034,1742238549.891094
-0.18999999999999995,0.24,0.44500000000000006,-0.1016800000000001,0.27966,-0.4314,-0.375,-0.19500000000000006,0.6200000000000001,0.8442400000000001,0.1433199999999999,0.19166000000000016,1742238596.466086
0.08499999999999996,-0.265,0.385,-0.16810000000000003,0.0611600000000001,-0.90076,0.02499999999999991,-0.17500000000000004,0.405,-0.08704,-0.07434000000000007,0.41223999999999994,1742238596.560179
0.23499999999999988,-0.33499999999999996,0.4099999999999999,-0.10450000000000004,-0.15186,-0.06458000000000008,0.014999999999999902,0.004999999999999893,0.41999999999999993,0.11718000000000006,-0.09620000000000006,0.4063800000000002,1742238596.6742918
-0.17000000000000004,-0.555,0.43500000000000005,0.6200000000000001,-0.44787999999999994,1.0,-0.07999999999999996,0.3799999999999999,0.7349999999999999,0.1348800000000001,-0.3161600000000001,-0.08618000000000003,1742238596.7881758
-0.615,0.08000000000000007,0.51,-0.6527000000000001,0.22742000000000018,0.14440000000000008,-0.735,-0.365,0.71,-1.0,0.47840000000000016,-1.0,1742238596.912126
0.17999999999999994,-0.20499999999999996,0.20999999999999996,-0.49816000000000005,0.20873999999999993,-0.9929199999999999,0.09499999999999997,-0.45999999999999996,0.14000000000000012,0.25794000000000006,0.2157,0.36194000000000015,1742238597.03031
0.14000000000000012,-0.38,0.4950000000000001,-0.34033999999999986,-0.16601999999999995,-0.44348,-0.040000000000000036,-0.09499999999999997,0.45999999999999996,0.27171999999999996,-0.5647,0.6514800000000001,1742238597.148012
0.31000000000000005,-0.56,0.31499999999999995,0.19300000000000006,-0.20055999999999996,0.5667800000000001,-0.09499999999999997,0.08000000000000007,0.6200000000000001,0.15759999999999996,-0.23839999999999995,0.14124000000000003,1742238597.244159
-1.0,-1.0,1.0,0.6568600000000002,-0.54432,1.0,-0.15500000000000003,0.14000000000000012,0.54,-0.1654,0.3495999999999999,-0.78552,1742238597.358243
-0.03500000000000003,0.16500000000000004,0.24,-0.32874000000000003,0.49122,-0.5053799999999999,-0.51,0.020000000000000018,0.97,0.31909999999999994,0.08740000000000014,-0.06896000000000002,1742238597.4722078
0.14500000000000002,-0.22999999999999998,0.41500000000000004,-0.5195399999999999,-0.17089999999999994,-0.74048,0.10000000000000009,-0.050000000000000044,0.345,0.14318000000000008,-0.19579999999999997,0.5475999999999999,1742238597.58828
0.23499999999999988,-0.42500000000000004,0.47,-0.05884,-0.23875999999999997,0.1309800000000001,-0.050000000000000044,0.06499999999999995,0.56,0.18444000000000016,-0.28674,0.36158,1742238597.708254
-0.355,-0.42999999999999994,0.4950000000000001,0.7985799999999998,-0.40624000000000005,1.0,-0.16500000000000004,0.08000000000000007,0.685,0.005619999999999958,0.21276000000000006,-0.38916000000000006,1742238597.8283122
-0.30000000000000004,0.06000000000000005,0.395,-0.5748200000000001,0.22986000000000018,-0.3111600000000001,-0.405,0.1299999999999999,1.0,-0.58826,0.20276000000000005,-0.5144,1742238597.948828
0.15500000000000003,-0.17500000000000004,0.29499999999999993,-0.4399400000000001,0.30357999999999996,-0.6809,0.05499999999999994,-0.25,0.2749999999999999,0.21240000000000014,-0.12658000000000003,0.45496000000000003,1742238598.0422971
0.2250000000000001,-0.32000000000000006,0.3900000000000001,-0.26049999999999995,-0.28222,-0.35718000000000005,0.06499999999999995,0.07499999999999996,0.5249999999999999,0.1691800000000001,-0.14698,0.2612399999999999,1742238598.156318
-0.010000000000000009,-0.275,0.3700000000000001,0.15477999999999992,-0.28955999999999993,0.75976,0.09000000000000008,0.25,0.565,0.15100000000000002,-0.16674,-0.10938000000000003,1742238598.270275
-0.625,-0.33000000000000007,0.8199999999999998,-0.40466000000000013,0.20677999999999996,0.3135999999999999,-0.635,-0.66,0.645,-1.0,0.4476399999999998,-0.99658,1742238598.388105
-0.0050000000000000044,-0.09999999999999998,0.365,-0.21874000000000005,0.35778,-0.62426,-0.025000000000000022,-0.4,0.23499999999999988,0.30944000000000016,-0.018179999999999974,0.40405999999999986,1742238598.5081449
0.21999999999999997,-0.24,0.32000000000000006,-0.36414,-0.10010000000000008,-0.45555999999999996,0.030000000000000027,0.135,0.4950000000000001,0.11792000000000002,-0.05577999999999994,0.30920000000000014,1742238598.628149
0.30000000000000004,-0.57,0.44500000000000006,0.07972000000000001,-0.15855999999999992,0.26636000000000015,0.1299999999999999,0.17999999999999994,0.5,0.07153999999999994,-0.0650599999999999,0.08570000000000011,1742238598.748162
-1.0,-1.0,1.0,0.8437399999999999,-0.11170000000000002,1.0,0.050000000000000044,0.32499999999999996,0.605,0.16833999999999993,-0.12,-0.36485999999999996,1742238598.8403049
0.16999999999999993,0.02499999999999991,0.1200000000000001,-0.2830799999999999,0.3162799999999999,-0.50562,-0.74,-0.08999999999999997,1.0,0.3773199999999999,0.10033999999999987,-0.13794000000000006,1742238598.9542751
0.2650000000000001,-0.355,0.29000000000000004,-0.08862000000000003,0.025640000000000107,-0.29736000000000007,0.010000000000000009,-0.16500000000000004,0.33499999999999996,-0.06103999999999998,-0.20446000000000009,0.4779,1742238599.068246
0.28,-0.375,0.30499999999999994,-0.0122000000000001,-0.15796,0.046640000000000015,0.030000000000000027,0.10499999999999998,0.5350000000000001,0.0638399999999999,-0.11608000000000007,0.22631999999999985,1742238599.188155
-0.8,-0.13,0.685,0.9541,-0.65162,1.0,0.02499999999999991,0.4849999999999999,0.6949999999999998,0.20043999999999995,-0.13024000000000002,-0.17420000000000002,1742238599.308118
-0.135,0.20500000000000007,0.18500000000000005,-0.41724000000000006,0.42542000000000013,-0.37316000000000005,-1.0,-0.38,1.0,-0.44396,0.12059999999999982,-0.58838,1742238599.427686
0.21500000000000008,-0.33499999999999996,0.365,-0.3730399999999999,0.023800000000000043,-0.51124,0.020000000000000018,-0.19500000000000006,0.2549999999999999,0.10777999999999999,-0.14734000000000003,0.48595999999999995,1742238599.524362
0.22999999999999998,-0.32000000000000006,0.3999999999999999,-0.12951999999999997,-0.13537999999999994,0.00550000000000006,-0.0050000000000000044,0.1100000000000001,0.52,0.07800000000000007,-0.15870000000000006,0.2510999999999999,1742238599.638156
-0.05500000000000005,-0.38,0.3500000000000001,0.3446,-0.20228000000000002,0.9688800000000002,-0.0050000000000000044,0.3799999999999999,0.635,0.17408,-0.14136000000000004,-0.10741999999999996,1742238599.7522671
-0.405,0.14000000000000012,0.6000000000000001,-0.8741399999999999,0.34924,-0.39561999999999997,-0.905,-0.905,0.52,-0.79004,0.75244,-1.0,1742238599.867056
0.11499999999999999,-0.18999999999999995,0.27,-0.10131999999999997,0.1593,-0.63758,0.004999999999999893,-0.4099999999999999,0.15999999999999992,0.35438000000000014,-0.15942,0.53356,1742238599.988307
0.14000000000000012,-0.33000000000000007,0.42999999999999994,-0.20350000000000001,-0.13415999999999995,-0.27222,0.030000000000000027,0.030000000000000027,0.4750000000000001,-0.015859999999999985,-0.14281999999999995,0.3062799999999999,1742238600.109524
0.18999999999999995,-0.535,0.41999999999999993,-0.08775999999999995,-0.22718000000000005,0.3359400000000001,-0.020000000000000018,0.1299999999999999,0.565,0.06788000000000016,-0.12805999999999995,0.1423399999999999,1742238600.227707
-1.0,-0.78,1.0,1.0,0.1717599999999999,1.0,-0.125,0.3500000000000001,0.6949999999999998,-0.02088000000000001,0.10498000000000007,-0.55896,1742238600.322177
0.040000000000000036,0.22999999999999998,0.125,-0.3335,0.32177999999999995,-0.5337000000000001,-0.62,-0.44999999999999996,0.865,0.23438000000000003,0.09851999999999994,-0.19311999999999996,1742238600.436158
0.21500000000000008,-0.32000000000000006,0.3900000000000001,-0.18725999999999998,-0.09741999999999995,-0.45874000000000004,0.06499999999999995,-0.08999999999999997,0.31000000000000005,-0.23815999999999993,-0.06896000000000002,0.3385,1742238600.5503192
0.23499999999999988,-0.535,0.43999999999999995,-0.13341999999999998,-0.24327999999999994,0.04064000000000001,0.0,0.1499999999999999,0.55,0.10546000000000011,-0.24791999999999992,0.2552399999999999,1742238600.668493
-1.0,0.3799999999999999,0.8399999999999999,0.7427999999999999,-0.047719999999999985,1.0,-0.04500000000000004,0.43500000000000005,0.72,0.06555999999999984,0.030279999999999863,-0.36107999999999996,1742238600.78724
-0.06499999999999995,0.18999999999999995,0.2450000000000001,-0.2221599999999999,0.39904000000000006,-0.22584000000000004,-0.835,-0.27,1.0,-0.3973399999999999,0.11229999999999984,-0.38305999999999996,1742238600.9090838
0.21500000000000008,-0.25,0.32000000000000006,-0.19287999999999994,0.017819999999999947,-0.43786,0.040000000000000036,-0.26,0.22999999999999998,-0.04637999999999998,-0.09875999999999996,0.3872,1742238601.029217
0.2250000000000001,-0.41500000000000004,0.395,-0.14002000000000003,-0.11146,-0.09936,0.030000000000000027,0.09499999999999997,0.54,0.04932000000000003,-0.10339999999999994,0.2681800000000001,1742238601.120239
0.16500000000000004,-0.58,0.3500000000000001,0.20130000000000003,-0.20141999999999993,0.82728,0.14000000000000012,0.365,0.565,0.18261999999999978,-0.21216000000000002,0.03820000000000001,1742238601.2341702
-1.0,-0.525,1.0,-0.33802,0.08299999999999996,0.11047999999999991,-0.59,-0.485,0.53,-0.2625799999999999,0.3282400000000001,-0.9514199999999999,1742238601.348782
0.11499999999999999,-0.13,0.21500000000000008,-0.26927999999999996,0.20677999999999996,-0.75268,0.11499999999999999,-0.4,0.05499999999999994,0.8676799999999998,0.13647999999999993,0.6042400000000001,1742238601.469138
0.21500000000000008,-0.32499999999999996,0.32499999999999996,-0.3188399999999999,-0.07618000000000003,-0.469,0.010000000000000009,0.06000000000000005,0.44500000000000006,-0.08287999999999995,-0.25976,0.37378,1742238601.58862
0.19500000000000006,-0.68,0.43999999999999995,-0.1802999999999999,-0.26903999999999995,0.15466000000000002,-0.06499999999999995,0.11499999999999999,0.6200000000000001,0.1533199999999999,-0.2158199999999999,0.14100000000000001,1742238601.707978
-0.98,-0.18500000000000005,0.5350000000000001,1.0,-0.08886000000000005,1.0,-0.15500000000000003,0.17999999999999994,0.6400000000000001,0.0006200000000000649,0.13122000000000011,-0.5868,1742238601.804278
-0.14500000000000002,0.125,0.31000000000000005,-0.4524,0.35352000000000006,-0.42247999999999997,-0.535,0.42999999999999994,1.0,-0.38636000000000004,0.05140000000000011,-0.5116,1742238601.9181151
0.14000000000000012,-0.27,0.41999999999999993,-0.47474000000000005,-0.05896000000000001,-0.73536,0.03499999999999992,-0.18500000000000005,0.32499999999999996,0.0671400000000002,-0.1632,0.46043999999999996,1742238602.032305
0.19500000000000006,-0.395,0.41500000000000004,-0.09510000000000007,-0.28564,0.03516000000000008,0.040000000000000036,0.06000000000000005,0.5150000000000001,0.21507999999999994,-0.22777999999999998,0.3369200000000001,1742238602.1478689
-0.29499999999999993,-0.135,0.405,0.41503999999999985,-0.03479999999999994,1.0,-0.050000000000000044,0.23499999999999988,0.585,0.1933600000000002,-0.23156,-0.10572000000000004,1742238602.267156
-0.41500000000000004,-0.025000000000000022,0.6099999999999999,-0.92164,0.1557599999999999,-0.22094000000000003,-0.79,-0.895,0.395,-1.0,0.83142,-1.0,1742238602.387423
0.040000000000000036,-0.22999999999999998,0.375,-0.43920000000000003,0.20020000000000016,-0.74316,-0.06499999999999995,-0.45500000000000007,0.22999999999999998,0.4535,-0.10438000000000003,0.5430999999999999,1742238602.5072792
0.16500000000000004,-0.31499999999999995,0.375,-0.39757999999999993,-0.12378,-0.5959400000000001,-0.010000000000000009,0.09000000000000008,0.52,0.08460000000000001,-0.16784,0.49,1742238602.602152
0.1499999999999999,-0.52,0.5150000000000001,-0.17774,-0.33544000000000007,0.1203599999999998,-0.135,0.07499999999999996,0.605,0.058599999999999985,-0.2329199999999999,0.04370000000000007,1742238602.716094
-0.91,-1.0,0.5699999999999998,1.0,-0.34007999999999994,1.0,-0.3400000000000001,-0.135,0.4950000000000001,0.03088000000000002,0.41503999999999985,-0.6856599999999999,1742238602.830223
-0.245,0.22999999999999998,0.2549999999999999,-0.60486,0.1998199999999999,-0.69848,-0.42500000000000004,0.004999999999999893,0.77,0.7060599999999999,0.28162,0.1557599999999999,1742238602.947409
0.05499999999999994,-0.275,0.49,-0.47131999999999996,-0.10839999999999994,-0.90406,0.07000000000000006,-0.15500000000000003,0.31499999999999995,0.26561999999999997,-0.42589999999999995,0.6176799999999998,1742238603.068276
0.07000000000000006,-0.375,0.5350000000000001,-0.16271999999999998,-0.2229,-0.18065999999999993,-0.18500000000000005,0.014999999999999902,0.615,0.11402000000000001,-0.30628,0.41857999999999995,1742238603.187837
-0.26,-0.10999999999999999,0.2849999999999999,0.5065999999999999,0.12464000000000008,1.0,-0.12,0.08499999999999996,0.565,0.17676000000000003,0.04614000000000007,-0.09436,1742238603.307675
-0.49,-0.28,0.585,-0.8905,0.18542000000000014,-0.3075,-0.4650000000000001,-0.76,0.26,-1.0,0.8690199999999999,-1.0,1742238603.400297
-0.040000000000000036,-0.19500000000000006,0.385,-0.20092,0.1802999999999999,-0.77112,-0.06000000000000005,-0.41500000000000004,0.2849999999999999,0.45788000000000006,0.006599999999999939,0.5086600000000001,1742238603.514187
0.09000000000000008,-0.31000000000000005,0.3599999999999999,-0.30444000000000004,-0.07591999999999999,-0.47474000000000005,-0.14,-0.040000000000000036,0.4650000000000001,0.09838000000000013,-0.45520000000000005,0.6351399999999998,1742238603.628178
0.19500000000000006,-0.42500000000000004,0.42999999999999994,-0.1899400000000001,-0.23753999999999997,0.12609999999999988,-0.13,0.09000000000000008,0.55,0.16944000000000004,-0.10096000000000005,0.26648000000000005,1742238603.747657
-0.71,-1.0,0.5449999999999999,1.0,-0.25952,1.0,-0.19500000000000006,-0.07999999999999996,0.4849999999999999,-0.04810000000000003,0.40844000000000014,-0.82958,1742238603.86786
-0.24,0.14000000000000012,0.2749999999999999,-0.52198,0.24609999999999999,-0.65906,-0.785,0.3500000000000001,0.9300000000000002,-0.019039999999999946,0.09777999999999998,-0.42396,1742238603.98751
0.10499999999999998,-0.375,0.375,-0.5037799999999999,0.03649999999999998,-0.89002,-0.07499999999999996,-0.07999999999999996,0.345,0.19568000000000008,-0.19531999999999994,0.8000399999999999,1742238604.084102
0.1299999999999999,-0.395,0.45500000000000007,-0.25427999999999995,-0.17774,-0.2821,-0.31499999999999995,0.02499999999999991,0.565,0.09436,-0.32422000000000006,0.5368600000000001,1742238604.198194
0.08000000000000007,-0.345,0.32499999999999996,-0.027840000000000087,-0.03858000000000006,0.7610999999999999,-0.19500000000000006,0.09000000000000008,0.6000000000000001,0.28881999999999985,0.10289999999999999,-0.08386000000000005,1742238604.312107
-1.0,-1.0,1.0,0.5571199999999998,-0.05944000000000005,1.0,-0.565,-0.485,0.385,-0.9718,0.9368800000000002,-1.0,1742238604.426409
0.02499999999999991,-0.17999999999999994,0.355,-0.12084000000000006,0.41369999999999996,-0.5873999999999999,-0.07999999999999996,-0.56,0.2849999999999999,0.5168400000000002,-0.20118000000000003,0.4560599999999999,1742238604.54779
0.21999999999999997,-0.38,0.29499999999999993,-0.2329199999999999,0.24083999999999994,-0.42212000000000005,-0.09999999999999998,-0.09999999999999998,0.4750000000000001,0.13707999999999987,-0.26722,0.5354000000000001,1742238604.6730618
0.1200000000000001,-0.265,0.42500000000000004,-0.25988,-0.44166000000000005,-0.012460000000000027,-0.050000000000000044,0.040000000000000036,0.51,0.07409999999999983,-0.26672000000000007,0.32397999999999993,1742238604.7874198
-0.24,-0.37,0.42999999999999994,0.4533600000000002,-0.028200000000000003,1.0,-0.15500000000000003,0.25,0.55,0.22876000000000007,-0.26954,0.04833999999999983,1742238604.882015
-0.42999999999999994,-0.52,0.7349999999999999,-0.9032,-0.0022000000000000908,-0.20118000000000003,-0.555,-0.395,0.2650000000000001,0.07079999999999997,0.8194600000000001,-0.91932,1742238604.996207
-0.040000000000000036,-0.11499999999999999,0.4099999999999999,-0.09605999999999992,0.15368000000000004,-0.73804,-0.30499999999999994,-0.29499999999999993,0.45500000000000007,0.6730999999999998,0.04968000000000017,0.4162600000000001,1742238605.110166
0.07499999999999996,-0.3400000000000001,0.4099999999999999,-0.49804000000000004,0.060799999999999965,-0.66834,-0.11499999999999999,-0.07999999999999996,0.41999999999999993,0.10314000000000001,-0.3503399999999999,0.57654,1742238605.228927
0.17999999999999994,-0.43500000000000005,0.5049999999999999,-0.21436,-0.2563399999999999,-0.10411999999999999,-0.19999999999999996,0.050000000000000044,0.575,0.16711999999999994,-0.21838000000000002,0.36022,1742238605.3476968
-0.67,-0.5,0.355,1.0,0.0578599999999998,1.0,-0.14,0.020000000000000018,0.55,0.20763999999999982,0.2966399999999998,-0.39013999999999993,1742238605.467742
-0.26,0.15999999999999992,0.15999999999999992,-0.85694,0.06285999999999992,-0.83984,-0.66,0.31499999999999995,0.8799999999999999,-0.05958000000000008,0.13817999999999997,-0.28979999999999995,1742238605.587513
0.040000000000000036,-0.30000000000000004,0.48,-0.03649999999999998,0.08055999999999996,-0.56092,-0.16000000000000003,-0.31000000000000005,0.385,0.05688000000000004,-0.28625999999999996,0.47156,1742238605.680017
0.1499999999999999,-0.245,0.385,-0.15649999999999997,-0.09448000000000001,-0.19201999999999997,-0.10499999999999998,-0.05500000000000005,0.48,0.03638000000000008,-0.16015999999999997,0.34046,1742238605.7941172
-0.025000000000000022,-0.41999999999999993,0.48,-0.3711,-0.40612000000000004,0.20398000000000005,-0.06499999999999995,0.11499999999999999,0.54,0.13463999999999987,-0.17896,0.1679600000000001,1742238605.908108
-0.765,-0.13,0.2650000000000001,1.0,0.7525599999999999,1.0,-0.32000000000000006,-0.05500000000000005,0.6600000000000001,0.42125999999999997,0.67004,-0.33948,1742238606.027364
-0.265,0.395,0.21500000000000008,-0.6928799999999999,-0.18872,-0.57128,-0.29499999999999993,0.42500000000000004,1.0,-1.0,-0.10694000000000004,-0.70472,1742238606.147535
0.14000000000000012,-0.31499999999999995,0.47,-0.14368000000000003,0.31323999999999996,-0.604,-0.135,-0.42500000000000004,0.405,0.043460000000000054,-0.42003999999999997,0.4128399999999999,1742238606.267168
0.17500000000000004,-0.385,0.44500000000000006,-0.24108000000000007,-0.43457999999999997,-0.37585999999999997,-0.03500000000000003,-0.03500000000000003,0.44999999999999996,0.03638000000000008,-0.10046,0.34948,1742238606.3641229
-0.10499999999999998,-0.405,0.55,-0.37707999999999997,-0.042120000000000046,0.6167,-0.15500000000000003,0.14000000000000012,0.665,0.3440000000000001,-0.45948,0.28869999999999996,1742238606.478153
-1.0,-1.0,1.0,0.5471199999999998,-0.028679999999999928,1.0,-0.475,-0.665,0.21500000000000008,-0.87524,1.0,-1.0,1742238606.592031
-0.16000000000000003,0.14000000000000012,0.32499999999999996,-0.09498000000000006,0.11229999999999984,-0.7871,0.16500000000000004,-0.5,0.09499999999999997,1.0,-0.20787999999999995,0.4841399999999998,1742238606.708454
0.1299999999999999,-0.33499999999999996,0.355,-0.4240799999999999,-0.012940000000000063,-0.58496,-0.07000000000000006,-0.07499999999999996,0.4950000000000001,-0.05810000000000004,-0.2529199999999999,0.31420000000000003,1742238606.830548
0.18999999999999995,-0.525,0.5699999999999998,-0.27844,-0.2475599999999999,-0.046499999999999986,-0.08499999999999996,-0.03500000000000003,0.5150000000000001,0.1435599999999999,-0.18565999999999994,0.23497999999999997,1742238606.948752
-0.84,-0.39,0.41500000000000004,1.0,0.10424000000000011,1.0,-0.19500000000000006,0.050000000000000044,0.625,0.3170200000000001,0.041020000000000056,-0.21129999999999993,1742238607.069279
-0.10499999999999998,0.07499999999999996,0.17500000000000004,-0.4598399999999999,0.37964,-0.5792200000000001,-0.625,-0.040000000000000036,0.375,-1.0,0.9122399999999999,-0.8617,1742238607.162024
0.20500000000000007,-0.30499999999999994,0.345,-0.10424,-0.02746000000000004,-0.6228,-0.13,-0.48,0.345,0.36158,-0.34998000000000007,0.43384,1742238607.276118
0.1299999999999999,-0.31000000000000005,0.42999999999999994,-0.25683999999999996,-0.22094000000000003,-0.22899999999999998,-0.050000000000000044,-0.11499999999999999,0.49,0.07006000000000001,-0.20716,0.32520000000000016,1742238607.390138
-0.05500000000000005,-0.47,0.53,0.18640000000000012,-0.11402000000000001,1.0,-0.05500000000000005,-0.020000000000000018,0.56,0.06347999999999998,-0.28503999999999996,0.20690000000000008,1742238607.508773
-0.715,-0.05500000000000005,0.825,-0.96448,-0.05455999999999994,-0.27037999999999995,-0.24,-0.29000000000000004,0.5550000000000002,-0.32496,0.8812200000000001,-0.94178,1742238607.628831
0.19500000000000006,-0.09999999999999998,0.14000000000000012,-0.41406,0.2086199999999998,-0.8451,0.10499999999999998,-0.58,0.10000000000000009,1.0,-0.08960000000000001,0.5697000000000001,1742238607.748769
0.1100000000000001,-0.33000000000000007,0.4950000000000001,-0.1420800000000001,-0.17358000000000007,-0.36462000000000006,0.07000000000000006,0.08000000000000007,0.5249999999999999,-0.1174400000000001,-0.16968000000000005,0.30908,1742238607.8684192
0.17999999999999994,-0.495,0.42500000000000004,-0.23985999999999996,-0.16736000000000006,-0.03724000000000005,0.020000000000000018,-0.030000000000000027,0.5350000000000001,0.1200000000000001,-0.13842,0.12378,1742238607.9601128
-0.475,0.020000000000000018,0.32000000000000006,0.8350799999999998,0.47326,1.0,-0.050000000000000044,0.31000000000000005,0.575,0.2979799999999999,-0.36560000000000004,-0.17712000000000006,1742238608.073998
-0.16000000000000003,0.42500000000000004,-0.13,-1.0,-0.02734000000000003,-0.6435599999999999,-0.33000000000000007,-0.33499999999999996,0.405,-1.0,0.9084400000000001,-1.0,1742238608.188927
0.1499999999999999,-0.18999999999999995,0.43999999999999995,0.016960000000000086,0.037959999999999994,-0.57386,0.11499999999999999,-0.495,0.1200000000000001,0.73156,-0.0393,0.5067200000000001,1742238608.3091211
0.1100000000000001,-0.235,0.43500000000000005,-0.29138,-0.17176000000000002,-0.45433999999999997,-0.07499999999999996,-0.09499999999999997,0.575,0.34046,-0.61254,0.6273200000000001,1742238608.428886
0.040000000000000036,-0.385,0.42999999999999994,-0.45666000000000007,-0.39624000000000004,-0.12988,-0.10999999999999999,0.1100000000000001,0.6000000000000001,0.23583999999999983,-0.08165999999999995,0.17042000000000002,1742238608.548933
-0.7,-0.18500000000000005,0.30000000000000004,1.0,0.3765799999999999,1.0,-0.355,-0.35,0.3999999999999999,-0.10974000000000006,0.8552200000000001,-0.95654,1742238608.6439428
-0.30499999999999994,0.30499999999999994,0.27,-1.0,-0.11339999999999995,-0.60974,-0.20499999999999996,0.04499999999999993,0.4849999999999999,0.9322600000000001,0.24205999999999994,0.32055999999999996,1742238608.758145
0.21999999999999997,-0.24,0.30000000000000004,-0.44238,0.08153999999999995,-0.87182,0.06000000000000005,-0.16000000000000003,0.3999999999999999,0.031119999999999814,-0.44128,0.47522,1742238608.8721228
0.18500000000000005,-0.33499999999999996,0.45999999999999996,-0.22120000000000006,-0.37060000000000004,-0.25683999999999996,-0.07000000000000006,-0.10499999999999998,0.5449999999999999,0.23926000000000003,-0.25,0.43066000000000004,1742238608.9892
-0.535,0.32499999999999996,0.4849999999999999,0.6843200000000003,0.50854,1.0,-0.03500000000000003,0.24,0.6299999999999999,0.36596000000000006,-0.11363999999999996,-0.017220000000000013,1742238609.109083
-0.22999999999999998,-0.21499999999999997,0.30000000000000004,-1.0,-0.12134,-0.45520000000000005,-0.545,-1.0,-0.25,-1.0,1.0,-1.0,1742238609.229005
0.1499999999999999,-0.24,0.3500000000000001,-0.06408000000000003,0.2231399999999999,-0.7678200000000001,0.08499999999999996,-0.4099999999999999,0.18999999999999995,0.7792999999999999,-0.27076,0.4693600000000002,1742238609.3495958
0.15500000000000003,-0.26,0.4099999999999999,-0.31848,-0.30077999999999994,-0.49244,-0.16500000000000004,-0.09999999999999998,0.615,-0.03149999999999997,-0.36926000000000003,0.31188000000000016,1742238609.442158
0.17999999999999994,-0.495,0.42999999999999994,-0.30762,-0.28406,0.12548000000000004,-0.020000000000000018,-0.03500000000000003,0.5249999999999999,0.1656399999999998,-0.10339999999999994,0.2376800000000001,1742238609.55909
-0.905,-1.0,0.605,1.0,-0.12585999999999997,1.0,-0.14500000000000002,-0.20499999999999996,0.49,0.18603999999999998,0.37817999999999996,-0.46118000000000003,1742238609.673235
-0.17500000000000004,0.14500000000000002,0.26,-0.4290799999999999,0.19190000000000018,-0.82958,-0.31499999999999995,0.11499999999999999,1.0,0.13707999999999987,0.21204,0.014399999999999968,1742238609.789142
0.08499999999999996,-0.3400000000000001,0.52,-0.30872,-0.04027999999999998,-0.6513599999999999,-0.06000000000000005,-0.43999999999999995,0.2450000000000001,0.17396000000000011,-0.6407400000000001,0.5186799999999998,1742238609.9105122
0.135,-0.30000000000000004,0.45500000000000007,-0.18701999999999996,-0.09277999999999997,-0.1886,-0.125,0.05499999999999994,0.565,-0.03370000000000006,-0.2992,0.20897999999999994,1742238610.029254
-0.09499999999999997,-0.37,0.44500000000000006,-0.03625999999999996,-0.13172000000000006,0.984,-0.16000000000000003,0.15500000000000003,0.605,0.1459999999999999,-0.03942000000000001,-0.06128,1742238610.149537
-1.0,-1.0,1.0,-0.054320000000000035,0.14659999999999984,0.6784600000000001,-0.58,-0.59,0.29000000000000004,-0.30224000000000006,1.0,-1.0,1742238610.242989
-0.030000000000000027,-0.010000000000000009,0.32000000000000006,-0.03613999999999995,0.2549999999999999,-0.66906,-0.025000000000000022,-0.39,0.14500000000000002,0.9483600000000001,0.0013400000000001189,0.5848400000000002,1742238610.358881
0.08499999999999996,-0.27,0.395,-0.4288399999999999,-0.01415999999999995,-0.61854,-0.18500000000000005,-0.22499999999999998,0.43500000000000005,-0.17370000000000008,-0.5652999999999999,0.5296599999999998,1742238610.473123
0.06499999999999995,-0.030000000000000027,0.5,-0.1925,-0.08531999999999995,0.010860000000000092,0.07000000000000006,0.040000000000000036,0.48,0.14636000000000005,-0.12902000000000002,0.09729999999999994,1742256363.470695
-0.25,0.15999999999999992,0.56,0.03186,0.14100000000000001,0.57958,-0.255,0.0,0.71,0.10742000000000007,-0.09851999999999994,-0.52404,1742256363.570078
-0.525,0.20999999999999996,0.8199999999999998,0.3785399999999999,0.43848,0.5186799999999998,-0.355,-0.33000000000000007,0.7749999999999999,-0.07434000000000007,0.11021999999999998,-0.43089999999999995,1742256363.68315
0.010000000000000009,0.31499999999999995,0.3500000000000001,-0.09863999999999995,-0.022460000000000035,-0.3869600000000001,0.09499999999999997,-0.32000000000000006,0.31499999999999995,0.09875999999999996,0.026859999999999884,0.31678000000000006,1742256363.79624
0.010000000000000009,0.14000000000000012,0.43999999999999995,-0.3014,-0.19910000000000005,-0.38978,0.020000000000000018,-0.14,0.45500000000000007,0.1504000000000001,-0.09620000000000006,0.39392000000000005,1742256363.910221
0.135,-0.10999999999999999,0.52,-0.30468000000000006,-0.28625999999999996,-0.07323999999999997,-0.015000000000000013,0.1200000000000001,0.5550000000000002,0.28894,-0.30810000000000004,0.29102000000000006,1742256364.052481
-0.30499999999999994,0.3999999999999999,0.575,0.5791,0.33972,1.0,-0.345,-0.43999999999999995,0.6000000000000001,-0.5946,0.46204,-0.9492200000000001,1742256364.139592
-0.21499999999999997,0.5550000000000002,0.30000000000000004,-0.474,0.20154000000000005,-0.20287999999999995,-0.255,-0.51,0.54,0.6185399999999999,0.12916000000000016,0.010499999999999954,1742256364.256744
0.135,0.06000000000000005,0.345,-0.24584000000000006,-0.24572000000000005,-0.55468,0.08000000000000007,-0.12,0.3700000000000001,0.15870000000000006,-0.08641999999999994,0.3709800000000001,1742256364.369122
0.07000000000000006,0.050000000000000044,0.43500000000000005,-0.10327999999999993,-0.12622,-0.19177999999999995,0.03499999999999992,0.0,0.41500000000000004,0.4011199999999999,-0.24402000000000001,0.34729999999999994,1742256364.488252
0.02499999999999991,-0.08999999999999997,0.5150000000000001,-0.26660000000000006,-0.27246000000000004,0.17809999999999993,-0.16500000000000004,-0.10999999999999999,0.605,0.32752000000000003,-0.37476,0.02746000000000004,1742256364.607726
-0.915,0.405,0.95,0.70642,0.56152,0.9536199999999999,-0.28,-0.29000000000000004,0.6400000000000001,-1.0,0.3714600000000001,-0.88464,1742256364.712667
-0.10499999999999998,0.4750000000000001,0.27,-0.3144600000000001,-0.0030599999999999516,-0.42774,0.07499999999999996,-0.43999999999999995,0.25,0.2792999999999999,0.12731999999999988,0.24571999999999994,1742256364.830213
0.040000000000000036,0.040000000000000036,0.3799999999999999,-0.17553999999999992,-0.14258000000000004,-0.4506800000000001,0.1200000000000001,-0.11499999999999999,0.3599999999999999,0.1620999999999999,-0.07299999999999995,0.27966,1742256364.9489338
0.1499999999999999,-0.10499999999999998,0.41999999999999993,-0.22851999999999995,-0.20508000000000004,-0.14061999999999997,0.11499999999999999,0.06000000000000005,0.385,0.5025599999999999,-0.3097000000000001,0.2841800000000001,1742256365.048364
-0.345,0.21500000000000008,0.6499999999999999,0.22448,0.14222,0.6323200000000002,-0.20499999999999996,0.030000000000000027,0.7050000000000001,0.36071999999999993,-0.14561999999999997,-0.2992,1742256365.1620212
-0.4099999999999999,0.4849999999999999,0.6200000000000001,-0.36474000000000006,0.4205399999999999,-0.05712000000000006,-0.555,-0.22999999999999998,1.0,0.26927999999999996,0.29590000000000005,-0.31994,1742256365.275863
0.06000000000000005,0.125,0.375,-0.2572000000000001,-0.11572000000000005,-0.52332,0.07000000000000006,-0.29000000000000004,0.25,0.052119999999999944,0.12841999999999998,0.36352000000000007,1742256365.395593
0.09000000000000008,0.05499999999999994,0.4099999999999999,-0.21398000000000006,-0.11485999999999996,-0.30066000000000004,0.10499999999999998,-0.05500000000000005,0.365,0.21507999999999994,-0.1174400000000001,0.33886000000000016,1742256365.517257
0.11499999999999999,-0.125,0.41999999999999993,-0.2118,-0.26294000000000006,0.10314000000000001,0.004999999999999893,0.0,0.5249999999999999,0.46972000000000014,-0.35412,0.0966800000000001,1742256365.618258
-0.39,0.21999999999999997,0.655,0.5943600000000002,0.14026000000000005,1.0,-0.25,-0.45500000000000007,0.44500000000000006,-1.0,0.5390599999999999,-1.0,1742256365.732002
-0.255,0.56,0.25,-0.44348,0.20496000000000003,-0.38037999999999994,-0.04500000000000004,-0.58,0.29499999999999993,0.4816800000000001,0.3346,0.28370000000000006,1742256365.850788
0.08000000000000007,0.06499999999999995,0.30499999999999994,-0.10108000000000006,-0.12158000000000002,-0.5650599999999999,0.10000000000000009,-0.0050000000000000044,0.355,0.16480000000000006,-0.015139999999999931,0.4133399999999998,1742256365.970368
0.135,-0.08499999999999996,0.45500000000000007,-0.12634,-0.16662,-0.22375999999999996,0.08000000000000007,0.1100000000000001,0.44999999999999996,0.18297999999999992,-0.06481999999999999,0.2198399999999998,1742256366.0901492
0.08000000000000007,-0.22499999999999998,0.5249999999999999,-0.2316800000000001,-0.24914000000000003,0.27783999999999986,0.08499999999999996,0.44999999999999996,0.45999999999999996,0.3588800000000001,-0.14588,-0.07508000000000004,1742256366.1871629
-0.975,0.7149999999999999,0.7549999999999999,0.9507999999999999,0.54956,1.0,-0.92,-0.35,1.0,-1.0,0.2768600000000001,-1.0,1742256366.3009431
-0.21499999999999997,0.4650000000000001,0.32000000000000006,-0.30176000000000003,-0.05274000000000001,-0.47962000000000005,0.010000000000000009,-0.44500000000000006,0.28,0.31188000000000016,-0.14061999999999997,0.35509999999999997,1742256366.416938
0.02499999999999991,-0.09499999999999997,0.41500000000000004,-0.043220000000000036,-0.018799999999999928,-0.40270000000000006,0.03499999999999992,-0.13,0.3599999999999999,0.18042000000000002,-0.054440000000000044,0.45213999999999976,1742256366.537782
0.1499999999999999,-0.09999999999999998,0.3599999999999999,-0.07128000000000001,-0.13915999999999995,-0.11803999999999992,0.05499999999999994,0.06000000000000005,0.45500000000000007,0.20544000000000007,-0.18347999999999998,0.22753999999999985,1742256366.658087
-0.0050000000000000044,-0.31499999999999995,0.5550000000000002,-0.015020000000000033,-0.12060000000000004,0.3712200000000001,-0.10999999999999999,0.20999999999999996,0.69,-0.11560000000000004,0.033320000000000016,-0.573,1742256366.756238
-0.995,0.125,0.9449999999999998,0.19628,0.11146000000000011,0.8322799999999999,-0.73,-0.33000000000000007,1.0,-0.25794000000000006,0.20642000000000005,-0.61512,1742256366.870764
-0.08499999999999996,0.20500000000000007,0.30000000000000004,-0.18676000000000004,0.03283999999999998,-0.53454,0.07000000000000006,-0.33000000000000007,0.2250000000000001,0.12622,0.05603999999999987,0.3668199999999999,1742256366.992005
0.040000000000000036,-0.08499999999999996,0.47,-0.10424,-0.08287999999999995,-0.4243199999999999,0.05499999999999994,-0.07499999999999996,0.385,0.16748000000000007,-0.11131999999999997,0.43920000000000003,1742256367.1124558
0.050000000000000044,-0.16500000000000004,0.4750000000000001,-0.14978000000000002,-0.16552,-0.005979999999999985,0.02499999999999991,0.21999999999999997,0.55,0.2927200000000001,-0.26368,0.21605999999999992,1742256367.2112792
-0.575,0.24,0.7250000000000001,0.3343600000000002,0.06335999999999986,0.7440199999999999,-0.32000000000000006,0.040000000000000036,0.7650000000000001,-0.4679,0.36583999999999994,-0.94152,1742256367.3249438
-0.29499999999999993,0.49,0.4099999999999999,-0.25903999999999994,0.4276199999999999,-0.19152000000000002,-0.06000000000000005,-0.68,0.21999999999999997,0.63392,0.3109200000000001,0.11681999999999992,1742256367.4400508
0.17999999999999994,-0.050000000000000044,0.32499999999999996,-0.2721,-0.16858000000000006,-0.5339400000000001,0.08000000000000007,-0.09999999999999998,0.345,0.2813800000000002,-0.15052,0.5339400000000001,1742256367.560201
0.06499999999999995,-0.135,0.44500000000000006,-0.15379999999999994,-0.22631999999999997,-0.24560000000000004,0.050000000000000044,0.030000000000000027,0.44500000000000006,0.1532,-0.12353999999999998,0.26868000000000003,1742256367.680641
-0.015000000000000013,-0.31499999999999995,0.655,-0.12329999999999997,-0.05958000000000008,0.22692,-0.14,0.3500000000000001,0.69,0.27674,-0.276,-0.18238,1742256367.7802749
-0.915,0.1100000000000001,0.8799999999999999,0.5763,0.1875,1.0,-0.805,-0.5,0.9449999999999998,-0.62512,0.27636000000000016,-0.86254,1742256367.8939562
-0.07499999999999996,0.17999999999999994,0.31000000000000005,-0.10108000000000006,0.03394000000000008,-0.4698399999999999,0.07000000000000006,-0.28,0.26,0.06922000000000006,0.03210000000000002,0.36158,1742256368.015211
-0.020000000000000018,-0.07000000000000006,0.44500000000000006,-0.12708000000000008,-0.10474000000000006,-0.4509200000000001,0.014999999999999902,-0.08999999999999997,0.4099999999999999,0.1302399999999999,-0.11120000000000008,0.4262600000000001,1742256368.133452
-0.020000000000000018,-0.15000000000000002,0.5249999999999999,-0.20263999999999993,-0.23414000000000001,-0.10863999999999996,0.0,0.15500000000000003,0.5249999999999999,0.22302,-0.16870000000000007,0.17077999999999993,1742256368.253473
-0.365,-0.16000000000000003,0.5049999999999999,-0.43835999999999997,0.10289999999999999,0.4959800000000001,-0.37,0.20500000000000007,0.71,0.3038399999999999,0.1358600000000001,-0.5522400000000001,1742256368.353546
-0.5,0.4750000000000001,0.52,-0.36524,0.33177999999999996,0.54162,-0.535,-0.32499999999999996,0.885,0.16955999999999993,-0.009519999999999973,-0.60388,1742256368.481714
-0.04500000000000004,0.125,0.3500000000000001,-0.017820000000000058,-0.04064000000000001,-0.5521199999999999,0.014999999999999902,-0.21499999999999997,0.395,-0.07946000000000009,0.08582000000000001,0.42872,1742256368.5931242
-0.030000000000000027,-0.04500000000000004,0.44500000000000006,-0.011600000000000055,-0.15368000000000004,-0.45862,-0.020000000000000018,-0.10999999999999999,0.385,0.09483999999999981,-0.10486000000000006,0.4690000000000001,1742256368.6941628
0.08000000000000007,-0.16500000000000004,0.47,-0.12915999999999994,-0.19323999999999997,-0.08263999999999994,0.020000000000000018,0.18500000000000005,0.4750000000000001,0.3043199999999999,-0.26660000000000006,0.26463999999999976,1742256368.8137228
-0.31000000000000005,-0.15000000000000002,0.4750000000000001,-0.58484,-0.17810000000000004,0.35827999999999993,-0.41999999999999993,-0.26,0.7349999999999999,-0.08350000000000002,0.27490000000000014,-0.66016,1742256368.9214468
-0.605,0.08000000000000007,0.6299999999999999,0.017340000000000133,0.53454,0.7439,-0.45999999999999996,-0.32499999999999996,0.8900000000000001,0.5224600000000001,0.18444000000000016,-0.25622,1742256369.033877
-0.15000000000000002,0.2450000000000001,0.33000000000000007,0.010380000000000056,-0.011099999999999999,-0.50244,0.06499999999999995,-0.10499999999999998,0.3500000000000001,0.05896000000000012,-0.019039999999999946,0.44628,1742256369.1470542
-0.03500000000000003,0.03499999999999992,0.395,-0.09936,-0.20335999999999999,-0.49060000000000004,0.010000000000000009,-0.07499999999999996,0.43500000000000005,0.10411999999999999,-0.09498000000000006,0.33153999999999995,1742256369.273967
0.14000000000000012,-0.15000000000000002,0.4099999999999999,-0.21289999999999998,-0.2561,-0.11803999999999992,0.020000000000000018,0.10499999999999998,0.45999999999999996,0.2795399999999999,-0.22411999999999999,0.1802999999999999,1742256369.393398
-0.59,0.135,0.7050000000000001,0.1827399999999999,0.21216000000000013,0.76624,-0.41999999999999993,-0.30000000000000004,0.6499999999999999,-0.27198,0.33776000000000006,-0.81702,1742256369.494167
-0.735,0.09499999999999997,0.7949999999999999,-0.33129999999999993,0.23682000000000003,0.2425599999999999,-0.4099999999999999,-0.48,0.71,0.43726,0.06933999999999996,-0.42479999999999996,1742256369.614784
-0.050000000000000044,0.16999999999999993,0.30499999999999994,-0.019039999999999946,0.13159999999999994,-0.4091800000000001,0.004999999999999893,-0.235,0.3799999999999999,-0.0041599999999999415,0.06103999999999998,0.37304000000000004,1742256369.734678
0.10000000000000009,0.010000000000000009,0.32000000000000006,-0.2472000000000001,-0.26281999999999994,-0.49402,0.02499999999999991,-0.125,0.375,0.33642000000000016,-0.15379999999999994,0.49048,1742256369.830101
0.004999999999999893,-0.10999999999999999,0.45999999999999996,-0.3285,-0.3055399999999999,-0.016960000000000086,0.0,0.06000000000000005,0.45500000000000007,0.40662,-0.3426600000000001,0.1998199999999999,1742256369.944203
-0.39,-0.050000000000000044,0.625,0.42077999999999993,0.1997,1.0,-0.355,-0.29000000000000004,0.6099999999999999,-0.5979,0.5953400000000002,-0.83594,1742256370.058093
-0.505,0.25,0.51,-0.38270000000000004,0.23327999999999993,0.17003999999999997,-0.35,-0.45500000000000007,0.6600000000000001,0.3050599999999999,0.23461999999999983,-0.2669600000000001,1742256370.175222
-0.06000000000000005,0.29000000000000004,0.24,-0.03198000000000001,0.18713999999999986,-0.31922000000000006,0.09000000000000008,-0.21499999999999997,0.32000000000000006,0.016720000000000068,0.023440000000000127,0.2832000000000001,1742256370.295544
0.030000000000000027,0.08499999999999996,0.3400000000000001,-0.15308,-0.27136000000000005,-0.5157400000000001,0.030000000000000027,-0.135,0.375,0.21679999999999988,-0.13097999999999999,0.4179600000000001,1742256370.414392
-0.030000000000000027,0.004999999999999893,0.4849999999999999,-0.10694000000000004,-0.27013999999999994,-0.14855999999999991,-0.010000000000000009,-0.04500000000000004,0.44500000000000006,0.3184800000000001,-0.27868000000000004,0.24780000000000002,1742256370.534793
-0.48,0.0,0.79,0.2818600000000002,0.25317999999999996,0.82544,-0.355,-0.0050000000000000044,0.7850000000000001,-0.42125999999999997,0.2809999999999999,-0.8186,1742256370.627772
-0.505,0.375,0.595,-0.19274000000000002,0.2610999999999999,0.0577399999999999,-0.32499999999999996,-0.515,0.595,0.13781999999999983,0.08448000000000011,-0.35363999999999995,1742256370.7408588
-0.06499999999999995,0.09499999999999997,0.3799999999999999,-0.16137999999999997,-0.18579999999999997,-0.5741,0.014999999999999902,-0.20499999999999996,0.30499999999999994,0.11705999999999994,0.0027999999999999137,0.47094000000000014,1742256370.855137
-0.08499999999999996,0.004999999999999893,0.4950000000000001,-0.08141999999999994,-0.15148000000000006,-0.3407,-0.07999999999999996,-0.07000000000000006,0.4849999999999999,0.25292000000000003,-0.2168,0.49072000000000005,1742256370.976021
-0.04500000000000004,-0.15500000000000003,0.595,-0.2519600000000001,-0.24609999999999999,0.010620000000000074,-0.20999999999999996,0.1200000000000001,0.6200000000000001,0.35412,-0.3206800000000001,0.0638399999999999,1742256371.095873
-0.675,0.385,0.43999999999999995,0.24244,0.59948,1.0,-0.56,-0.27,0.48,-0.39686,0.44996000000000014,-1.0,1742256371.2161238
-0.20499999999999996,0.6099999999999999,0.23499999999999988,-0.4607,-0.0046399999999999775,-0.22584000000000004,-0.15000000000000002,-0.45500000000000007,0.355,0.5927799999999999,0.26805999999999996,0.02635999999999994,1742256371.310213
-0.06000000000000005,0.04499999999999993,0.355,-0.11218000000000006,-0.15405999999999997,-0.6294,0.040000000000000036,-0.135,0.355,0.28528,-0.013799999999999923,0.6134000000000002,1742256371.424098
0.004999999999999893,-0.07499999999999996,0.41500000000000004,-0.14415999999999995,-0.29979999999999996,-0.41712000000000005,0.020000000000000018,-0.05500000000000005,0.405,0.36292000000000013,-0.2782,0.4057599999999999,1742256371.5381
-0.18500000000000005,-0.15000000000000002,0.6699999999999999,-0.16700000000000004,-0.25146,0.22998000000000007,-0.19500000000000006,0.040000000000000036,0.6400000000000001,0.04527999999999999,-0.16149999999999998,-0.32153999999999994,1742256371.656878
-0.88,0.29499999999999993,0.685,0.4327399999999999,0.7017800000000001,1.0,-0.58,-0.30000000000000004,0.615,-0.6742,0.2980999999999998,-1.0,1742256371.777094
-0.22999999999999998,0.605,0.28,-0.35620000000000007,-0.02294000000000007,-0.37939999999999996,-0.025000000000000022,-0.61,0.2549999999999999,0.26246000000000014,0.20496000000000003,0.18859999999999988,1742256371.896713
-0.020000000000000018,0.04499999999999993,0.3900000000000001,-0.13781999999999994,-0.16784,-0.63342,0.010000000000000009,-0.20499999999999996,0.365,0.22363999999999984,-0.12670000000000003,0.5402799999999999,1742256371.993081
0.07000000000000006,-0.17500000000000004,0.51,-0.10241999999999996,-0.19726,-0.2581800000000001,-0.03500000000000003,0.05499999999999994,0.51,0.27868000000000004,-0.3507,0.42798,1742256372.110306
-0.11499999999999999,-0.17000000000000004,0.605,-0.10010000000000008,-0.04822000000000004,0.3332599999999999,-0.20999999999999996,0.25,0.6600000000000001,0.29016,-0.16712000000000005,-0.23194000000000004,1742256372.221094
-0.89,0.2450000000000001,0.815,0.5313800000000002,0.5346599999999999,1.0,-0.635,-0.21499999999999997,0.7149999999999999,-0.82116,0.33996000000000004,-1.0,1742256372.3425322
-0.07999999999999996,0.32000000000000006,0.25,-0.35438000000000003,-0.07189999999999996,-0.54908,0.010000000000000009,-0.41999999999999993,0.2450000000000001,0.18384,0.03956000000000004,0.35119999999999996,1742256372.460274
-0.015000000000000013,0.0,0.4849999999999999,-0.20323999999999998,-0.24731999999999998,-0.47583999999999993,-0.0050000000000000044,-0.17000000000000004,0.4099999999999999,0.28698,-0.2377999999999999,0.47912,1742256372.579218
0.11499999999999999,-0.15500000000000003,0.44999999999999996,-0.0625,-0.1174400000000001,-0.10046,-0.010000000000000009,-0.010000000000000009,0.42500000000000004,0.24902000000000002,-0.3197000000000001,0.29956000000000005,1742256372.699075
-0.13,-0.18999999999999995,0.6400000000000001,0.26722,0.24,0.8507,-0.275,-0.0050000000000000044,0.585,-0.40698,0.40344,-0.8498600000000001,1742256372.791641
-0.685,0.08000000000000007,0.8300000000000001,-0.24450000000000005,0.35206000000000004,0.15710000000000002,-0.36,-0.395,0.71,0.5456599999999998,0.23316000000000003,-0.042240000000000055,1742256372.9056268
0.050000000000000044,0.16999999999999993,0.2549999999999999,-0.17271999999999998,-0.05041999999999991,-0.47729999999999995,0.135,-0.16500000000000004,0.2849999999999999,-0.0029199999999999227,0.021120000000000028,0.32299999999999995,1742256373.02175
-0.08499999999999996,0.040000000000000036,0.44999999999999996,0.014399999999999968,-0.22253999999999996,-0.3630399999999999,0.09000000000000008,-0.025000000000000022,0.42999999999999994,-0.17676000000000003,-0.09411999999999998,0.25634,1742256373.139916
0.04499999999999993,-0.19999999999999996,0.52,-0.15588000000000002,-0.23875999999999997,-0.18200000000000005,0.020000000000000018,0.16500000000000004,0.4750000000000001,0.27513999999999994,-0.1864,0.31579999999999986,1742256373.260063
-0.17000000000000004,-0.32499999999999996,0.635,-0.05176000000000003,0.12292000000000014,0.61402,-0.10499999999999998,0.385,0.6800000000000002,-0.14891999999999994,0.2145999999999999,-0.6303799999999999,1742256373.3795662
-0.91,0.125,0.905,0.06678000000000006,0.31152,0.38671999999999995,-0.54,-0.36,0.97,0.2070399999999999,0.08898000000000006,-0.23718000000000006,1742256373.500304
0.03499999999999992,0.05499999999999994,0.23499999999999988,-0.1775,0.0578599999999998,-0.5951,0.135,-0.16500000000000004,0.21500000000000008,0.17357999999999985,-0.055299999999999905,0.43103999999999987,1742256373.588512
0.040000000000000036,-0.08999999999999997,0.4650000000000001,-0.09350000000000003,-0.25476,-0.31689999999999996,0.0,-0.125,0.45999999999999996,0.2472000000000001,-0.2208199999999999,0.42223999999999995,1742256373.70264
-0.030000000000000027,-0.11499999999999999,0.5550000000000002,-0.07972000000000001,-0.14576,0.007200000000000095,0.014999999999999902,0.040000000000000036,0.4650000000000001,0.29542,-0.22924,0.2513399999999999,1742256373.821524
-0.275,-0.18500000000000005,0.585,-0.12378,0.11853999999999987,0.5774000000000001,-0.33499999999999996,0.15999999999999992,0.825,-0.06164000000000003,0.1251199999999999,-0.5081800000000001,1742256373.942025
-0.69,0.15999999999999992,0.825,0.12047999999999992,0.32226,0.5103800000000001,-0.615,-0.39,0.8199999999999998,-0.6082799999999999,0.14403999999999995,-0.771,1742256374.062374
-0.09499999999999997,0.32000000000000006,0.30499999999999994,-0.12658000000000003,-0.05053999999999992,-0.38354,0.050000000000000044,-0.4650000000000001,0.18500000000000005,0.05066000000000015,0.04468000000000005,0.3469200000000001,1742256374.180811
0.014999999999999902,0.004999999999999893,0.45500000000000007,-0.09826000000000001,-0.27783999999999986,-0.43298000000000003,-0.015000000000000013,0.010000000000000009,0.43999999999999995,0.3208,-0.29162,0.50196,1742256374.271517
0.0,-0.12,0.49,-0.26427999999999996,-0.3993,-0.21972000000000003,-0.10499999999999998,0.1100000000000001,0.595,0.6163400000000001,-0.2575599999999999,0.25903999999999994,1742256374.385516
-0.45500000000000007,-0.010000000000000009,0.6299999999999999,-0.07335999999999998,0.21960000000000002,0.57776,-0.2849999999999999,-0.82,0.30000000000000004,-1.0,0.7817400000000001,-1.0,1742256374.501395
-0.69,0.05499999999999994,0.7749999999999999,0.07850000000000001,0.3739000000000001,0.4375,-0.07999999999999996,-0.57,0.30000000000000004,0.8109200000000001,0.23840000000000017,0.05054000000000003,1742256374.6219652
-0.16000000000000003,0.28,0.2749999999999999,-0.17028,-0.04077999999999993,-0.4746,0.10499999999999998,-0.17500000000000004,0.31000000000000005,0.06407999999999991,-0.03308,0.30688000000000004,1742256374.7424252
0.03499999999999992,-0.07000000000000006,0.43500000000000005,-0.17479999999999996,-0.1986,-0.4126000000000001,0.08000000000000007,-0.06000000000000005,0.395,0.39159999999999995,-0.23962000000000006,0.3531399999999998,1742256374.8617222
0.050000000000000044,-0.08999999999999997,0.5800000000000001,-0.13270000000000004,-0.11146,0.07409999999999983,0.0,0.02499999999999991,0.55,0.40466,-0.19189999999999996,0.07874000000000003,1742256374.9819
-0.645,0.44999999999999996,0.5049999999999999,0.2338800000000001,0.2805199999999999,0.7663600000000002,-0.24,-0.535,0.44500000000000006,-1.0,0.67554,-1.0,1742256375.068756
-0.15000000000000002,0.29000000000000004,0.2549999999999999,-0.53564,0.18907999999999991,-0.25892000000000004,0.14000000000000012,-0.44500000000000006,0.04499999999999993,0.7930999999999999,-0.03076000000000001,0.33020000000000005,1742256375.182524
0.0,0.14500000000000002,0.30499999999999994,-0.021720000000000073,-0.04515999999999998,-0.37170000000000003,0.10499999999999998,-0.21999999999999997,0.29499999999999993,-0.0014600000000000168,-0.19764000000000004,0.2819800000000001,1742256375.302347
0.06499999999999995,0.010000000000000009,0.45500000000000007,-0.24060000000000004,-0.27198,-0.3665799999999999,0.1299999999999999,-0.10499999999999998,0.3799999999999999,0.3907400000000001,-0.27076,0.20873999999999993,1742256375.421685
0.0,-0.07000000000000006,0.54,-0.3398399999999999,-0.34007999999999994,0.06006,-0.07499999999999996,-0.18500000000000005,0.5800000000000001,0.19642000000000004,-0.13160000000000005,-0.23084000000000005,1742256375.541405
-0.6,0.33499999999999996,0.645,0.9511799999999999,0.69214,1.0,-0.44500000000000006,0.1100000000000001,1.0,-1.0,0.5672600000000001,-0.6407400000000001,1742256375.662407
-0.17500000000000004,0.47,0.20999999999999996,-0.5135399999999999,-0.04637999999999998,-0.43652,0.09000000000000008,-0.365,0.2650000000000001,0.17955999999999994,-0.10021999999999998,0.4165000000000001,1742256375.752533
0.09499999999999997,-0.020000000000000018,0.395,-0.07531999999999994,-0.09374000000000005,-0.4132,0.16500000000000004,-0.04500000000000004,0.395,0.17259999999999986,-0.14085999999999999,0.2701399999999998,1742256375.866571
0.15999999999999992,-0.050000000000000044,0.48,-0.15942,-0.19738,-0.17370000000000008,0.1499999999999999,-0.015000000000000013,0.365,0.3452200000000001,-0.3822000000000001,0.027959999999999985,1742256375.984187
0.14000000000000012,-0.13,0.4650000000000001,-0.27281999999999995,-0.11987999999999999,0.21398000000000006,-0.14500000000000002,-0.13,0.605,0.0578599999999998,-0.005739999999999967,-0.44494,1742256376.1026728
-0.78,0.365,0.655,1.0,0.31348,1.0,-0.42500000000000004,-0.19999999999999996,0.7949999999999999,-1.0,0.2927200000000001,-0.9401799999999999,1742256376.222281
-0.245,0.42999999999999994,0.33000000000000007,-0.3138399999999999,0.1251199999999999,-0.44726,-0.015000000000000013,-0.38,0.3599999999999999,0.45838,-0.09558,0.4876800000000001,1742256376.3417878
0.050000000000000044,0.07499999999999996,0.4099999999999999,-0.07811999999999997,-0.07531999999999994,-0.3435,0.05499999999999994,-0.025000000000000022,0.45999999999999996,0.12817999999999996,0.0021999999999999797,0.30333999999999994,1742256376.462341
0.1499999999999999,-0.0050000000000000044,0.3900000000000001,-0.027100000000000013,-0.08460000000000001,-0.17224000000000006,0.14500000000000002,-0.020000000000000018,0.33000000000000007,0.26098,-0.21141999999999994,0.18384,1742256376.550581
0.09000000000000008,-0.07000000000000006,0.3999999999999999,-0.35120000000000007,-0.39148000000000005,0.037599999999999856,-0.125,-0.09499999999999997,0.45999999999999996,0.3114000000000001,-0.33838,-0.20299999999999996,1742256376.664719
-0.815,0.605,0.615,0.66906,0.57654,1.0,-0.4099999999999999,-0.635,0.44999999999999996,-1.0,0.57544,-1.0,1742256376.783809
-0.18500000000000005,0.42999999999999994,0.30000000000000004,-0.5861799999999999,0.11461999999999994,-0.2673399999999999,0.030000000000000027,-0.57,0.19999999999999996,0.6830999999999998,-0.0046399999999999775,0.37561999999999984,1742256376.902208
-0.040000000000000036,0.1100000000000001,0.4099999999999999,-0.01966000000000001,0.002080000000000082,-0.42247999999999997,0.0,-0.10999999999999999,0.5,0.16296,-0.17625999999999997,0.3700000000000001,1742256377.024427
0.040000000000000036,0.04499999999999993,0.41500000000000004,-0.12854,-0.10521999999999998,-0.2992,0.08000000000000007,-0.10499999999999998,0.385,0.2472000000000001,-0.01660000000000006,0.25561999999999996,1742256377.143181
0.10000000000000009,-0.07499999999999996,0.41500000000000004,-0.16503999999999996,-0.18298000000000003,0.03723999999999994,0.08499999999999996,-0.07999999999999996,0.355,0.3346,-0.17089999999999994,-0.00012000000000000899,1742256377.234678
-0.61,0.3400000000000001,0.5800000000000001,0.5186799999999998,0.3150599999999999,1.0,-0.24,-0.77,0.31000000000000005,-1.0,0.6665000000000001,-1.0,1742256377.349045
-0.17999999999999994,0.3700000000000001,0.32499999999999996,-0.58996,0.19103999999999988,-0.34948,0.03499999999999992,-0.62,0.25,0.484,0.1922600000000001,0.30224000000000006,1742256377.4842172
0.10000000000000009,0.004999999999999893,0.3700000000000001,-0.05688000000000004,0.04051999999999989,-0.37464,0.1100000000000001,-0.135,0.3700000000000001,0.25048000000000004,-0.09020000000000006,0.29736000000000007,1742256377.60429
0.06000000000000005,0.02499999999999991,0.43500000000000005,-0.0968,-0.12268000000000001,-0.2583,0.09000000000000008,-0.10999999999999999,0.42999999999999994,0.2447600000000001,-0.14891999999999994,0.28552,1742256377.689832
0.09499999999999997,0.030000000000000027,0.4099999999999999,-0.2990799999999999,-0.28174,-0.09498000000000006,0.06000000000000005,0.020000000000000018,0.44500000000000006,0.44384,-0.31910000000000005,0.15844000000000014,1742256377.804488
-0.15000000000000002,0.0,0.575,0.05577999999999994,0.28552,0.59948,-0.29499999999999993,-0.615,0.375,-0.85412,0.8429,-1.0,1742256377.924331
-1.0,-0.030000000000000027,1.0,-0.08240000000000003,0.18859999999999988,0.15501999999999994,-0.21999999999999997,-0.3400000000000001,0.6000000000000001,0.9541,0.25708,0.4594800000000001,1742256378.0449972
0.030000000000000027,0.10000000000000009,0.31499999999999995,-0.04637999999999998,0.12304000000000004,-0.40344,0.08000000000000007,-0.12,0.345,0.13476,-0.09936,0.4149200000000002,1742256378.163452
0.1100000000000001,0.03499999999999992,0.365,-0.18958000000000008,-0.11729999999999996,-0.3405799999999999,0.14000000000000012,-0.04500000000000004,0.33499999999999996,0.32972,-0.13378,0.27281999999999984,1742256378.2844028
0.17999999999999994,0.020000000000000018,0.3700000000000001,-0.39074,-0.2965,-0.19018000000000002,0.07000000000000006,-0.10999999999999999,0.385,0.3763399999999999,-0.08972000000000002,0.025020000000000042,1742256378.373573
-0.29000000000000004,0.014999999999999902,0.675,-0.1897000000000001,0.1251199999999999,0.59778,-0.22999999999999998,-0.5,0.41500000000000004,-0.69262,1.0,-0.9347000000000001,1742256378.487707
-1.0,-0.29000000000000004,1.0,0.4275,0.37768,0.6747999999999998,-0.3400000000000001,-0.20499999999999996,0.9849999999999999,1.0,0.22229999999999994,0.20178000000000007,1742256378.603122
-0.010000000000000009,0.25,0.30000000000000004,0.10131999999999985,0.15257999999999994,-0.31262,0.11499999999999999,-0.16500000000000004,0.29499999999999993,-0.13012,-0.06372,0.3440000000000001,1742256378.724268
0.040000000000000036,0.03499999999999992,0.3700000000000001,-0.2474400000000001,-0.11048000000000002,-0.4826600000000001,0.11499999999999999,-0.03500000000000003,0.32499999999999996,0.35851999999999995,-0.22718000000000005,0.4434800000000001,1742256378.843932
0.18999999999999995,-0.06000000000000005,0.385,-0.2633,-0.3040799999999999,-0.29333999999999993,0.11499999999999999,-0.030000000000000027,0.3799999999999999,0.45178000000000007,-0.30652,0.18688000000000016,1742256378.962237
0.040000000000000036,-0.16500000000000004,0.575,0.0009799999999999809,-0.09484000000000004,0.3714600000000001,-0.14500000000000002,-0.51,0.5049999999999999,-0.43286,0.6163400000000001,-0.83912,1742256379.0827022
-0.975,-0.025000000000000022,1.0,0.5819000000000001,0.33020000000000005,0.9898600000000002,-0.4650000000000001,0.1499999999999999,1.0,0.19079999999999986,0.28123999999999993,-0.00988,1742256379.171741
0.02499999999999991,0.21999999999999997,0.2250000000000001,-0.3274,0.1263399999999999,-0.47363999999999995,0.06499999999999995,-0.18999999999999995,0.33499999999999996,-0.012460000000000027,-0.08350000000000002,0.36194000000000015,1742256379.2854478
0.09000000000000008,-0.010000000000000009,0.33499999999999996,-0.12878,-0.07481999999999989,-0.43823999999999996,0.1299999999999999,-0.040000000000000036,0.31000000000000005,0.4842599999999999,-0.07055999999999996,0.45799999999999996,1742256379.401713
0.06499999999999995,-0.18999999999999995,0.45999999999999996,0.01758000000000015,-0.28001999999999994,0.054200000000000026,0.09499999999999997,-0.06000000000000005,0.41500000000000004,0.48438000000000003,-0.26903999999999995,0.12390000000000012,1742256379.521652
-0.20999999999999996,-0.28,0.665,-0.08240000000000003,-0.008419999999999983,0.47828000000000004,-0.20499999999999996,-0.385,0.52,-0.32666000000000006,0.4917,-0.72156,1742256379.642206
-1.0,-0.15500000000000003,0.9449999999999998,0.1189,0.04161999999999999,0.6374600000000001,-0.525,0.2749999999999999,1.0,0.11670000000000003,0.1912799999999999,-0.11048000000000002,1742256379.7621078
-0.07000000000000006,0.135,0.30000000000000004,-0.18701999999999996,0.13573999999999997,-0.5194,0.10000000000000009,-0.22499999999999998,0.24,-0.04920000000000002,-0.16527999999999998,0.44544000000000006,1742256379.8823118
0.03499999999999992,-0.05500000000000005,0.41999999999999993,-0.12963999999999998,-0.09484000000000004,-0.39025999999999994,0.040000000000000036,-0.07000000000000006,0.4099999999999999,0.2288800000000002,-0.15466000000000002,0.36402,1742256379.969377
0.1100000000000001,-0.21499999999999997,0.42999999999999994,-0.10486000000000006,-0.25305999999999995,-0.12208000000000008,-0.010000000000000009,-0.015000000000000013,0.47,0.35363999999999995,-0.30212000000000006,0.20386000000000015,1742256380.08358
-0.475,-0.09999999999999998,0.6499999999999999,0.13463999999999987,0.11071999999999993,0.7360799999999998,-0.30000000000000004,-0.44500000000000006,0.6949999999999998,-0.7444999999999999,0.59924,-0.90246,1742256380.201756
-0.42999999999999994,0.2549999999999999,0.615,-0.37964,0.35827999999999993,-0.0968,-0.025000000000000022,-0.44999999999999996,0.27,0.8588800000000001,0.35046,0.11961999999999984,1742256380.322211
-0.010000000000000009,0.040000000000000036,0.3500000000000001,-0.05479999999999996,0.013419999999999987,-0.4093,0.16999999999999993,-0.10999999999999999,0.2849999999999999,0.017079999999999984,-0.057620000000000005,0.31958,1742256380.442719
-0.015000000000000013,-0.06499999999999995,0.45500000000000007,-0.09484000000000004,-0.09631999999999996,-0.30944000000000005,0.14500000000000002,-0.07999999999999996,0.3700000000000001,0.2229000000000001,-0.15881999999999996,0.22242000000000006,1742256380.562639
0.125,-0.275,0.43999999999999995,-0.23399999999999999,-0.2794200000000001,-0.0700599999999999,-0.03500000000000003,0.08000000000000007,0.5699999999999998,0.27844,-0.2622000000000001,-0.09008000000000005,1742256380.68194
-0.62,0.29499999999999993,0.6499999999999999,0.4056399999999998,0.21716000000000002,0.96302,-0.485,-0.45999999999999996,0.6200000000000001,-1.0,0.385,-1.0,1742256380.767667
-0.20999999999999996,0.29000000000000004,0.3599999999999999,-0.52478,0.14781999999999984,-0.32933999999999997,0.03499999999999992,-0.515,0.135,0.5136799999999999,0.20020000000000016,0.38061999999999996,1742256380.883092
0.010000000000000009,-0.040000000000000036,0.355,0.02635999999999994,0.08861999999999992,-0.35363999999999995,0.08499999999999996,-0.03500000000000003,0.365,0.10949999999999993,-0.08996000000000004,0.34338,1742256381.003465
0.09499999999999997,-0.12,0.3599999999999999,-0.07044000000000006,-0.11194000000000004,-0.28283999999999987,0.08000000000000007,0.010000000000000009,0.45500000000000007,0.06420000000000003,-0.13672000000000006,0.22497999999999996,1742256381.123402
0.014999999999999902,-0.41500000000000004,0.585,-0.14246000000000003,-0.26392000000000004,0.13294000000000006,0.004999999999999893,0.3900000000000001,0.5350000000000001,0.04699999999999993,-0.20092,-0.11803999999999992,1742256381.243005
-1.0,0.345,0.79,0.51478,0.11376000000000008,1.0,-0.64,-0.17000000000000004,1.0,-0.9292,-0.03417999999999999,-0.79688,1742256381.362495
-0.20499999999999996,0.345,0.23499999999999988,-0.50524,0.12768000000000002,-0.5030600000000001,0.1200000000000001,-0.17999999999999994,0.21500000000000008,0.1790799999999999,0.1998199999999999,0.29027999999999987,1742256381.451357
0.010000000000000009,-0.09499999999999997,0.43999999999999995,-0.037959999999999994,-0.06053999999999993,-0.49402,0.050000000000000044,0.06499999999999995,0.48,0.19396000000000013,-0.059700000000000086,0.33472000000000013,1742256381.565183
0.11499999999999999,-0.15000000000000002,0.405,-0.07740000000000002,-0.14525999999999994,-0.19874000000000003,0.09000000000000008,0.16999999999999993,0.42500000000000004,0.20092,-0.07641999999999993,0.18530000000000002,1742256381.682697
0.10000000000000009,-0.42500000000000004,0.5249999999999999,-0.18334000000000006,-0.18384,0.1573399999999998,-0.04500000000000004,0.42999999999999994,0.52,0.44520000000000004,-0.08520000000000005,-0.25184000000000006,1742256381.8035069
-1.0,0.55,0.845,0.75854,0.24646000000000012,0.9872999999999998,-1.0,0.03499999999999992,1.0,-0.16712000000000005,0.06933999999999996,-0.39392000000000005,1742256381.922362
-0.17000000000000004,0.355,0.29499999999999993,-0.10265999999999997,0.2280199999999999,-0.32933999999999997,0.07499999999999996,-0.17000000000000004,0.29000000000000004,0.12768000000000002,-0.1016800000000001,0.30688000000000004,1742256382.044128
0.135,-0.12,0.33499999999999996,-0.15064,-0.012940000000000063,-0.39061999999999997,0.05499999999999994,-0.03500000000000003,0.3999999999999999,0.21813999999999978,-0.0697000000000001,0.3698800000000002,1742256382.1633332
0.1499999999999999,-0.17500000000000004,0.3999999999999999,-0.12818000000000007,-0.29625999999999997,-0.10351999999999995,0.04499999999999993,0.10499999999999998,0.43999999999999995,0.28492000000000006,-0.22938000000000003,0.16357999999999984,1742256382.248307
-0.10999999999999999,-0.31000000000000005,0.56,-0.15576,-0.19898000000000005,0.33020000000000005,-0.235,0.07499999999999996,0.6600000000000001,0.06494,0.17456000000000005,-0.43310000000000004,1742256382.363252
-0.96,-0.07499999999999996,0.835,0.7578200000000002,0.2669600000000001,1.0,-0.97,0.24,1.0,-1.0,-0.22460000000000002,-0.6445399999999999,1742256382.483266
-0.26,0.31000000000000005,0.31000000000000005,-0.15710000000000002,0.08435999999999999,-0.41700000000000004,0.06000000000000005,-0.18999999999999995,0.20999999999999996,-0.011840000000000073,0.06982,0.4023399999999999,1742256382.602808
0.02499999999999991,-0.09499999999999997,0.3999999999999999,-0.0747000000000001,0.046640000000000015,-0.3734200000000001,0.030000000000000027,-0.015000000000000013,0.3999999999999999,0.2743,-0.1370800000000001,0.4594800000000001,1742256382.72357
0.125,-0.19999999999999996,0.405,-0.11096000000000006,-0.21374000000000004,-0.16674,-0.06499999999999995,0.1100000000000001,0.5049999999999999,0.3775599999999999,-0.3244600000000001,0.19422000000000006,1742256382.842862
-0.015000000000000013,-0.41500000000000004,0.6099999999999999,-0.19713999999999998,-0.08716000000000002,0.34277999999999986,-0.31000000000000005,-0.10999999999999999,0.6400000000000001,-0.14184000000000008,0.3123800000000001,-0.68554,1742256382.9324942
-0.925,-0.04500000000000004,0.915,0.25683999999999996,0.1551600000000002,0.6981199999999999,-0.495,-0.265,0.905,0.34704,0.12707999999999986,-0.015619999999999967,1742256383.046526
-0.15500000000000003,0.32499999999999996,0.31000000000000005,-0.17015999999999998,-0.013679999999999914,-0.45228,0.004999999999999893,-0.17000000000000004,0.3500000000000001,0.09959999999999991,-0.10584000000000005,0.42090000000000005,1742256383.163046
0.010000000000000009,-0.08999999999999997,0.43500000000000005,-0.1433199999999999,-0.08728000000000002,-0.45177999999999996,0.02499999999999991,-0.04500000000000004,0.405,0.31152,-0.16649999999999998,0.3991600000000002,1742256383.282655
0.08000000000000007,-0.18500000000000005,0.44999999999999996,-0.18310000000000004,-0.29212000000000005,-0.1174400000000001,-0.08999999999999997,-0.050000000000000044,0.45500000000000007,0.2462200000000001,-0.21105999999999991,-0.06384000000000001,1742256383.403317
-0.28,-0.135,0.645,-0.10192000000000001,0.13196000000000008,0.5437000000000001,-0.395,-0.41999999999999993,0.5049999999999999,-0.51708,0.8034600000000001,-0.96192,1742256383.52263
-0.985,-0.29499999999999993,0.96,0.2020200000000001,0.09033999999999986,0.6892,-0.13,-0.395,0.47,0.8685399999999999,0.25073999999999996,0.23399999999999999,1742256383.64305
-0.08499999999999996,0.1100000000000001,0.29499999999999993,-0.11803999999999992,0.13354,-0.56238,-0.010000000000000009,-0.09499999999999997,0.41999999999999993,0.05003999999999986,-0.11962000000000006,0.46154000000000006,1742256383.730423
-0.0050000000000000044,-0.050000000000000044,0.44500000000000006,-0.19874000000000003,-0.18152000000000001,-0.45666000000000007,0.07499999999999996,-0.025000000000000022,0.3999999999999999,0.30066000000000015,-0.12939999999999996,0.38561999999999985,1742256383.844335
0.06000000000000005,-0.025000000000000022,0.44500000000000006,-0.09826000000000001,-0.09948000000000001,-0.0747000000000001,0.020000000000000018,-0.050000000000000044,0.45500000000000007,0.2498800000000001,-0.12170000000000003,0.030019999999999936,1742256383.96577
0.17500000000000004,-0.36,0.4849999999999999,-0.08679999999999999,-0.07398000000000005,0.37083999999999984,-0.18999999999999995,-0.18999999999999995,0.4950000000000001,-0.26025999999999994,0.6151199999999999,-0.6815199999999999,1742256384.082304
-0.98,-0.07000000000000006,1.0,0.8517999999999999,0.20909999999999984,1.0,-0.56,0.03499999999999992,1.0,0.34498000000000006,-0.21141999999999994,-0.07984000000000002,1742256384.202294
-0.17000000000000004,0.345,0.2650000000000001,-0.23974000000000006,0.04638000000000009,-0.53686,-0.025000000000000022,-0.265,0.41999999999999993,0.13074000000000008,-0.032340000000000035,0.44042000000000003,1742256384.3230798
0.03499999999999992,-0.0050000000000000044,0.41999999999999993,-0.12524000000000002,-0.06725999999999999,-0.40186,0.11499999999999999,-0.10499999999999998,0.29000000000000004,0.17613999999999996,0.023800000000000043,0.3873199999999999,1742256384.4323268
0.11499999999999999,-0.020000000000000018,0.4099999999999999,-0.13305999999999996,-0.13160000000000005,-0.13146000000000002,0.1100000000000001,-0.040000000000000036,0.345,0.32996000000000003,-0.25122,0.2427999999999999,1742256384.527424
-0.05500000000000005,-0.27,0.69,-0.23926000000000003,-0.08311999999999997,0.29920000000000013,-0.21499999999999997,0.1100000000000001,0.885,0.06152000000000002,0.022340000000000027,-0.4506800000000001,1742256384.643115
