L-AccX,L-AccY,L-AccZ,L-GyrX,L-GyrY,L-GyrZ,R-AccX,R-AccY,R-AccZ,R-GyrX,R-GyrY,R-GyrZ,timestamp,user
0.015,-0.01125,0.1175,0.00302,0.00737,-0.0015875,-0.03,-0.06125,-0.12,0.0060125,-0.0419475,0.0325175,1742110771.9057531,user_1
0.025,-0.01,0.11,0.0028225,0.0076149995,-0.0024100002,0.0425,0.00375,0.06,0.0111075,0.007995,-0.025024999,1742110772.023142,user_1
0.015,-0.02,0.1425,0.00293,0.0024100002,0.000275,-0.17875,-0.16375,-0.4125,0.0030675002,0.015702501,0.010452501,1742110772.1413388,user_1
0.01875,-0.0125,0.11875,0.000625,0.0081475,-0.004395,0.01875,-0.0225,0.02875,-0.01355,-0.0261525,0.024765,1742110772.246762,user_1
-0.035,-0.01,0.20125,-0.0222025,0.0013125,0.00035,-0.02375,-0.04625,-0.01125,0.000245,0.0600575,-0.03708,1742110772.360833,user_1
0.0125,-0.0075,0.12125,0.004135,0.005585,0.000365,-0.0625,-0.1225,-0.1425,-0.0031125,-0.048722498,0.0187825,1742110772.479784,user_1
0.01875,-0.01375,0.125,0.00055,0.0069575,-0.0033275,0.0525,-0.005,0.06,0.002045,0.002595,0.0029749998,1742110772.587766,user_1
0.01625,-0.02625,0.145,0.007355,0.0018925001,0.0003825,-0.2125,-0.2175,-0.42625,0.0098125,0.01509,-0.0059975,1742110772.70162,user_1
0.02,-0.015,0.1175,-7.75e-05,0.0047150003,-0.003815,0.00375,-0.05125,0.025,-0.0196375,-0.03,0.03769,1742110772.8193548,user_1
-0.02375,-0.0425,0.135,-0.0099949995,-0.0375825,0.005905,0.00875,-0.0,0.025,0.00769,0.047485,-0.0373375,1742110772.9299588,user_1
0.015,0.0025,0.11875,0.0015575,0.0066525,0.0024249998,-0.05,-0.1125,-0.2,-0.0131075,-0.0396575,0.014007499,1742110773.043724,user_1
0.0175,-0.015,0.12875,0.0010075001,0.007125,-0.0051574996,0.0575,-0.00625,0.05125,0.00267,-0.0077199996,0.0169825,1742110773.159314,user_1
0.03125,-0.02,0.14125,0.0060125,-0.0024100002,-0.0004425,-0.17875,-0.20875,-0.34625,0.0136575,0.0387875,-0.0308675,1742110773.279565,user_1
0.02,-0.00625,0.1125,0.000275,0.00679,-0.00351,-0.02625,-0.0975,-0.01125,0.0001525,-0.0425575,0.0246725,1742110773.3857658,user_1
0.00375,-0.0325,0.12875,-0.0019225,-0.032470003,0.0040275003,0.00125,-0.01875,0.02625,0.0046225,0.0481425,-0.0352025,1742110773.5009658,user_1
0.0175,-0.00625,0.11375,0.004685,0.0054925,0.0013125,-0.04875,-0.11625,-0.2075,-0.019592501,-0.037765,0.0149225,1742110773.619817,user_1
0.01875,-0.01375,0.1275,0.0002125,0.004945,-0.0027474998,0.035,-0.03,0.06375,0.005065,-0.006225,0.01236,1742110773.727802,user_1
0.0275,-0.02125,0.14875,0.0064075,0.0021825,-0.00174,-0.16125,-0.175,-0.3725,0.0104225,0.03061,-0.0163425,1742110773.841811,user_1
0.0225,-0.00625,0.11,0.0003825,0.0087425,-0.003875,-0.02875,-0.10125,-0.025,0.0049125,-0.0402525,0.0237575,1742110773.959337,user_1
-0.02625,-0.03625,0.17,0.0048375,-0.038575,0.0013425,0.015,-0.03125,0.03625,0.00154,0.0349425,-0.0175625,1742110774.069804,user_1
0.0175,-0.0,0.1175,0.0042875,0.0050975,0.0025625,-0.05,-0.10625,-0.19125,-0.0292675,-0.04367,0.01439,1742110774.183648,user_1
0.02,-0.015,0.12625,-0.000275,0.002365,-0.00264,0.02625,-0.04375,0.04875,-0.00496,-0.0130625,0.01332,1742110774.29953,user_1
0.03,-0.005,0.14375,0.000365,0.00059500005,-0.00087,-0.1075,-0.0875,-0.15,0.01181,0.06256,-0.0420825,1742110774.419583,user_1
0.02125,-0.00625,0.1125,0.0001225,0.0077825,-0.0016775,-0.04625,-0.11875,-0.05375,0.009185,-0.064574994,0.0178825,1742110774.525751,user_1
0.0625,-0.00625,0.00125,0.0036475,-0.0057075,0.000245,0.02125,-0.03125,0.06125,0.0118725,0.02922,-0.0018300001,1742110774.640446,user_1
0.0175,-0.01875,0.12875,-0.0026099999,0.009415,0.003205,-0.12,-0.20375,-0.3275,-0.010284999,-0.0087425,0.00348,1742110774.7599628,user_1
0.0225,-0.01375,0.11875,-0.00035,0.0012050001,-0.0024575,-0.0025,-0.06375,0.02,-0.01065,-0.030625,0.01651,1742110774.8678222,user_1
-0.0225,-0.01,0.195,-0.0210725,0.0029449998,0.00052,-0.03,-0.04625,-0.01,0.00061,0.059235,-0.0270075,1742110774.981816,user_1
0.01875,-0.0075,0.11125,0.004165,0.0066075,0.0007625,-0.05,-0.0875,-0.14125,-0.0083475,-0.0511775,0.02069,1742110775.099724,user_1
0.01625,-0.02125,0.12625,0.000885,0.00293,-0.0018925001,0.0425,-0.0325,0.0575,-0.00174,0.00351,0.008195,1742110775.209843,user_1
0.03125,-0.02625,0.13375,0.0113075,-0.00016750001,0.0023800002,-0.1175,-0.14125,-0.34375,0.0139325,0.020202499,-0.01477,1742110775.323738,user_1
0.0225,-0.015,0.115,-0.00033500002,0.0039224997,-0.0028675,-0.025,-0.07375,-0.05375,-0.0057075,-0.043732498,0.0176075,1742110775.439576,user_1
0.0375,-0.02375,0.05625,0.0090625,-0.031785,0.00525,0.01375,-0.0575,0.04,-0.004135,0.03914,-0.0169825,1742110775.551809,user_1
0.02,-0.005,0.12,-0.00052,0.0048074997,-0.000565,-0.05,-0.12875,-0.2475,-0.018934999,-0.02681,0.0112,1742110775.665832,user_1
0.01625,-0.02125,0.12375,0.00026,0.0003975,-0.002045,0.0225,-0.05625,0.04125,-0.0039975,-0.0133675,0.00789,1742110775.780492,user_1
0.02125,-0.00125,0.14625,-0.0036775,0.0039825,-0.0007775,-0.08625,-0.04875,-0.12875,0.0116875,0.0600575,-0.03305,1742110775.900084,user_1
0.0175,-0.01125,0.11375,-0.00035,0.0037075,-0.0015725,-0.05,-0.09625,-0.1025,-0.00033500002,-0.0567475,0.012984999,1742110776.007915,user_1
0.02125,-0.0175,0.09625,-0.000107500004,-0.0024100002,-0.0003825,0.025,-0.05375,0.08125,0.001115,0.0275425,-0.0006725,1742110776.12193,user_1
0.0125,-0.01875,0.1325,-0.00029,0.0042725,0.0018,-0.1225,-0.13125,-0.3775,0.011275,-0.0020150002,-0.002395,1742110776.240286,user_1
0.0175,-0.01375,0.1175,-0.0001525,0.0030675002,-0.0036175,0.01375,-0.0725,0.0925,-0.012375,-0.0379025,0.0169525,1742110776.349814,user_1
0.0125,-0.03375,0.13375,-0.0039825,0.0016775,0.001755,-0.045,-0.0375,-0.12375,0.014725001,0.0565025,-0.0332325,1742110776.4637802,user_1
0.015,-0.00875,0.125,0.0004275,0.0024725,-0.000885,-0.07125,-0.12375,-0.11375,-0.01233,-0.052535,0.01677,1742110776.5793998,user_1
0.01875,-0.01625,0.11625,-9.25e-05,0.002885,-0.00016750001,0.0375,-0.02625,0.07125,0.0042275,0.021302499,0.004135,1742110776.700186,user_1
0.01875,-0.02625,0.14,0.00537,0.0010375,0.002365,-0.13875,-0.1775,-0.3425,0.016145,0.0025025,-0.008407501,1742110776.8057249,user_1
0.02125,-0.015,0.115,-0.000305,0.0044699996,-0.0034949998,-0.0125,-0.06375,-0.01875,-0.019592501,-0.039582502,0.023909999,1742110776.920194,user_1
-0.01125,-0.0225,0.14125,-0.0059499997,-0.016755,0.0027325,-0.02125,-0.05125,0.0025,0.0065925,0.05423,-0.02159,1742110777.033963,user_1
0.01375,-0.00625,0.12,0.003815,0.0028074998,0.0001825,-0.04,-0.09125,-0.17875,-0.01674,-0.04425,0.01349,1742110777.147532,user_1
0.0175,-0.0175,0.12625,0.00087,0.0054025003,-0.0012825,0.02625,-0.0325,0.07875,-0.0040275003,-0.0025025,0.00557,1742110777.26073,user_1
0.0275,-0.0275,0.14,0.009185,0.00125,0.00091500004,-0.09375,-0.16,-0.3425,0.0119475005,0.025360001,-0.020737499,1742110777.3804429,user_1
0.02375,-0.01,0.11375,-0.00026,0.006805,-0.00409,-0.02875,-0.08625,-0.04125,-0.02028,-0.0529175,0.02182,1742110777.4867468,user_1
-0.01375,-0.04,0.1125,-0.007035,-0.029602502,0.0075225,-0.0025,-0.05125,0.03875,0.01184,0.0426475,-0.017012501,1742110777.600965,user_1
0.01875,0.00125,0.1125,0.000825,0.0065925,0.0013575,-0.035,-0.125,-0.2,-0.0184175,-0.0334325,0.0148925,1742110777.720616,user_1
0.02125,-0.025,0.1225,0.0,0.0024875,-0.0018475,0.0225,-0.02125,0.035,-0.015305,0.0019375,0.014115,1742110777.827596,user_1
0.03,-0.02625,0.15375,0.0104225,0.004485,0.0019824998,-0.095,-0.19375,-0.3025,0.01509,0.01413,-0.00789,1742110777.9415371,user_1
0.02625,-0.01375,0.11125,-0.00048750002,0.00705,-0.00377,-0.015,-0.1025,-0.05875,0.00673,-0.0348825,0.02069,1742110778.0641868,user_1
0.02875,-0.0375,0.06,0.0086675,-0.0403125,0.0032650002,0.0125,-0.0325,0.04,0.0027325,0.0290675,-0.0150150005,1742110778.16861,user_1
0.02125,-0.0,0.11125,-0.002305,0.007965,0.0034475,-0.04125,-0.15125,-0.21,-0.0183875,-0.021057501,0.0057825,1742110778.2826612,user_1
0.02,-0.01875,0.13,4.5e-05,0.0018925001,-0.002915,0.01,-0.05125,-0.00125,-0.01085,-0.0205225,0.023772499,1742110778.400188,user_1
-0.02625,-0.04125,0.14875,-0.0122675,-0.02327,0.003555,-0.00875,-0.02875,-0.00875,-0.00496,0.051835,-0.0337825,1742110778.511001,user_1
0.02125,-0.0025,0.11125,0.004685,0.0065450002,0.0019375,-0.0375,-0.12375,-0.165,-0.0198375,-0.033555,0.014695,1742110778.6245382,user_1
0.02,-0.01875,0.1325,0.00035,0.0067600003,-0.0041799997,0.03375,-0.02,0.0275,-0.01085,-0.0107875,0.0228425,1742110778.740713,user_1
0.03125,0.0025,0.14625,-0.0154125,0.005295,-9.25e-05,-0.06,-0.09125,-0.155,0.013152501,0.05043,-0.0564575,1742110778.8603892,user_1
0.02625,-0.01125,0.1125,0.00052,0.007675,-0.00229,-0.02875,-0.11,-0.065,0.0025475,-0.0405275,0.031205,1742110778.965627,user_1
0.0275,-0.0175,0.12,0.00023,0.0054025003,-0.0019525,0.04875,-0.0025,0.04625,0.003555,0.013505,-0.009872501,1742110779.0800488,user_1
0.0225,-0.03875,0.13875,0.0029000002,0.0051424997,0.0046375,-0.15,-0.2075,-0.35125,0.02571,0.0046550003,-0.01146,1742110779.200667,user_1
0.02625,-0.01,0.11375,-0.0009625,0.0024725,-0.00354,-0.00125,-0.06875,-0.015,-0.00354,-0.033767503,0.030045,1742110779.307789,user_1
-0.02,-0.03875,0.14125,0.0084675,-0.037795,0.0050975,0.015,-0.04875,0.0475,0.00647,0.043915,-0.038772497,1742110779.421917,user_1
0.02125,0.0025,0.1175,0.00171,0.005645,0.00154,-0.0425,-0.1425,-0.18875,-0.041595,-0.030655,0.0234975,1742110779.543659,user_1
0.02,-0.02125,0.12625,0.00026,0.0025475,-0.0024875,0.0375,-0.01875,0.04,-0.012055,-0.0032650002,0.01564,1742110779.649695,user_1
0.0375,-0.0025,0.14125,0.0056,0.00035,-0.000275,-0.095,-0.16,-0.215,0.012435,0.044372503,-0.0358275,1742110779.763815,user_1
0.025,-0.0125,0.1075,-0.0002125,0.0066225,-0.0030375,-0.01875,-0.10375,-0.035,0.0092,-0.0441125,0.029845,1742110779.880564,user_1
0.04375,-0.02875,0.01,0.01567,-0.039855,-0.002335,0.0375,0.00125,0.0475,0.0045625,0.03267,-0.026092501,1742110779.991676,user_1
0.02375,-0.00875,0.11625,-0.0033425,0.0142675,0.004975,-0.0875,-0.19625,-0.24625,-0.031525,-0.012680001,0.0113225,1742110780.10556,user_1
0.02625,-0.0175,0.12625,-0.0006875,0.0010675,-0.00351,0.02125,-0.0175,0.02375,-0.01561,-0.020065,0.034805,1742110780.221387,user_1
-0.00875,-0.0225,0.1825,-0.027617501,0.0086525,0.0021199998,-0.0475,-0.04,-0.00625,0.0049274997,0.060119998,-0.066315,1742110780.340596,user_1
0.02,-0.0025,0.1175,0.0057525,0.0059499997,0.0013275,-0.04625,-0.11,-0.07875,-0.0106975,-0.0550375,0.0331125,1742110780.447492,user_1
0.0275,-0.02125,0.12375,0.00048750002,0.0040425,-0.002685,0.0675,0.02625,0.065,0.0066525,0.011155,-0.0015725,1742110780.564675,user_1
0.03125,-0.02875,0.1425,0.0134425005,0.0027,0.0020599999,-0.16,-0.23625,-0.4075,0.0375675,0.0322575,-0.0269475,1742110780.681244,user_1
0.03125,-0.0125,0.1125,-0.00059500005,0.0048074997,-0.0018775001,-0.0125,-0.09375,-0.0075,-0.00534,-0.048355,0.033142503,1742110780.7876952,user_1
0.035,-0.03375,0.04,0.01184,-0.05214,-0.0001975,0.015,0.02,0.04375,0.00171,0.04773,-0.025772499,1742110780.901665,user_1
0.02375,-0.0125,0.1225,-0.0048525,0.0134275,0.0032650002,-0.075,-0.20375,-0.2425,-0.041977502,-0.0242,0.017760001,1742110781.023157,user_1
0.0275,-0.0175,0.125,0.00029,0.004745,-0.00389,0.04375,0.02625,0.03,-0.0201425,-0.009765,0.046265,1742110781.1296058,user_1
0.0025,-0.01375,0.195,-0.031692497,0.0058899997,0.0024575,-0.055,-0.03125,-0.0525,0.0176075,0.051575,-0.083435,1742110781.243623,user_1
0.02375,-0.00625,0.11125,0.0060125,0.00586,0.0024425,-0.05125,-0.125,-0.08,-0.011779999,-0.039977502,0.040665,1742110781.361557,user_1
0.025,-0.01875,0.1275,-0.0003825,0.0053875,-0.0028675,0.0675,0.05375,0.03,-0.00035,-0.007065,0.00731,1742110781.470697,user_1
0.03,0.0075,0.15125,-0.0072775004,0.00058,-0.0007325,-0.10875,-0.1675,-0.1325,0.0095975,0.047745,-0.0702675,1742110781.584747,user_1
0.02375,-0.01,0.11375,0.002655,0.0074299998,-0.0018775001,-0.0175,-0.0875,-0.02875,0.0157925,-0.0451825,0.049285,1742110781.701751,user_1
0.05125,-0.005,0.0125,0.0115825,-0.022002501,-0.00229,0.05125,0.02875,0.05625,0.0046225,0.027084999,-0.03032,1742110781.8222249,user_1
0.02,-0.02625,0.13625,0.0024249998,0.0104225,0.003525,-0.1575,-0.2825,-0.2775,0.0039825,0.0020899998,0.0012050001,1742110781.926464,user_1
0.02625,-0.01375,0.115,0.0006875,0.0059975,-0.004395,0.0025,-0.05375,-0.01,-0.0041799997,-0.022444999,0.0419475,1742110782.044706,user_1
-0.0275,-0.0525,0.155,-0.01355,-0.0280925,0.0016925,-0.0075,-0.00625,0.02,-0.00116,0.0428325,-0.0582425,1742110782.16249,user_1
0.0225,-0.00125,0.11125,0.002075,0.0093075,0.0046375,-0.04875,-0.12,-0.12125,-0.02327,-0.03418,0.025162501,1742110782.267512,user_1
0.02625,-0.0175,0.1275,-0.0009,0.0019375,-0.0037850002,0.04375,0.01,0.035,-0.0127725,-0.01152,0.03189,1742110782.3826702,user_1
0.02875,0.0025,0.14375,-0.0193775,0.0128475,9.25e-05,-0.07875,-0.0825,-0.08,0.0075075002,0.0522,-0.07956,1742110782.503256,user_1
0.02375,-0.01125,0.11375,0.0024425,0.005035,-0.00048750002,-0.02375,-0.1125,-0.03625,0.00789,-0.04776,0.049485,1742110782.609625,user_1
0.0275,-0.015,0.1175,0.0023800002,0.0024575,-0.002655,0.065,0.04375,0.05,0.0106975,0.021165,-0.0199275,1742110782.723608,user_1
0.02125,-0.04625,0.13875,0.0020899998,0.01155,0.0060725003,-0.165,-0.31625,-0.355,0.016967501,0.0109875,-0.0094,1742110782.841982,user_1
0.025,-0.0075,0.11125,-0.0013725,0.0057975003,-0.004105,0.005,-0.055,-0.00625,-0.0025025,-0.034424998,0.0411675,1742110782.962123,user_1
0.00875,-0.05625,0.07125,0.020675,-0.0514225,0.0021825,0.02625,-0.0275,0.04375,0.00531,0.0370475,-0.04219,1742110783.066431,user_1
0.02875,-0.00625,0.11375,-0.0063625,0.0137625,0.0018925001,-0.06125,-0.1975,-0.18,-0.024977501,-0.027709998,0.018737499,1742110783.183265,user_1
0.0275,-0.0175,0.12375,-0.0012050001,0.0040599997,-0.004105,0.03625,0.00875,0.03875,-0.0116125,-0.0098275,0.0334325,1742110783.3029492,user_1
0.00875,0.01625,0.1825,-0.0240025,0.0075375,0.00048750002,-0.1,-0.10875,-0.09125,-0.010284999,0.057372503,-0.0745075,1742110783.407536,user_1
0.02625,-0.0075,0.10625,0.006255,0.00705,0.0016625,-0.04,-0.12,-0.0575,0.0031575,-0.040115003,0.051939998,1742110783.524716,user_1
0.02875,-0.02,0.12625,-0.0006875,0.0051424997,-0.0025625,0.0725,0.0725,0.03125,-1.5e-05,0.0074625,0.0013425,1742110783.641984,user_1
0.0275,-0.0325,0.1525,0.0141,0.0005025,0.0036624998,-0.1675,-0.33625,-0.33,0.0423125,0.030015,-0.043365,1742110783.749554,user_1
0.03375,-0.01,0.10375,-3e-05,0.0060875,-0.0013725,-0.00375,-0.06875,-0.025,0.0072775004,-0.0296175,0.0499575,1742110783.8637388,user_1
0.06875,-0.01875,-0.09,0.02147,-0.0780325,0.00055,0.0475,0.05625,0.0275,0.0213925,0.011185001,-0.0504,1742110783.983003,user_1
0.01375,-0.01625,0.14,-0.0068200002,0.019057501,0.0048674997,-0.07,-0.2275,-0.25375,-0.020399999,-0.0054025003,0.013825,1742110784.102605,user_1
0.03375,-0.015,0.11125,-0.0012975,0.0069724997,-0.0057225,0.00625,-0.03375,0.0175,-0.00351,-0.022705,0.0358575,1742110784.20576,user_1
-0.02125,-0.0175,0.20125,-0.027435,-0.0047600004,0.0027325,-0.04125,-0.03125,-0.0225,-0.0136575,0.047775,-0.0659625,1742110784.3236291,user_1
0.0225,-0.005,0.11,0.00508,0.01471,0.00174,-0.045,-0.12875,-0.06,-0.0064850003,-0.0399175,0.040237498,1742110784.442655,user_1
0.02875,-0.02,0.12125,0.0001825,0.002135,-0.0019075,0.0625,0.04,0.03375,0.0071725002,0.00496,0.0186,1742110784.54664,user_1
0.00625,-0.01,0.17875,0.0001525,-0.00148,0.0018,-0.125,-0.29875,-0.28,0.037155,0.0519725,-0.0824725,1742110784.66327,user_1
0.02125,-0.01,0.10375,0.00125,0.011047499,-0.0016625,-0.03375,-0.0875,-0.08625,0.00148,-0.037155,0.0358275,1742110784.783205,user_1
0.04,-0.01625,0.035,0.00917,-0.0154275,-0.0024100002,0.055,0.02625,0.04375,0.0032950002,0.0104075,-0.01384,1742110784.888702,user_1
0.025,-0.02,0.13,0.001405,0.00647,0.0024249998,-0.0975,-0.22375,-0.28875,-0.0006725,0.011565,0.0128175,1742110785.004089,user_1
0.025,-0.01375,0.11625,-0.00174,0.0057525,-0.0051725,0.0075,-0.05,-0.00625,0.00087,-0.028747499,0.026899999,1742110785.123391,user_1
-0.0425,-0.04875,0.1825,-0.01497,-0.0178225,0.007065,0.00375,-0.03,0.04875,0.0024249998,0.051255003,-0.047837503,1742110785.229835,user_1
0.02125,0.00125,0.1175,0.00537,0.0077825,0.0016325001,-0.03125,-0.0925,-0.12,-0.00975,-0.056029998,0.0298925,1742110785.343382,user_1
0.02375,-0.02,0.12125,-0.0001225,0.00267,-0.0038,0.045,-0.01125,0.05375,-0.009262499,0.00048750002,0.0189675,1742110785.462519,user_1
0.02625,-0.00375,0.1625,-0.016692499,0.0075525,-0.002595,-0.12,-0.19875,-0.2625,-0.001725,0.072372496,-0.075135,1742110785.5821,user_1
0.02375,-0.00875,0.10375,0.004135,0.0111225005,-0.0010525,-0.02875,-0.1175,-0.04625,0.01468,-0.04631,0.037995,1742110785.684557,user_1
0.03375,-0.02125,0.09125,0.003005,-0.0030525,-0.0022425,0.05375,0.04375,0.045,-0.0007325,0.0228125,-0.006255,1742110785.8032188,user_1
0.02125,-0.02875,0.14125,0.0015725,0.013595,0.004165,-0.15,-0.35625,-0.315,0.0173175,0.0098125,-0.0104225,1742110785.92316,user_1
0.03,-0.015,0.10625,-0.0002125,0.0037075,-0.0031125,0.01125,-0.01125,-0.01375,-0.01387,-0.0169075,0.05661,1742110786.026595,user_1
-0.00375,-0.0275,0.18625,-0.0121450005,-0.0115975,0.0022274998,-0.10125,-0.0425,-0.015,0.0121450005,0.024705,-0.0980825,1742110786.143681,user_1
0.03,-0.01,0.11,0.00534,0.00705,0.0018150001,-0.06625,-0.1325,-0.0975,-0.0169525,-0.0234375,0.065415,1742110786.26222,user_1
0.02875,-0.01875,0.12,0.0,0.0030825,-0.00151,0.07375,0.13875,-0.0025,0.0052024997,-0.0033725,0.02884,1742110786.367466,user_1
0.02,-0.01875,0.17375,0.013534999,-0.0030825,0.00058,-0.17625,-0.40625,-0.255,0.045654997,0.0328975,-0.1080625,1742110786.483573,user_1
0.02375,-0.015,0.1025,0.0007625,0.0071875,-0.001435,-0.0425,-0.075,-0.0775,-0.007735,-0.022355,0.07396,1742110786.603062,user_1
0.03125,-0.01375,0.12,0.000535,0.0043325,-7.75e-05,0.06875,0.12625,0.015,0.00554,0.0007625,-0.0195,1742110786.709611,user_1
0.01875,-0.04875,0.165,0.0133825,0.002305,0.002625,-0.2125,-0.4025,-0.33375,0.022629999,0.020355,-0.00792,1742110786.8234549,user_1
0.03,-0.01375,0.1,0.0001825,0.0063625,-0.0016625,-0.02625,-0.06,-0.05875,-0.015717499,-0.024977501,0.065277494,1742110786.943021,user_1
0.0625,-0.00375,0.0225,0.0050500003,-0.013702501,-0.002685,0.06,0.1125,0.02875,-0.002135,0.0119325,-0.038680002,1742110787.050559,user_1
0.02125,-0.04,0.1425,-0.0019375,0.0122825,0.00319,-0.14375,-0.2875,-0.3,-0.0254975,0.0094449995,0.031632498,1742110787.164505,user_1
0.02875,-0.00875,0.1125,-0.0001525,0.006165,-0.0027774998,0.02,-0.02375,-0.04875,-0.0022574998,-0.0344075,0.042985,1742110787.28362,user_1
-0.035,-0.05625,0.1675,-0.0221875,-0.0284875,0.0036775,-0.01875,-0.015,0.06375,-0.0061500003,0.041580003,-0.057494998,1742110787.403882,user_1
0.02125,-0.00125,0.115,0.0054175,0.0175325,0.003555,-0.035,-0.115,-0.135,-0.007965,-0.04448,0.028944999,1742110787.5064058,user_1
0.0325,-0.0225,0.115,-0.0003975,0.0016625,-0.003875,0.04875,-0.00875,0.03875,0.0136875,-0.019012501,0.018157499,1742110787.624059,user_1
0.02,0.0,0.18125,0.0019525,0.001145,-0.00087,-0.09875,-0.2025,-0.2825,-0.00731,0.0442975,-0.0469675,1742110787.743839,user_1
0.02875,-0.0125,0.0975,0.0041799997,0.011245,-0.0003975,-0.02875,-0.1125,-0.0775,-0.0094,-0.0308375,0.0396875,1742110787.8474948,user_1
0.04625,-0.01875,0.0775,0.0013125,-0.0046550003,-0.0012675,0.06125,0.04375,0.04625,-0.0068975003,0.01567,0.0018150001,1742110787.963521,user_1
0.01625,-0.03,0.1425,0.0042425,0.00328,0.005005,-0.1325,-0.3075,-0.3275,-0.0134575,-0.0021825,0.01036,1742110788.083004,user_1
0.03,-0.01,0.10875,-0.00035,0.005355,-0.0028525,0.01,-0.05625,-0.0,-0.0077975,-0.0316475,0.03119,1742110788.188554,user_1
0.045,-0.02875,-0.00125,0.01039,-0.0602425,-0.000245,0.04,0.03875,0.03875,-0.010665,0.0367275,-0.03386,1742110788.303863,user_1
0.02875,-0.00375,0.11625,-0.0052024997,0.019745002,0.0019824998,-0.06375,-0.22125,-0.1975,-0.054564998,-0.025557501,0.0358125,1742110788.4238,user_1
0.03,-0.015,0.11625,-0.0007775,0.0044699996,-0.0044549997,0.0325,-0.0075,0.02125,-0.0045625,-0.0131675,0.033615,1742110788.5307038,user_1
-0.025,0.01,0.20875,-0.032959998,-0.01712,0.006775,-0.03125,-0.01125,0.02625,0.0132,0.0343325,-0.088425,1742110788.6446002,user_1
0.0225,-0.0025,0.11375,0.0098425,0.0125575,0.00357,-0.04625,-0.135,-0.0775,-0.0104825,-0.0363475,0.055632498,1742110788.763707,user_1
0.02875,-0.0175,0.12,-0.0004425,0.005905,-0.0054175,0.07375,0.0625,0.03375,-0.0010225,0.0045475,0.03009,1742110788.8839018,user_1
0.0225,-0.01625,0.18,0.0087575,-0.0042425,0.001465,-0.14375,-0.28875,-0.205,0.0410625,0.0227975,-0.0794075,1742110788.986502,user_1
0.02875,-0.0125,0.09625,0.00377,0.0121775,0.0004125,-0.0325,-0.0825,-0.06375,-0.0051275003,-0.0331125,0.0600575,1742110789.103605,user_1
0.0325,-0.0125,0.12625,-0.0009775,0.0061025,-0.0033275,0.08,0.1,0.0425,0.0060725003,0.0039825,-0.0099475,1742110789.2239192,user_1
0.02875,-0.0425,0.14875,0.0104825,0.00035,0.0043025,-0.235,-0.45375,-0.42125,0.04924,0.0267175,-0.017760001,1742110789.328416,user_1
0.0325,-0.01375,0.10375,-0.00058,0.0079499995,-0.0024875,-0.005,-0.04125,-0.01875,0.0062875,-0.03299,0.04576,1742110789.443062,user_1
0.065,-0.01875,-0.0225,0.0120075,-0.0475775,0.001525,0.04625,0.05125,0.03375,0.0021675,0.028137501,-0.048842497,1742110789.566674,user_1
0.025,-0.0175,0.1375,-0.004195,0.012925,0.0007325,-0.095,-0.24875,-0.29625,-0.036790002,-0.0058449996,0.0293575,1742110789.682587,user_1
0.03,-0.0175,0.11375,-0.00084,0.00441,-0.003905,0.03,-0.025,0.00625,-0.00174,-0.0311575,0.0308375,1742110789.7845492,user_1
-0.0275,-0.02,0.18,-0.021147499,-0.0172875,0.0019225,-0.01,-0.01625,0.03625,-3e-05,0.042695,-0.068114996,1742110789.9035158,user_1
0.02625,-0.00375,0.11125,0.00554,0.0148475,0.00052,-0.04625,-0.16375,-0.125,-0.01738,-0.0449525,0.02423,1742110790.012462,user_1
0.0325,-0.0225,0.115,0.0001525,0.0030975002,-0.003845,0.0525,0.04,0.0525,0.003585,0.0002125,0.03212,1742110790.1264372,user_1
0.02875,-0.01375,0.15875,0.008575,-0.0019225,0.002,-0.12125,-0.285,-0.2825,0.01567,0.029435,-0.05066,1742110790.243895,user_1
0.0275,-0.015,0.10125,0.00091500004,0.0066374997,-0.0019225,-0.02125,-0.10375,-0.055,-0.005265,-0.0336925,0.0511025,1742110790.36387,user_1
0.03125,-0.01625,0.12375,0.000275,0.0059499997,-0.0018150001,0.06875,0.0675,0.0275,-0.0004425,0.012725,0.0049125,1742110790.468522,user_1
0.02375,-0.02875,0.1425,0.006805,-0.00348,0.00302,-0.135,-0.4125,-0.3575,0.0408325,0.008712499,-0.0113825,1742110790.583015,user_1
0.0325,-0.01875,0.10875,0.0003975,0.0024725,-0.0007775,0.0075,-0.0325,-0.01625,-0.0089275,-0.02327,0.0574025,1742110790.703409,user_1
0.065,-0.00125,-0.05875,0.010955,-0.029725,-0.0020599999,0.0475,0.07,0.0275,0.0098425,0.0248575,-0.055755,1742110790.8106408,user_1
0.02125,-0.0325,0.13375,-0.0059975,0.017272498,0.001435,-0.14625,-0.33625,-0.34125,-0.027055,0.0086975,0.030257499,1742110790.924532,user_1
0.0275,-0.0125,0.11125,-6e-05,0.005065,-0.0031575,0.015,-0.00875,-0.0175,-0.008575,-0.033752497,0.041,1742110791.046359,user_1
-0.0225,-0.05125,0.165,-0.0155325,-0.0193025,0.006805,0.00375,-0.0375,0.05625,0.01265,0.035462502,-0.066360004,1742110791.16431,user_1
0.0275,-0.0075,0.11625,0.001755,0.007095,0.00029,-0.05625,-0.1375,-0.22875,-0.0363625,-0.01831,0.0367575,1742110791.266338,user_1
0.02,-0.01625,0.12375,-0.00023,0.0011900001,-0.0036,0.05125,-0.015,0.05375,-0.00142,-0.035935,0.02182,1742110791.384376,user_1
-0.0075,0.00125,0.18125,-0.025024999,0.0117025,0.0022125002,-0.0475,-0.03125,-0.03875,0.0030975002,0.069107495,-0.054765,1742110791.5047538,user_1
0.015,-0.00625,0.11875,0.0066675,0.0094449995,-0.00061,-0.0425,-0.11375,-0.1225,-0.006255,-0.045745,0.0284575,1742110791.607465,user_1
0.02375,-0.0225,0.1225,0.00026,0.0057225,-0.0022125002,0.055,0.00375,0.075,-0.002395,0.0128475,0.011505,1742110791.7243352,user_1
0.02625,-0.03375,0.15,0.0108025,-0.0007475,0.0018150001,-0.14,-0.2175,-0.34875,0.038560003,0.025757499,-0.039047502,1742110791.843608,user_1
0.03,-0.0125,0.10625,-0.0010225,0.0072625,-0.0016325001,-0.00625,-0.08,-0.01625,-0.0131375,-0.03427,0.040939998,1742110791.949494,user_1
0.0225,-0.0075,0.0325,0.0024100002,-0.0484,-0.00061,0.04125,0.05125,0.03125,-0.010757499,0.04033,-0.0240175,1742110792.067554,user_1
0.02125,-0.00125,0.12,-0.0025325,0.0133525,0.0036,-0.09375,-0.19375,-0.26,-0.035919998,-0.0089275,0.028335,1742110792.183913,user_1
0.0275,-0.01375,0.1225,0.0006875,0.00499,-0.0028225,0.03625,0.0,0.0025,-0.015502499,-0.02214,0.04042,1742110792.303974,user_1
-0.01,0.02,0.2075,-0.027602501,0.0060425,-0.0019824998,-0.0225,0.00125,0.02375,-0.0028225,0.032715,-0.08986,1742110792.405492,user_1
0.03125,-0.0075,0.0975,0.0110174995,0.0163575,0.0025025,-0.055,-0.12,-0.10125,-0.014115,-0.03302,0.0473325,1742110792.525592,user_1
0.035,-0.025,0.1225,-0.00033500002,0.00566,-0.0040425,0.06375,0.03375,0.04125,0.0072175004,-0.0054325,0.0112,1742110792.644108,user_1
0.0175,-0.06875,0.15625,0.020295,-0.0054625003,0.00377,-0.0525,-0.10625,-0.2325,0.053895,0.04866,-0.0573125,1742110792.746557,user_1
0.02625,-0.02,0.10125,0.0027925,0.0042575,0.000655,-0.04375,-0.09,-0.04375,-0.001175,-0.048035,0.0517425,1742110792.864429,user_1
0.025,-0.02125,0.12,-0.0013425,3e-05,0.000945,0.0575,0.08375,0.0175,-0.01274,0.0195475,-0.0161275,1742110792.9841778,user_1
0.02125,-0.02625,0.1425,0.0044549997,-0.002715,-0.0001975,-0.18375,-0.3975,-0.26375,0.0281975,0.01152,-0.07861251,1742110793.087497,user_1
0.025,-0.02,0.115,0.0010225,0.0042425,-0.00079250004,-0.01875,-0.04375,-0.04,-0.0107725,-0.0223225,0.066542506,1742110793.204358,user_1
0.045,-0.01,0.02625,0.002045,-0.022385,-0.00093,0.055,0.05875,0.035,0.0045324997,0.01596,-0.0450125,1742110793.324023,user_1
0.0225,-0.02125,0.1275,-0.0038,0.008712499,0.000305,-0.08875,-0.19125,-0.25125,-0.026535,0.008285,0.032715,1742110793.429355,user_1
0.02375,-0.01875,0.11375,-0.000245,0.0041199997,-0.0020899998,0.03875,0.00125,-0.0,-0.0061350004,-0.0154425,0.023102501,1742110793.5471349,user_1
-0.005,0.00875,0.19125,-0.021805,-0.0025325,-0.0018300001,-0.06875,-0.05,-0.03375,0.0060725003,0.038099997,-0.068330005,1742110793.664194,user_1
0.02125,-0.01125,0.11,0.0067600003,0.01004,0.0027325,-0.06,-0.105,-0.11,-0.00154,-0.039977502,0.043655,1742110793.783782,user_1
0.02375,-0.02125,0.13125,0.000825,0.00499,-0.0034175,0.05375,0.00625,0.0225,0.0069575,-0.0077825,0.020172501,1742110793.884362,user_1
0.0175,-0.00875,0.16875,0.0056775,-0.00142,-0.0010525,-0.11125,-0.2275,-0.22,0.0180975,0.0374,-0.0941775,1742110794.00479,user_1
0.0275,-0.0175,0.105,0.0039675,0.0043800003,0.0019525,-0.0375,-0.0925,-0.06875,-0.007355,-0.0311125,0.0505675,1742110794.1243038,user_1
0.04,-0.01625,0.08125,-0.0007775,0.0054925,-0.0016025,0.06625,0.085,0.02875,0.000305,0.0078425,0.0042875,1742110794.225504,user_1
0.02125,-0.04125,0.14375,0.0030525,0.0037525,0.0030675002,-0.20375,-0.35625,-0.3525,0.031235,0.0198825,-0.00647,1742110794.343974,user_1
0.02625,-0.01125,0.11,-0.0008075,0.00502,-0.0016925,0.015,-0.015,-0.01375,-0.01245,-0.0281075,0.0428925,1742110794.463535,user_1
0.0225,-0.01625,0.04875,0.0045775,-0.0497275,-0.00331,0.04375,0.04625,0.0425,0.0083475,0.0266875,-0.054702498,1742110794.5672991,user_1
0.02,-0.01,0.125,-0.0019375,0.01303,0.00325,-0.08375,-0.20625,-0.24,-0.033889998,-0.0080725,0.02983,1742110794.683944,user_1
0.02125,-0.01875,0.1175,-0.001115,0.00122,-0.0028525,0.03125,-0.00375,0.00125,-0.009705,-0.0158375,0.0386975,1742110794.804234,user_1
-0.01,-0.04,0.17375,-0.016617501,-0.009185,-0.0006875,-0.055,-0.015,-0.00125,0.004365,0.035615,-0.0759575,1742110794.908591,user_1
0.0225,-0.01,0.11,0.0059825,0.010757499,0.00331,-0.07375,-0.14625,-0.1075,-0.02243,-0.037795,0.0558175,1742110795.026071,user_1
0.0225,-0.02,0.1225,-0.0004725,9.25e-05,-0.0010675,0.06375,0.04125,0.015,-0.0042725,-0.009734999,0.026290001,1742110795.143849,user_1
-0.005,-0.0175,0.17375,-0.017365,0.0037525,-3e-05,-0.1225,-0.11,-0.02875,0.0214225,0.035400003,-0.102295,1742110795.249565,user_1
0.02,-0.0125,0.1125,0.0059975,0.0077199996,0.0015725,-0.05625,-0.11125,-0.09875,-0.01657,-0.0364075,0.064925,1742110795.364216,user_1
0.0225,-0.0175,0.12375,6e-05,0.002885,-0.001175,0.08125,0.08625,0.03,-0.0045475,-0.0007625,0.0142825,1742110795.483725,user_1
0.01875,-0.0075,0.1625,-0.00029,0.00048750002,-0.0007025,-0.175,-0.32125,-0.24375,0.0827325,0.03183,-0.068620004,1742110795.58947,user_1
0.02375,-0.0175,0.1075,0.00232,0.0077525,-0.000565,-0.03375,-0.065,-0.05625,-0.014785,-0.0310975,0.061355,1742110795.704134,user_1
0.05375,-0.00375,0.02125,0.0050500003,-0.0204475,-0.0016925,0.06125,0.08625,0.03,-0.000305,0.01114,-0.0360425,1742110795.823822,user_1
0.015,-0.03125,0.14,0.0025625,0.0119175,0.0042125,-0.185,-0.31375,-0.35,-0.017395,0.0124975005,0.018157499,1742110795.943566,user_1
0.025,-0.0125,0.10625,-0.00052,0.00473,-0.00235,-0.00375,-0.03125,-0.01375,-0.010865,-0.02658,0.048705,1742110796.046867,user_1
0.00125,-0.02,0.06375,0.003205,-0.055955,-0.0018150001,0.005,0.03375,0.03125,0.010635001,0.0270375,-0.062255003,1742110796.1639628,user_1
0.02375,-0.005,0.1125,-0.0018475,0.0222625,0.0016475001,-0.08125,-0.16625,-0.1975,-0.029662501,-0.027802499,0.036544997,1742110796.28414,user_1
0.0275,-0.02,0.115,9.25e-05,-0.000855,-0.00148,0.03125,0.01,-0.00125,-0.0042575,-0.009734999,0.0366375,1742110796.38541,user_1
0.0075,-0.01,0.1825,-0.0199125,4.5e-05,-0.000945,-0.09,-0.04125,-0.095,0.0260775,0.033875,-0.0929575,1742110796.505037,user_1
0.02125,-0.01125,0.10375,0.0064250003,0.0098425,0.00151,-0.06625,-0.13,-0.12875,-0.01097,-0.0302125,0.047837503,1742110796.624365,user_1
0.0225,-0.0175,0.13,0.0001525,0.00331,-0.0019525,0.065,0.05125,0.01625,-0.001725,-0.0116125,0.016815001,1742110796.726296,user_1
0.0175,-0.01375,0.1625,-0.0027925,0.0019824998,-0.00087,-0.12125,-0.265,-0.225,0.0404975,0.03328,-0.06578,1742110796.843997,user_1
0.025,-0.01875,0.1,0.0021675,0.0061350004,-0.000245,-0.0375,-0.07625,-0.08125,-0.015702501,-0.035415,0.046919998,1742110796.96363,user_1
0.025,-0.015,0.12625,0.00023,0.003815,-0.0016025,0.055,0.03375,0.0425,0.000885,0.0108025,-0.015,1742110797.068331,user_1
0.01625,-0.0475,0.1525,0.0043325,0.0111075,0.0041799997,-0.20375,-0.28125,-0.36125,0.0313875,0.02423,-0.0101775,1742110797.1842618,user_1
0.02625,-0.01,0.10125,0.0,0.0090475,-0.0021525,-0.01625,-0.065,-0.01625,-0.0098575,-0.033997502,0.037445,1742110797.304213,user_1
0.01375,-0.02375,0.01875,0.009872501,-0.049392503,-0.0021975,0.035,0.03875,0.0425,0.0089875,0.029662501,-0.0386975,1742110797.409418,user_1
0.0,-0.0125,0.13125,-0.0009625,0.002335,-0.0027625,-0.07625,-0.21125,-0.28125,0.0057975003,0.013245,0.00769,1742110944.746169,user_2
0.0225,-0.0175,0.07,0.001465,0.0028225,-0.0025175,0.01375,0.00875,0.0125,-0.0047150003,-0.0219575,0.02452,1742110944.848733,user_2
0.00375,-0.01375,0.1275,-0.0025175,-0.0013575,-0.0007475,-0.07125,-0.105,-0.0775,0.013505,0.0517425,-0.053467497,1742110944.964486,user_2
0.0075,-0.01625,0.12125,0.0010225,0.0058449996,-0.0015575,-0.0325,-0.0675,-0.0675,-0.013534999,-0.04724,0.0378725,1742110945.076771,user_2
0.0075,-0.0175,0.1225,0.003235,0.0044400003,-0.0014500001,0.02,-0.04125,0.05625,0.0075225,0.03505,-0.0304575,1742110945.189922,user_2
0.00375,-0.0175,0.13,0.0019225,0.0081025,-0.0001825,-0.04125,-0.14375,-0.195,-0.010865,-0.033905,0.0086375,1742110945.304854,user_2
-0.02375,-0.02625,0.14,0.0020599999,-0.0243675,-0.0003975,0.0325,-0.01375,0.05375,0.0024425,0.000885,0.0103,1742110945.424413,user_2
-0.00375,-0.01875,0.13875,0.000305,0.0022725,0.0008075,-0.0825,-0.20875,-0.3525,0.011367501,0.0352025,-0.02208,1742110945.531896,user_2
0.01,-0.01625,0.11375,0.0025475,0.00389,-3e-05,-0.01,-0.05,0.0075,-0.0168,-0.038772497,0.037155,1742110945.645804,user_2
0.00125,-0.0325,0.145,0.0078125,-0.0055549997,-0.0001375,-0.01375,-0.02375,0.01625,0.00685,0.0544125,-0.0414725,1742110945.76416,user_2
0.0025,-0.02375,0.12,0.00148,0.0058899997,0.000305,-0.06625,-0.145,-0.13125,-0.02156,-0.052245,0.01953,1742110945.88326,user_2
-0.015,-0.03125,0.135,0.0024725,-0.01822,0.00026,0.0475,0.0175,0.08,0.0050975,0.007415,0.0086199995,1742110945.986968,user_2
-0.005,-0.02,0.13125,0.0003825,0.00177,-0.000535,-0.10875,-0.23,-0.34625,0.018737499,0.0408025,-0.027069999,1742110946.103336,user_2
0.00625,-0.02,0.11625,0.0015725,0.0030825,0.000625,-0.0075,-0.04125,0.0,-0.015305,-0.04306,0.0414125,1742110946.224011,user_2
0.005,-0.01875,0.1275,0.0032650002,0.0013275,-0.00171,-0.00125,-0.02625,0.02875,0.0110775,0.048630003,-0.03859,1742110946.3278148,user_2
0.0,-0.02375,0.12125,0.00052,0.0033725,-0.0005025,-0.0625,-0.15125,-0.2225,-0.01567,-0.044907503,0.0155175,1742110946.4431648,user_2
0.02375,-0.01125,0.055,0.002365,-0.008605,-0.00026,0.035,-0.0125,0.06875,0.0007175,-0.0110775,0.0178675,1742110946.555886,user_2
-0.0075,-0.02,0.13,-0.0016025,-0.00061,-0.00052,-0.1225,-0.08375,-0.2325,0.0045775,0.0733175,-0.048995,1742110946.6701791,user_2
-0.0,-0.02375,0.12125,0.001175,0.0029000002,0.000565,-0.0325,-0.095,-0.035,-0.01564,-0.0499575,0.03267,1742110946.784551,user_2
0.01125,-0.005,0.12,-0.0007625,0.008605,-0.0013875001,0.015,-0.01375,0.05625,0.0063325,0.034255,-0.0151825,1742110946.904293,user_2
-0.0025,-0.0225,0.125,0.00091500004,0.0034025,0.00055,-0.08375,-0.18,-0.28125,-0.00827,-0.0234975,0.0080725,1742110947.0116942,user_2
0.01,-0.0225,0.0925,0.0013275,0.0034949998,0.00023,0.02375,-0.03,0.03625,-0.0056775,-0.02028,0.0293125,1742110947.1248078,user_2
-0.0075,-0.03,0.1325,-0.0020599999,-0.000625,0.000305,-0.08125,-0.06125,-0.11125,0.012025,0.059830002,-0.056092497,1742110947.244516,user_2
0.0025,-0.02625,0.11875,0.000275,0.0041799997,-7.75e-05,-0.0425,-0.12,-0.065,-0.01474,-0.051865,0.026825001,1742110947.3529222,user_2
0.00125,-0.02125,0.14625,-0.0068675,0.0074,-0.00154,0.03625,-0.00625,0.05,0.0045475,0.0199125,-0.006745,1742110947.4669309,user_2
0.0025,-0.025,0.1225,0.000885,0.0028225,0.0004125,-0.09125,-0.2075,-0.29125,-0.00113,-0.0062100003,0.0007775,1742110947.587396,user_2
0.00875,-0.0275,0.115,0.00061,0.0024725,-0.0003975,0.00625,-0.0475,0.0225,-0.0090625,-0.029755,0.0293875,1742110947.704231,user_2
-0.00375,-0.0325,0.12875,-0.001405,-0.00059500005,0.0013575,-0.045,-0.05375,-0.05875,0.0095675,0.05484,-0.047105,1742110947.809026,user_2
0.005,-0.025,0.11875,-0.0005025,0.002395,-0.000245,-0.03875,-0.11875,-0.075,-0.0154725,-0.0469675,0.02861,1742110947.924288,user_2
-0.0175,-0.025,0.1375,-0.00618,-0.018202499,-0.0018925001,0.0475,-0.00875,0.04,0.0021975,0.014007499,0.0004125,1742110948.045871,user_2
0.00125,-0.0275,0.1175,-0.0022725,0.0052024997,0.0003825,-0.1,-0.24625,-0.30375,0.008909999,0.028944999,-0.024155,1742110948.1507862,user_2
0.00875,-0.02,0.12,0.0003975,0.0025025,0.0001525,-0.01125,-0.065,-0.02375,-0.00911,-0.0290375,0.03238,1742110948.264621,user_2
0.0075,-0.02,0.12125,0.0051275003,0.003005,-0.00026,0.01625,-0.0225,0.02125,0.0075375,0.0254825,-0.03032,1742110948.383762,user_2
0.005,-0.0225,0.1225,0.000825,0.0031575,0.00052,-0.05875,-0.15625,-0.21125,-0.0065925,-0.0343325,0.010055,1742110948.491755,user_2
0.01625,-0.02625,0.08375,0.0036175,-0.0033575,-0.0013575,0.035,-0.02125,0.02375,-0.0021825,-0.010865,0.021485,1742110948.605834,user_2
0.00125,-0.0325,0.12625,-0.0038299998,-0.0016775,0.0007475,-0.07125,-0.09125,-0.115,0.0095525,0.051650003,-0.0484,1742110948.72425,user_2
0.005,-0.02625,0.1175,-7.75e-05,0.00293,-0.0009625,-0.04125,-0.0975,-0.03625,-0.017135,-0.0588075,0.032075,1742110948.83385,user_2
0.00125,-0.04,0.1375,-0.0101325,0.00154,4.5e-05,0.0325,-0.01875,0.065,0.0049274997,0.03189,-0.0148925,1742110948.947708,user_2
0.00375,-0.02,0.12625,-0.000565,0.00055,0.000305,-0.0875,-0.195,-0.3325,-0.00409,-0.00064,-0.0021675,1742110949.066373,user_2
0.00875,-0.03125,0.1,-0.0004725,-0.00154,0.00016750001,0.02125,-0.045,0.045,-0.0057675,-0.01892,0.02861,1742110949.184463,user_2
-0.005,-0.0325,0.13,-0.0040425,-7.75e-05,-0.0006875,-0.06,-0.0675,-0.08,0.0175025,0.0511775,-0.0341175,1742110949.2900229,user_2
0.0025,-0.02625,0.11625,9.25e-05,0.0027,0.0004725,-0.0425,-0.10125,-0.06375,-0.012207501,-0.0437625,0.027862499,1742110949.404698,user_2
-0.0025,-0.02,0.14375,-0.0030375,0.0009925,-0.0010975,0.02625,-0.0375,0.0375,0.0069125,0.0204925,-0.0146625005,1742110949.525007,user_2
0.0025,-0.02625,0.1225,0.000855,0.0012675,7.75e-05,-0.08625,-0.1425,-0.275,0.0026099999,-0.00232,0.004105,1742110949.6305878,user_2
0.005,-0.02375,0.12,-0.000107500004,0.0021199998,-0.00084,0.0125,-0.05625,0.0,-0.0045925,-0.025895001,0.023635,1742110949.744921,user_2
-0.0125,-0.0375,0.13875,0.0051725,0.0025625,0.0,-0.0325,-0.05,-0.0225,0.012375,0.049009997,-0.030655,1742110949.864213,user_2
0.0,-0.025,0.1175,0.0002125,0.0044699996,0.00058,-0.06125,-0.13125,-0.125,-0.0093075,-0.042907503,0.0113975,1742110949.9715672,user_2
-0.0225,-0.0275,0.1675,-0.0121775,-0.0063024997,-0.0046550003,0.035,-0.02375,0.03,-0.001495,0.0165875,0.0036324998,1742110950.087709,user_2
-0.00125,-0.0225,0.12375,0.000855,0.0016775,0.0033575,-0.1125,-0.15625,-0.29375,-0.001115,0.00731,-0.0107125,1742110950.204493,user_2
0.005,-0.0225,0.11625,6e-05,0.0036624998,-0.0008075,0.01,-0.05625,0.0125,-0.0076149995,-0.021652501,0.0331725,1742110950.312674,user_2
-0.015,-0.04625,0.1375,0.0090625,0.0060125,0.0015725,-0.02625,-0.0375,-0.05625,0.0036775,0.039869998,-0.04567,1742110950.426782,user_2
0.00125,-0.025,0.115,0.0010525,0.0060425,0.0022125002,-0.0725,-0.145,-0.10125,-0.009140001,-0.036835,0.023192499,1742110950.545805,user_2
-0.00375,-0.02125,0.11125,-0.00389,-0.022385,-0.0028225,0.04875,0.0075,0.00625,0.002045,0.0063175,-0.00079250004,1742110950.654068,user_2
0.00125,-0.0275,0.11875,-0.0034949998,0.001495,0.0006875,-0.145,-0.28625,-0.245,0.00435,0.0154425,-0.02121,1742110950.767714,user_2
0.005,-0.02,0.12,0.0004275,0.0042425,-0.0001375,-0.01,-0.04875,-0.02875,-0.0133525,-0.03769,0.0461275,1742110950.883789,user_2
0.0025,-0.01125,0.15375,-0.0061500003,0.0081475,-0.0022574998,0.03625,-0.01625,0.03625,0.0067600003,0.022475,-0.0405275,1742110951.003973,user_2
0.00625,-0.0275,0.1225,0.0019675,0.0031275,0.000565,-0.105,-0.1875,-0.275,-0.005645,-0.0146475,0.01921,1742110951.109668,user_2
0.00875,-0.02625,0.1225,0.00016750001,0.003235,-0.0007475,0.03125,-0.035,0.025,0.00093,-0.0173175,0.032775,1742110951.2248251,user_2
-0.00625,-0.0525,0.13125,0.005265,0.000855,0.002595,-0.0875,-0.03125,-0.08875,0.01825,0.05815,-0.070557505,1742110951.344526,user_2
0.005,-0.0225,0.11625,0.0001525,0.0016175,0.0024100002,-0.04375,-0.12875,-0.04875,-0.0066825,-0.0384675,0.03241,1742110951.450669,user_2
-0.02125,-0.02375,0.15875,-0.00566,-0.0164025,-0.0016475001,0.04875,0.00875,0.04,0.0001825,0.0239575,-0.002135,1742110951.566998,user_2
-0.00125,-0.02625,0.1225,-0.0021675,0.0022725,0.000885,-0.1375,-0.25125,-0.285,0.0043800003,0.00409,-0.00116,1742110951.684578,user_2
0.0075,-0.025,0.11625,0.000655,0.0027325,0.0004275,0.02,-0.0275,0.01125,-0.0066374997,-0.0260625,0.03453,1742110951.791565,user_2
-0.00875,-0.035,0.12875,0.008909999,0.0061950004,0.0004425,-0.02875,-0.0325,-0.01125,0.00972,0.0405425,-0.04924,1742110951.9047868,user_2
0.0025,-0.03,0.11875,0.00023,0.00525,0.00055,-0.0425,-0.13875,-0.0925,-0.0107425,-0.0420375,0.028275,1742110952.0250309,user_2
0.00625,-0.04,0.10875,-0.0016325001,-0.019790001,0.000655,0.0625,0.0275,0.04625,0.0028225,0.0065,0.0031125,1742110952.13178,user_2
0.005,-0.02625,0.1225,-0.002395,-0.00016750001,0.00061,-0.12375,-0.3075,-0.3275,0.0085,0.0163125,-0.018860001,1742110952.245773,user_2
0.00875,-0.0275,0.1175,0.0007325,0.002075,-0.0001375,0.0075,-0.06375,0.01,-0.00937,-0.0243525,0.041215,1742110952.3648891,user_2
-0.01,-0.0275,0.12875,0.01213,0.005065,0.000107500004,-0.0175,0.00625,-0.01875,0.0054175,0.0500325,-0.055419996,1742110952.473687,user_2
0.0025,-0.02875,0.1175,0.0010825,0.0024575,0.00122,-0.05125,-0.17,-0.13,-0.0169075,-0.039444998,0.029524999,1742110952.5880818,user_2
0.00125,-0.0275,0.11,-6e-05,-0.0234825,-0.0018775001,0.045,0.00875,0.03875,-0.0039825,0.0084375,-0.005355,1742110952.704909,user_2
0.00125,-0.03125,0.12,-0.0024425,-0.0001975,0.0004275,-0.0975,-0.28375,-0.30625,0.0216675,0.013335,-0.020860001,1742110952.82511,user_2
0.00375,-0.0225,0.1175,0.0010525,0.0010375,0.000275,-0.00375,-0.06625,-0.01,-0.016555,-0.0264575,0.039352503,1742110952.92852,user_2
-0.01125,-0.0175,0.1525,-0.001785,0.014085,-0.0027,0.02875,0.005,0.035,0.010024999,0.0302125,-0.0443875,1742110953.046518,user_2
-0.0,-0.03,0.11875,0.0030675002,0.0047925,0.002395,-0.075,-0.17875,-0.2225,-0.0076599997,-0.02739,0.0172575,1742110953.165604,user_2
0.015,-0.025,0.07375,0.0043175,-0.0062399996,-0.00093,0.0475,0.01875,0.0325,-0.004975,-0.0141,0.028915001,1742110953.269823,user_2
-0.0025,-0.04375,0.1225,-0.003235,0.0031424998,0.0007775,-0.0825,-0.125,-0.13875,0.016280001,0.042494997,-0.057435002,1742110953.3848882,user_2
0.00375,-0.025,0.11625,-0.0007025,0.0028074998,9.25e-05,-0.035,-0.0975,-0.0625,-0.012695,-0.0343325,0.0397175,1742110953.504887,user_2
-0.01875,-0.0275,0.1775,-0.0128475,-0.01236,-0.0075825,0.04625,0.015,0.04125,0.0069274995,0.021514999,-0.015945,1742110953.612038,user_2
0.00125,-0.02375,0.11625,0.0027,0.0023800002,0.0024100002,-0.12,-0.2375,-0.315,0.012925,0.006715,-0.001725,1742110953.725812,user_2
0.005,-0.025,0.11875,6e-05,0.001755,-0.0013875001,0.01875,-0.03375,-0.00125,-0.0125275,-0.02266,0.038985,1742110953.845736,user_2
-0.00875,-0.03375,0.12625,0.0098125,0.0047150003,0.00064,-0.04625,-0.01625,-0.05,0.0193625,0.0454875,-0.060685,1742110953.9515982,user_2
0.00125,-0.025,0.11625,-0.0006725,0.004685,6e-05,-0.05875,-0.1575,-0.10875,-0.0092175,-0.0396725,0.03009,1742110954.0684,user_2
0.01,-0.01875,0.0775,-0.0016625,-0.022629999,-0.0024425,0.0525,0.01125,0.01625,-0.009675,0.0056925,0.022247499,1742110954.1859431,user_2
0.00125,-0.0275,0.12,-0.0036324998,0.00058,-0.0001825,-0.10875,-0.2925,-0.25625,0.028565,0.00032,-0.04161,1742110954.304839,user_2
0.0025,-0.0275,0.12,0.000305,0.00116,-0.00061,0.015,-0.02625,-0.0225,-0.0096125,-0.026855,0.0466925,1742110954.407587,user_2
0.0,-0.01625,0.1425,-0.0087275,0.00328,-0.002135,0.02125,0.005,0.03125,0.0019075,0.025695,-0.02974,1742110954.526391,user_2
0.0,-0.02,0.12,0.001785,0.00389,0.0015875,-0.085,-0.20125,-0.26375,-0.0036,-0.0252075,0.0189975,1742110954.646139,user_2
0.00625,-0.025,0.12,0.000245,0.002305,-0.0010825,0.0375,0.00125,0.02375,-0.0030825,-0.025940001,0.024445,1742110954.7485828,user_2
-0.005,-0.03875,0.1275,0.008315,0.002595,0.0007475,-0.0525,-0.07125,-0.035,0.014557499,0.0494525,-0.059357498,1742110954.866111,user_2
0.00125,-0.025,0.12125,-0.000625,0.00296,-0.0005025,-0.06375,-0.11375,-0.1075,-0.0207225,-0.0411825,0.0455475,1742110954.9858408,user_2
0.02625,-0.02375,0.05625,0.002335,-0.0077199996,0.0004425,0.0775,0.05375,0.04625,0.00084,-0.0019225,0.00264,1742110955.090603,user_2
-0.0,-0.0325,0.12,-0.0065925,0.0013725,-0.000655,-0.13,-0.18125,-0.2075,0.03682,0.045105,-0.0750575,1742110955.20668,user_2
0.00375,-0.025,0.11875,3e-05,0.001435,4.5e-05,-0.02375,-0.0725,-0.0375,-0.015899999,-0.03827,0.047515,1742110955.326634,user_2
-0.00875,-0.025,0.1725,-0.0116875,-0.0045775,-0.0038299998,0.05375,0.035,0.04625,0.003005,0.022765,-0.03444,1742110955.431914,user_2
-0.0,-0.02375,0.1225,0.00299,0.0025475,0.0021825,-0.115,-0.23625,-0.305,-3e-05,-0.0052175,0.016555,1742110955.548119,user_2
0.00375,-0.0225,0.12125,0.0006725,0.001755,-0.0010525,0.04,0.01,0.0075,-0.015335,-0.025237499,0.038865,1742110955.666943,user_2
-0.01,-0.0375,0.1325,0.0111075,0.0046375,0.0007325,-0.03125,-0.03625,-0.01125,0.01349,0.04425,-0.058930002,1742110955.773658,user_2
-0.0,-0.025,0.115,0.0019375,0.005875,0.0018925001,-0.0725,-0.155,-0.13375,-0.018555,-0.047165003,0.0248875,1742110955.887678,user_2
0.03,-0.02125,0.04125,0.00441,-0.022965001,-0.0016925,0.05875,0.01375,0.05375,0.0042875,-0.0062100003,0.021057501,1742110956.006491,user_2
-0.01375,-0.05125,0.1325,-0.003815,0.0039375,0.0022425,-0.1325,-0.1075,-0.21375,0.027617501,0.078292504,-0.0706325,1742110956.1264372,user_2
0.005,-0.02625,0.11125,0.0019225,0.00409,0.0027925,-0.0475,-0.095,-0.0525,-0.022582501,-0.04953,0.038330004,1742110956.229522,user_2
-0.0225,-0.03875,0.17,-0.010605,-0.013825,-0.0042725,0.0475,0.02,0.04625,-0.0074299998,0.02501,-0.0009775,1742110956.347178,user_2
-0.00375,-0.03375,0.11875,-0.0009775,0.002335,0.00171,-0.14375,-0.30125,-0.3025,-0.0025475,-0.005065,-0.003585,1742110956.466435,user_2
0.005,-0.02375,0.11625,0.0,0.0016175,-0.00032,0.005,-0.04125,0.00625,-0.0116425,-0.016755,0.04651,1742110956.570698,user_2
-0.015,-0.025,0.125,0.00737,0.006745,-0.0022274998,-0.00625,0.02875,-0.0225,0.018477501,0.040665,-0.0579525,1742110956.6872928,user_2
-0.00125,-0.03,0.11625,0.0016175,0.006165,0.002365,-0.08375,-0.17125,-0.145,-0.0158075,-0.0413675,0.02501,1742110956.8071811,user_2
0.00375,-0.04,0.0975,0.00016750001,-0.0034475,-9.25e-05,0.05375,0.02375,0.0525,-0.004165,-0.0119775,0.018477501,1742110956.912732,user_2
-0.00375,-0.03625,0.12125,-0.00473,0.000535,0.000535,-0.09375,-0.1475,-0.1525,0.019485,0.057815,-0.054580003,1742110957.027462,user_2
0.00125,-0.02875,0.11625,0.0004725,0.003235,0.0007325,-0.04,-0.1075,-0.0325,-0.015075,-0.045075,0.0437475,1742110957.147454,user_2
-0.015,-0.02875,0.16,-0.0036775,-0.0096424995,-0.0018,0.05125,0.00125,0.0775,0.00473,0.0290225,-0.0195775,1742110957.253957,user_2
-0.00625,-0.03,0.12125,0.00177,-0.0012675,0.0022574998,-0.11375,-0.205,-0.355,0.00377,-0.0101325,0.0063175,1742110957.367656,user_2
-0.0,-0.03125,0.11625,-0.000305,-0.00035,-0.0004125,0.02125,-0.03375,0.02125,-0.01294,-0.0193025,0.036849998,1742110957.486642,user_2
-0.00875,-0.04,0.125,0.002075,0.0004725,-0.000305,-0.0325,-0.055,-0.05625,0.01355,0.049195,-0.051117502,1742110957.606059,user_2
-0.00375,-0.035,0.11625,-0.0001375,0.0027625,-6e-05,-0.0475,-0.1275,-0.12375,-0.0163575,-0.047195,0.0317225,1742110957.709783,user_2
-0.00125,-0.03875,0.1025,0.0006875,-0.00033500002,-0.00079250004,0.05625,0.00375,0.04625,0.0007175,-0.00093,4.5e-05,1742110957.827008,user_2
-0.00625,-0.04,0.12,-0.0046550003,0.0012975,0.0010225,-0.10375,-0.1375,-0.18,0.0248575,0.057602502,-0.0611275,1742110957.946961,user_2
-0.0025,-0.0325,0.11625,0.00026,0.001465,0.00026,-0.025,-0.09,-0.04875,-0.011765,-0.04268,0.039535,1742110958.051685,user_2
-0.0125,-0.0225,0.16125,-0.0064250003,-0.008285,-0.0022274998,0.0375,-0.00375,0.04625,0.0010075001,0.019165002,-0.0255275,1742110958.1671512,user_2
-0.0075,-0.03375,0.12125,0.0024100002,0.0024249998,0.001755,-0.08375,-0.18875,-0.2775,0.00496,-0.0018475,0.0056149997,1742110958.286836,user_2
0.0,-0.03125,0.11625,0.0001225,0.0025025,-0.0013425,0.02125,-0.03125,0.01125,-0.01114,-0.0129700005,0.04152,1742110958.393544,user_2
-0.01625,-0.0525,0.13375,0.0060125,0.0011900001,0.0018300001,-0.03,-0.0,-0.05375,0.0149375,0.04515,-0.0638875,1742110958.507576,user_2
-0.0025,-0.03375,0.115,-0.0007475,0.00502,0.000245,-0.05625,-0.12875,-0.09875,-0.022475,-0.0375975,0.042404998,1742110958.626289,user_2
0.02375,-0.02625,0.0475,0.0056775,-0.017547501,-0.001175,0.0625,0.0425,0.01375,-0.013182499,0.0051125004,0.01686,1742110958.7472582,user_2
-0.00625,-0.04,0.12,-0.0048825,0.00059500005,0.00033500002,-0.1125,-0.21,-0.1975,0.0420675,0.0301975,-0.077194996,1742110958.84968,user_2
-0.00125,-0.02875,0.11625,-0.0001525,0.0028675,0.0001225,-0.025,-0.07,-0.06125,-0.022247499,-0.031997498,0.052535,1742110958.966984,user_2
-0.01625,-0.05125,0.14,-0.0057975003,-0.01114,6e-05,0.06625,0.04875,0.055,0.005905,0.0109399995,-0.027862499,1742110959.089826,user_2
-0.00375,-0.035,0.12125,0.0013875001,0.0015575,0.0013425,-0.13,-0.3075,-0.3725,0.0096275,0.015885001,0.00016750001,1742110959.191762,user_2
0.00125,-0.0325,0.1175,0.00035,0.0013125,4.5e-05,0.0075,-0.0475,-0.01125,-0.0135200005,-0.0219125,0.0369875,1742110959.3072672,user_2
-0.0175,-0.03,0.13,0.01265,0.009675,-0.0002125,0.01,-0.00375,0.015,0.0036,0.0392,-0.0479725,1742110959.42662,user_2
-0.0025,-0.03125,0.115,0.002365,0.0039525,0.0031424998,-0.05,-0.17375,-0.1525,-0.006715,-0.032975,0.012345,1742110959.532661,user_2
0.00375,-0.03625,0.09375,0.0013425,-0.0027325,-0.001465,0.04375,-0.00625,0.03,-0.011275,-0.0075075002,0.0243825,1742110959.647146,user_2
-0.01375,-0.055,0.13125,-0.0034949998,0.003205,0.000625,-0.07125,-0.08125,-0.08,0.0281525,0.043442503,-0.07393,1742110959.766874,user_2
-0.00125,-0.03,0.11375,-0.00055,0.0021825,0.000655,-0.035,-0.1175,-0.05625,-0.015335,-0.03659,0.0393825,1742110959.886301,user_2
-0.015,-0.02,0.11125,-0.00354,-0.030915001,-0.00702,0.0525,0.0225,0.02875,-0.0069274995,0.0071875,-0.0039975,1742110959.9888089,user_2
-0.005,-0.03625,0.115,-0.001785,0.000885,0.0019824998,-0.14,-0.34,-0.315,0.0431525,0.020295,-0.038255002,1742110960.106318,user_2
-0.0025,-0.02875,0.1175,-0.00023,0.00174,-0.0001825,-0.02625,-0.0825,-0.03,-0.016145,-0.0260775,0.048065,1742110960.227308,user_2
-0.02,-0.03875,0.175,-0.013915,-0.0084375,-0.0045925,0.0475,0.05375,0.03125,0.0084675,0.016555,-0.0251925,1742110960.330815,user_2
-0.00625,-0.03375,0.1175,0.0016175,0.0037850002,0.00331,-0.1175,-0.22625,-0.25625,-0.0033575,0.0030675002,0.0037850002,1742110960.446992,user_2
0.00125,-0.02875,0.115,0.00045750002,0.00033500002,-0.000107500004,0.01,-0.02125,-0.02375,-0.024155,-0.020995,0.054765,1742110960.569085,user_2
-0.015,-0.035,0.125,0.0016775,0.0055549997,-0.002625,0.02125,-0.02,0.02125,-0.0109250005,0.0296325,-0.05159,1742110960.6727018,user_2
-0.0075,-0.03375,0.11875,0.000565,0.0040275003,0.0018625,-0.065,-0.18875,-0.15125,-0.0287775,-0.02768,0.033982497,1742110960.787209,user_2
0.00125,-0.04375,0.08875,-0.0003825,0.00357,-0.0013725,0.05,0.0175,0.01375,-0.0056,-0.0074925,0.04129,1742110960.9069371,user_2
-0.0175,-0.05625,0.13125,-0.00064,0.0063475,0.0019375,-0.06375,-0.0625,-0.035,0.0128775,0.037995,-0.0794075,1742110961.027246,user_2
-0.0025,-0.03125,0.1125,-0.00055,0.0051574996,0.0012825,-0.045,-0.12875,-0.07,-0.01027,-0.034927502,0.0482475,1742110961.1286242,user_2
-0.02,-0.0225,0.1325,-0.005645,-0.0290675,-0.007125,0.06,0.045,0.03375,0.0001975,0.00856,-1.5e-05,1742110961.247343,user_2
-0.0075,-0.03375,0.11875,-0.00177,-0.0001225,0.0018,-0.14,-0.33625,-0.295,0.03157,0.0222925,-0.040772498,1742110961.367324,user_2
-0.0,-0.0275,0.115,-0.000245,0.00267,-0.0004725,-0.01625,-0.07125,-0.02,-0.021545,-0.02861,0.0547475,1742110961.4706838,user_2
-0.015,-0.025,0.1325,0.00059500005,0.008407501,-0.0025775002,0.02875,0.0075,0.04,0.0066525,0.024872499,-0.04799,1742110961.590127,user_2
-0.0075,-0.03375,0.11875,0.001175,0.0039525,0.0020299999,-0.075,-0.17875,-0.19875,-0.0128925,-0.017395,0.0181125,1742110961.7071638,user_2
-0.0,-0.02625,0.1175,6e-05,0.0055225003,-0.0018,0.0225,-0.01,-0.00125,-0.010284999,-0.0233,0.043137502,1742110961.812606,user_2
-0.01625,-0.02625,0.12625,0.0080725,0.003205,-0.0003825,-0.0075,-0.01375,0.03125,-0.009385,0.043015,-0.066025004,1742110961.92732,user_2
-0.005,-0.03,0.11625,0.001235,0.005355,0.0021199998,-0.045,-0.17625,-0.155,-0.014557499,-0.03157,0.02948,1742110962.0483189,user_2
0.0225,-0.03125,0.04875,0.0090625,-0.0264575,-0.00113,0.04375,0.02,0.04875,0.0020299999,-0.0080725,0.01535,1742110962.167087,user_2
-0.0075,-0.0325,0.1175,-0.0030375,-0.001145,-0.0001825,-0.0975,-0.2475,-0.26,0.038055,0.046830002,-0.061295,1742110962.2688792,user_2
-0.00625,-0.0325,0.12,0.0001825,0.002365,0.00064,-0.01875,-0.07625,-0.02625,-0.019469999,-0.026870001,0.03888,1742110962.387219,user_2
-0.0175,-0.03,0.14625,-0.0105275,-0.034515,-0.006455,0.03875,0.02125,0.03875,-0.0060275,0.0225375,3e-05,1742110962.506716,user_2
-0.0125,-0.0325,0.11625,-0.001175,0.0027474998,0.0009625,-0.145,-0.28625,-0.28625,0.019272499,0.0214375,-0.0243075,1742110962.6105611,user_2
-0.00125,-0.0275,0.1175,-0.0006725,0.0057525,-0.0002125,-0.00625,-0.06625,-0.0475,-0.00908,-0.028245,0.035615,1742110962.727142,user_2
-0.02125,-0.0225,0.13125,-0.000825,0.007125,-0.002715,0.0425,0.0275,0.02,-0.0281225,0.0266575,-0.0258325,1742110962.847123,user_2
-0.01125,-0.03125,0.12125,0.0019375,0.0071875,0.00232,-0.0725,-0.20875,-0.17125,-0.000625,-0.013274999,0.01126,1742110962.95255,user_2
0.0025,-0.03875,0.09125,0.00035,0.0042875,-0.001115,0.03625,-0.00625,-0.005,-0.0022725,-0.0140525,0.044189997,1742110963.069309,user_2
-0.02125,-0.0575,0.1325,-0.000625,0.0001225,0.0025025,-0.05625,-0.04125,-0.03125,0.023924999,0.033127498,-0.0861975,1742110963.1872451,user_2
-0.0075,-0.03125,0.11375,-0.0007775,0.00557,0.000305,-0.06,-0.14,-0.08875,-0.01799,-0.036895,0.0494225,1742110963.307061,user_2
0.015,-0.0425,0.08375,0.00059500005,-0.009795,-0.00058,0.07,0.03625,0.02,0.000855,-0.0081325,0.0319825,1742110963.4086132,user_2
-0.00625,-0.0375,0.12,-0.002305,-0.0036775,0.0016175,-0.12125,-0.245,-0.20125,0.0249625,0.040939998,-0.0742025,1742110963.5276952,user_2
-0.00375,-0.0325,0.11625,0.000365,0.0020150002,-0.0004725,-0.0225,-0.0875,-0.02125,-0.0183575,-0.030015,0.0561225,1742110963.6470091,user_2
-0.01875,-0.03625,0.1675,-0.003845,-0.0040425,-0.0015725,0.06375,0.02625,0.05,0.0065774997,0.02008,-0.0308525,1742110963.750871,user_2
-0.0125,-0.03375,0.12125,0.0018775001,0.002305,0.0016625,-0.14375,-0.29,-0.3325,0.038055,0.0115975,-0.0132,1742110963.8674262,user_2
-0.00125,-0.0325,0.09625,-0.00148,0.0018300001,-0.00148,0.01,-0.0475,0.0075,-0.0101175,-0.022705,0.0443875,1742110963.986915,user_2
-0.03,-0.055,0.13625,0.011765,0.0064250003,0.0018775001,-0.02,0.045,0.00375,-0.0027925,0.0346375,-0.081635006,1742110964.0924952,user_2
-0.00875,-0.03125,0.1125,0.00084,0.0068675,0.0025325,-0.0625,-0.1725,-0.0675,-0.018845,-0.030547502,0.0447075,1742110964.207489,user_2
0.00875,-0.0175,0.05375,-0.0044250004,-0.03267,-0.0080725,0.06375,0.055,0.0125,-0.0058125,0.0086199995,0.0341175,1742110964.32745,user_2
-0.01125,-0.0375,0.1175,-0.0077199996,0.00154,0.0013725,-0.145,-0.36625,-0.20625,0.042799998,0.00859,-0.093995005,1742110964.447144,user_2
-0.0025,-0.03,0.11375,-0.0007625,0.0050500003,-0.000245,-0.03,-0.07625,-0.0775,-0.0068975003,-0.022475,0.0581675,1742110964.5486562,user_2
-0.01875,-0.0325,0.15875,-0.007995,-0.0034175,-0.0013725,0.0475,0.035,0.03125,0.0078724995,0.0033575,-0.0405875,1742110964.667822,user_2
-0.00625,-0.035,0.12,0.002335,0.0022574998,0.0021199998,-0.09875,-0.2,-0.25875,-0.0036624998,0.0205075,0.0090175,1742110964.787658,user_2
-0.00125,-0.0325,0.1175,0.0004425,0.002365,0.00016750001,0.00875,-0.03125,-0.01625,-0.01616,-0.0299675,0.0328075,1742110964.890518,user_2
-0.02125,-0.0475,0.1275,0.0077525,0.0062399996,-0.0010075001,0.02,-0.03625,0.05,-0.027207501,0.041245,-0.046005,1742110965.007037,user_2
-0.01,-0.035,0.12,0.00016750001,0.008025,0.0015575,-0.045,-0.1775,-0.145,-0.015899999,-0.0221875,0.020905001,1742110965.126739,user_2
-0.0225,-0.0425,0.16625,-0.001785,-0.033265,-0.00702,0.05375,0.0325,0.035,0.0001825,0.00232,0.024245001,1742110965.232723,user_2
-0.0075,-0.03625,0.11625,-0.000305,0.0019075,0.0013575,-0.125,-0.2975,-0.27375,0.032455,0.0189975,-0.0600575,1742110965.347583,user_2
0.00125,-0.03,0.11625,-0.0006725,0.005905,-0.0007025,-0.02,-0.0725,-0.04375,-0.015885001,-0.019135,0.0526725,1742110965.467345,user_2
-0.02625,-0.03875,0.14125,0.021485,0.0101025,-9.25e-05,0.0425,0.04125,0.03375,0.003845,0.020035,-0.0502925,1742110965.574559,user_2
-0.00625,-0.02875,0.11875,0.0021975,0.008575,0.0033575,-0.065,-0.18125,-0.18875,-0.004105,-0.010832501,0.015915,1742110965.688501,user_2
0.0125,-0.03625,0.0825,-0.0004275,0.00415,-0.000855,0.02875,-0.02375,-0.005,-0.0047925,-0.018082501,0.03775,1742110965.8074398,user_2
-0.0175,-0.06875,0.1325,-0.0001975,0.00563,0.0020899998,-0.0275,-0.0275,0.00375,0.015625,0.0384225,-0.071137495,1742110965.92767,user_2
-0.0025,-0.03,0.11125,0.00033500002,0.007965,0.0026099999,-0.05375,-0.1525,-0.0925,-0.01683,-0.0372,0.0269325,1742110966.030543,user_2
-0.00625,-0.01875,0.12375,-0.001175,0.01097,-0.0023800002,0.0475,0.03625,0.05,0.00084,-0.0066225,0.01654,1742111065.306954,user_3
-0.0125,0.005,0.13625,0.0364375,0.0031125,-0.001235,-0.225,-0.29625,-0.33,-0.00091500004,0.0234975,-0.0067600003,1742111065.422249,user_3
-0.025,-0.0025,0.1325,0.0028225,0.0181875,-0.0002125,-0.01875,-0.0475,-0.035,-0.0065300004,-0.027465,0.035630003,1742111065.5394812,user_3
-0.03625,-0.015,0.08625,-0.030625,-0.047745,-0.0105275,-0.01875,0.00125,0.0125,0.0122225,0.036377497,-0.0634775,1742111065.649036,user_3
-0.02125,-0.02375,0.13625,-0.0143575,-0.0012825,0.00171,-0.07625,-0.155,-0.1525,-0.0134575,-0.03476,0.0358725,1742111065.762914,user_3
-0.0025,-0.015,0.11375,-0.0039224997,0.009002499,-0.0020299999,0.065,0.08,0.05625,-0.0039825,0.0030675002,0.0130475,1742111065.8790169,user_3
-0.0275,-0.07125,0.15625,0.0347125,-0.0007475,0.0051875,-0.15375,-0.22125,-0.3125,0.0290675,0.014435001,-0.0080725,1742111065.9982631,user_3
-0.01,-0.01,0.1125,0.0034025,0.018662501,0.0009,0.0025,-0.02375,-0.01875,-0.009475,-0.02623,0.0435475,1742111066.104758,user_3
-0.055,-0.00125,0.16125,-0.026855,-0.0313575,-0.0133975,-0.07,-0.04625,-0.03125,0.0087425,0.0355825,-0.067535006,1742111066.219635,user_3
-0.02625,-0.01625,0.13,-0.0080725,0.0054625003,0.0020150002,-0.06125,-0.13125,-0.11625,-0.0115825,-0.031432502,0.046645,1742111066.3391411,user_3
-0.00375,-0.01,0.11625,-0.002305,0.0063325,-0.00058,0.07125,0.0725,0.03,-0.0060725003,0.008315,0.008195,1742111066.446947,user_3
-0.03375,-0.03625,0.1525,0.030762501,0.0022725,0.0039975,-0.16375,-0.2825,-0.27375,0.00911,0.014527501,-0.009155,1742111066.560749,user_3
-0.0125,-0.01375,0.11375,0.004975,0.01036,0.0046075,-0.00125,-0.02,-0.02875,-0.0064850003,-0.02089,0.0481875,1742111066.679849,user_3
-0.01375,-0.00625,0.08875,-0.0033875,-0.035492502,-0.0061500003,-0.03875,-0.03375,-0.0125,0.01062,0.0281075,-0.0629875,1742111066.789058,user_3
-0.0225,-0.025,0.12375,-0.0081475,0.00537,-0.0016775,-0.0675,-0.17,-0.14375,-0.00859,-0.027115,0.040985,1742111066.9029188,user_3
-0.01125,-0.01625,0.1175,-0.0015575,0.0041199997,0.0009,0.06,0.05,0.01,-0.0009,0.0043325,-0.0024575,1742111067.019501,user_3
-0.02625,-0.02625,0.14,0.0228575,0.0054775,0.0029749998,-0.1525,-0.27875,-0.25,0.00789,0.0134275,-0.026014999,1742111067.1395671,user_3
-0.015,-0.01875,0.115,0.0024575,0.009415,0.0028375,-0.0075,-0.0375,-0.0425,-0.009734999,-0.0243525,0.0493,1742111067.244771,user_3
-0.00125,-0.00875,0.07375,-0.00087,-0.038634997,-0.00644,0.0075,0.01375,0.00625,0.0054475004,0.01912,-0.0714875,1742111067.359222,user_3
-0.0175,-0.02125,0.12125,-0.0075375,0.0075225,-0.0033575,-0.05875,-0.155,-0.1275,-0.013015,-0.02269,0.033005003,1742111067.472922,user_3
-0.0,-0.015,0.115,0.00116,0.008042499,-0.008575,0.0575,0.055,0.01,0.0041799997,-0.00035,0.000855,1742111067.586831,user_3
-0.01,-0.025,0.13625,0.0148475,0.0028074998,0.00045750002,-0.14,-0.30875,-0.25625,0.0038599998,0.0107425,-0.0068200002,1742111067.700764,user_3
-0.005,-0.02,0.11875,0.001435,0.0052175,0.0018300001,0.00875,-0.05,-0.03375,-0.0072775004,-0.027465,0.04576,1742111067.819583,user_3
0.02125,-0.01625,0.07,0.0054175,-0.02028,4.5e-05,0.01875,-0.00375,0.0275,0.0117025,0.0287025,-0.0522925,1742111067.928737,user_3
-0.01125,-0.025,0.125,-0.0042725,0.0025625,0.00045750002,-0.0425,-0.13375,-0.17375,-0.0071875,-0.0086375,0.0260625,1742111068.042851,user_3
-0.00625,-0.01875,0.1175,-0.0007625,0.0022125002,0.00055,0.04,-0.005,0.0075,0.00331,-0.0071575,0.0101025,1742111068.159295,user_3
-0.01,-0.0075,0.13375,-0.0008075,0.005875,-0.001145,-0.0775,-0.16875,-0.19625,0.0090475,0.03711,-0.035705,1742111068.2800488,user_3
-0.00625,-0.02125,0.11625,0.001725,0.0049125,0.0012675,-0.015,-0.0675,-0.04,-0.0121,-0.0320425,0.0345775,1742111068.384672,user_3
0.01625,-0.005,0.03625,0.00151,-0.045165002,-0.0051875,0.02375,0.0025,0.05125,0.00644,0.03354,-0.03769,1742111068.499671,user_3
-0.02375,-0.02375,0.1225,-0.0092,0.00525,0.0003975,-0.03875,-0.17125,-0.1775,-0.01381,-0.02504,0.0145725,1742111068.6204531,user_3
-0.01125,-0.0175,0.115,-0.00125,0.0018,0.00079250004,0.03875,0.00125,0.00875,-0.00148,-7.75e-05,0.0099475,1742111068.72678,user_3
-0.0275,-0.0225,0.135,0.0084224995,0.0030525,0.0010525,-0.1,-0.28625,-0.2575,0.0044699996,0.0151375,-0.02533,1742111068.840831,user_3
-0.0175,-0.0225,0.11625,0.0007025,0.0051875,0.0001375,0.0025,-0.04125,-0.0275,-0.0101325,-0.0263825,0.04245,1742111068.963507,user_3
0.00125,-0.015,0.06125,0.00235,-0.033217497,0.0012050001,-0.00125,-0.03875,0.0225,0.010865,0.029327499,-0.04602,1742111069.0687842,user_3
-0.01875,-0.01875,0.1175,-0.00508,0.00612,-0.00064,-0.0325,-0.135,-0.18125,-0.0039224997,-0.029755,0.0225225,1742111069.182878,user_3
-0.00875,-0.02125,0.1175,-7.75e-05,0.00473,-0.0004125,0.04375,0.00375,0.0225,-0.0009775,-0.0016475001,0.0155475,1742111069.300431,user_3
-0.03,-0.0275,0.15375,0.0136575,0.021775,-0.0040749996,-0.08625,-0.2125,-0.25375,0.0033425,0.0242775,-0.02011,1742111069.410816,user_3
0.0025,-0.02125,0.105,0.00435,0.0069575,0.00496,-0.01625,-0.08,-0.06125,-0.0062725,-0.025345,0.0287625,1742111069.524611,user_3
-0.02125,-0.0225,0.14875,-0.0024100002,-0.031845,-0.0041799997,0.00625,-0.0175,-0.0,0.001145,0.027985001,-0.03337,1742111069.6407402,user_3
-0.0125,-0.02625,0.11625,-0.0027,0.0025475,0.001465,-0.04375,-0.14,-0.15625,-0.0028074998,-0.029815001,0.0143125,1742111069.7599769,user_3
-0.00625,-0.0175,0.12375,7.75e-05,0.00508,0.0009625,0.05125,-0.0025,0.02125,0.0047600004,-0.007005,0.010605,1742111069.866737,user_3
-0.02,-0.0425,0.13875,0.0168925,0.00525,0.0042725,-0.09875,-0.19875,-0.28375,0.0054025003,0.03035,-0.0135200005,1742111069.984488,user_3
-0.00875,-0.02125,0.11875,0.00293,0.0069875,0.0021675,-0.0025,-0.05,-0.0525,-0.0127575,-0.02826,0.0293575,1742111070.10065,user_3
-0.0275,-0.0075,0.165,-0.0119775,-0.019272499,-0.0027,-0.02,-0.03875,-0.02125,-0.0048825,0.035095003,-0.036225,1742111070.207982,user_3
-0.0175,-0.02125,0.115,-0.00052,0.006255,0.00087,-0.0375,-0.1325,-0.10875,-0.0024425,-0.0419625,0.019272499,1742111070.321791,user_3
-0.00875,-0.02375,0.10125,-0.00058,0.000945,0.000565,0.04375,-0.0175,0.03,0.0042875,0.009095,-0.0063024997,1742111070.44265,user_3
-0.0275,-0.03875,0.13375,0.0010675,0.005935,0.00084,-0.08375,-0.1675,-0.285,0.0018150001,0.0021525,0.0022725,1742111070.549842,user_3
-0.01125,-0.0225,0.1175,4.5e-05,0.0036,0.001115,0.01375,-0.05,-0.0225,-0.0076,-0.016692499,0.033997502,1742111070.6637251,user_3
-0.025,-0.01875,0.16875,-0.0145725,-0.01381,-0.0055075004,-0.04625,-0.04125,-0.09375,0.0065450002,0.04097,-0.0505975,1742111070.780551,user_3
-0.01875,-0.01875,0.11375,0.00059500005,0.0033575,0.0039224997,-0.0575,-0.14875,-0.12875,-0.007905,-0.032395,0.025954999,1742111070.901314,user_3
-0.01,-0.01625,0.12625,-0.001145,0.00531,-0.0019225,0.05125,0.01125,0.035,-0.005065,-0.00998,0.0157775,1742111071.005804,user_3
-0.015,-0.015,0.13,0.003815,0.008895,-0.001145,-0.1075,-0.2,-0.28375,0.0239875,0.044875,-0.0452575,1742111071.12145,user_3
-0.01375,-0.0175,0.12,0.002365,0.0062875,0.00319,-0.04375,-0.125,-0.04875,-0.02394,-0.03325,0.0416575,1742111071.2396889,user_3
0.0175,-0.0375,0.0575,0.000275,-0.0025775002,-0.00084,0.0325,-0.01625,0.02875,0.0068675,0.024657499,-0.015365,1742111071.347726,user_3
-0.0275,-0.04375,0.13625,-0.00125,0.008712499,0.00125,-0.095,-0.1675,-0.2425,-0.00348,-0.00946,0.00409,1742111071.464148,user_3
-0.0075,-0.02,0.11375,0.000535,0.003525,0.00091500004,0.01375,-0.05125,0.015,-0.0133525,-0.0202625,0.03093,1742111071.581121,user_3
-0.02375,-0.0175,0.11875,-0.0071575,-0.031967502,-0.00554,-0.01,-0.02875,-0.035,0.013152501,0.04123,-0.032135,1742111071.689923,user_3
-0.01875,-0.0275,0.11375,-0.0069875,0.005065,0.0013725,-0.05375,-0.1525,-0.155,-0.00734,-0.02806,0.013215,1742111071.803718,user_3
-0.0125,-0.0175,0.1225,-0.000885,0.002,-0.0010675,0.025,-0.04375,-0.0175,-0.0086199995,-0.014985,0.0251775,1742111071.9226508,user_3
-0.0275,-0.03125,0.11625,-0.0113075,-0.0295875,-0.0051725,-0.02125,-0.02375,-0.025,0.0119325,0.036544997,-0.0514375,1742111072.041366,user_3
-0.0175,-0.0175,0.11875,-0.0043025,0.0024575,0.001755,-0.05125,-0.16,-0.14,-0.0074,-0.02823,0.02353,1742111072.145728,user_3
-0.00625,-0.02,0.11625,-0.000245,0.0022274998,-0.0013425,0.05,-0.005,-0.0,-0.0038,-0.00389,0.021317499,1742111072.2610629,user_3
-0.01375,-0.00375,0.14375,-0.01091,0.00711,-0.0042275,-0.06875,-0.09625,-0.125,0.014755,0.0326225,-0.06775,1742111072.3807418,user_3
-0.01125,-0.01875,0.1175,0.0016925,0.003845,0.003525,-0.02875,-0.11,-0.075,-0.0101475,-0.032075,0.0381775,1742111072.48773,user_3
-0.0075,-0.02,0.12375,0.000825,0.002625,-0.000275,0.06,-0.0125,0.0175,-0.0007775,0.00377,0.0001525,1742111072.60205,user_3
-0.02,-0.015,0.14125,0.0109250005,0.0083775,-0.000855,-0.095,-0.23625,-0.21125,0.0337225,0.0292825,-0.05133,1742111072.721452,user_3
-0.0125,-0.0225,0.1175,0.0024875,0.00377,0.00348,-0.02375,-0.08625,-0.05375,-0.01506,-0.028732501,0.0375225,1742111072.829712,user_3
-0.01125,-0.02125,0.1275,0.00122,0.00508,-0.0010525,0.065,-0.00125,0.0275,0.003555,0.00537,0.0016175,1742111072.943666,user_3
-0.0325,-0.02625,0.14875,0.023605,0.00966,0.0010225,-0.14,-0.31,-0.29375,0.030655,0.035125,-0.05429,1742111073.06161,user_3
-0.01125,-0.0175,0.1125,0.0037375,0.008315,0.0039224997,-0.02125,-0.08875,-0.045,-0.011367501,-0.0252675,0.041595,1742111073.1818082,user_3
-0.0075,-0.025,0.12875,-3e-05,0.0060575,-0.001725,0.05375,-0.00875,-0.0,-0.00064,0.0112,0.0090625,1742111073.2859368,user_3
-0.0175,-0.0375,0.1325,0.0207225,0.00978,0.0031125,-0.12875,-0.33875,-0.1875,0.0119325,-4.5e-05,-0.0431825,1742111073.402605,user_3
-0.0125,-0.0175,0.1275,0.0034025,0.0054475004,0.0031424998,-0.01125,-0.05875,-0.08,-0.02118,-0.0208275,0.050385,1742111073.5216498,user_3
0.0075,-0.0225,0.04875,0.0084375,-0.0069274995,-0.0009775,0.0575,0.05,0.03375,0.0033275,-0.00048750002,-0.045335,1742111073.627747,user_3
-0.025,-0.045,0.13375,0.0039825,-0.000245,0.0022574998,-0.095,-0.2275,-0.27625,0.01007,0.018477501,0.022125,1742111073.74225,user_3
-0.0175,-0.025,0.12375,0.0004125,0.005065,0.0001825,0.01625,-0.04125,-0.005,-0.01509,-0.015029999,0.038285,1742111073.861606,user_3
0.01625,-0.01125,0.02625,0.001495,-0.043045,-0.00528,0.01375,0.00375,0.0,-0.0016625,0.0299675,-0.0470725,1742111073.969663,user_3
-0.0225,-0.0325,0.1175,-0.0064250003,0.0066225,0.001755,-0.055,-0.205,-0.14375,-0.012375,-0.0222025,0.0275275,1742111074.083827,user_3
-0.00875,-0.02125,0.1175,-0.000305,0.002655,-0.00052,0.0425,0.00125,-0.00625,-0.0015725,-0.0023800002,0.043945,1742111074.201942,user_3
-0.01125,-0.01,0.12875,-0.0107875,0.007935,-0.003005,-0.0925,-0.19,-0.16375,0.0262,0.0189975,-0.0839225,1742111074.322487,user_3
-0.01625,-0.01875,0.1225,0.0027925,0.001405,0.0031275,-0.055,-0.11125,-0.10875,-0.028672501,-0.030257499,0.06633,1742111074.425688,user_3
-0.0125,-0.0225,0.1225,0.0009625,0.0045775,-0.0020299999,0.1125,0.09125,0.06625,-0.00331,0.0004275,-0.0110775,1742111074.5429142,user_3
-0.02,-0.01125,0.14375,-0.004745,0.0047150003,-0.0033875,-0.15375,-0.1975,-0.16125,0.0715025,0.034682497,-0.09961,1742111074.66271,user_3
-0.02,-0.02625,0.12,0.002,0.0077975,0.0004125,-0.0325,-0.11,-0.085,-0.01677,-0.033265,0.05368,1742111074.767599,user_3
-0.00625,-0.02875,0.095,0.000655,0.0021825,-0.0006875,0.06125,0.04,0.0475,0.0038299998,0.012207501,-0.019745002,1742111074.8826828,user_3
-0.0375,-0.04625,0.13375,0.0151675,0.0031575,0.0049125,-0.1675,-0.36625,-0.27375,0.0063925,0.0068200002,-0.0012975,1742111075.002078,user_3
-0.02375,-0.03125,0.11375,0.0056775,0.0052175,0.00235,0.015,-0.015,-0.0325,-0.008117501,-0.0154875005,0.0553125,1742111075.109632,user_3
-0.00375,-0.01375,0.055,-0.020920001,-0.0325625,-0.0122825,-0.0,0.0425,-0.02625,0.00293,0.019012501,-0.07315,1742111075.223858,user_3
-0.04,-0.045,0.11875,0.005065,0.0044250004,0.00435,-0.1075,-0.22375,-0.15125,-0.0148475,-0.011185001,0.03534,1742111075.34262,user_3
-0.02375,-0.03375,0.115,0.002655,0.0089425,0.0012825,0.065,0.05625,-0.0075,-0.008195,-0.012802499,0.056245,1742111075.4516108,user_3
-0.0025,-0.03375,0.0725,-0.012925,-0.0202625,-0.0059975,-0.05875,-0.02625,-0.005,0.0187075,0.0254975,-0.090592496,1742111075.565867,user_3
-0.02625,-0.045,0.11625,0.005935,0.0063475,0.00499,-0.07375,-0.19125,-0.1325,-0.006775,-0.0178075,0.0390625,1742111075.683554,user_3
-0.0175,-0.035,0.1175,0.00035,0.0090325,-0.00091500004,0.065,0.02625,-0.01,-0.0019824998,-0.0087425,0.0240775,1742111075.803587,user_3
-0.02625,0.00125,0.16375,-0.0238025,-0.0098425,-0.00911,-0.10875,-0.10125,-0.07125,0.022049999,0.0288075,-0.089935,1742111075.907777,user_3
-0.02,-0.0325,0.11375,-0.0034625002,0.000365,-0.0005025,-0.0425,-0.11875,-0.09,-0.0139625,-0.0227975,0.0526125,1742111076.0233018,user_3
-0.015,-0.01625,0.12,-0.01445,0.0039375,-0.00731,0.07,0.0475,0.00875,0.002135,-0.0013725,-0.0101475,1742111076.14358,user_3
-0.03625,-0.02625,0.14,0.024139998,0.007005,0.0058899997,-0.15,-0.36625,-0.23375,0.0173175,0.027055,-0.043732498,1742111076.249603,user_3
-0.0225,-0.01125,0.11875,0.0007175,0.008239999,0.002365,-0.00375,-0.03875,-0.04875,-0.011445,-0.0229025,0.041535,1742111076.363618,user_3
-0.00125,-0.0025,0.04875,0.0101325,-0.0414725,-0.0025775002,0.0225,0.01,0.01625,0.004365,0.012984999,-0.036009997,1742111076.487356,user_3
-0.03375,-0.03875,0.13125,-0.002595,0.01274,0.0014500001,-0.08625,-0.20875,-0.14875,0.003205,-0.014587499,0.01204,1742111076.60383,user_3
-0.015,-0.0175,0.11875,0.0047600004,0.0072475,0.0021975,0.01125,-0.06,-0.05125,-0.0053875,-0.0114125,0.0461275,1742111076.70561,user_3
0.02375,-0.0125,0.005,0.0148925,-0.0287025,-0.00177,0.04375,0.08375,0.01875,0.0068825004,0.0074925,-0.0612325,1742111076.8241432,user_3
-0.0275,-0.0275,0.14,0.0010075001,0.0027474998,0.0022274998,-0.1075,-0.24,-0.15,-0.0112,0.001115,0.0249625,1742111076.945791,user_3
-0.01125,-0.02375,0.11875,0.0013125,0.004105,0.000305,0.0325,-0.00375,-0.0275,-0.0031575,-0.008407501,0.054672502,1742111077.047609,user_3
-0.02375,-0.03375,0.1825,-0.018082501,-0.0044250004,-0.0016775,-0.065,-0.0225,-0.04,0.028535,0.0177775,-0.108825,1742111077.163719,user_3
-0.01875,-0.02375,0.11625,0.000655,0.00534,0.001435,-0.0525,-0.16375,-0.08875,-0.0234525,-0.005585,0.06038,1742111077.283604,user_3
-0.00625,-0.02125,0.1175,-0.00035,0.0022574998,7.75e-05,0.0625,0.055,-0.01375,-0.004485,-0.0020899998,-0.0013725,1742111077.3897228,user_3
-0.01875,-0.02625,0.13125,0.01384,-0.0001225,0.0013875001,-0.13375,-0.3575,-0.1175,0.011825,6e-05,-0.0497275,1742111077.5036402,user_3
-0.0175,-0.01875,0.12125,0.003845,0.0012050001,0.0019824998,-0.02,-0.08625,-0.055,-0.015975,-0.0106975,0.056855,1742111077.623441,user_3
-0.00875,-0.035,0.0875,-0.0007775,-0.005065,-0.0013425,0.055,0.04625,0.02625,-0.0069575,-0.0024875,-0.0467975,1742111077.743347,user_3
-0.0325,-0.0375,0.13125,0.0050500003,0.0069125,0.0016775,-0.12125,-0.315,-0.135,0.0051875,0.0034325,0.0113975,1742111077.845609,user_3
-0.01875,-0.02375,0.11875,0.0018475,0.0077825,-0.0007775,0.02125,-0.0275,-0.005,0.00856,-0.0040275003,0.05336,1742111077.9659631,user_3
-0.03125,0.00625,0.185,-0.0299225,-0.016844999,-0.00882,-0.07625,-0.05625,-0.06875,0.024627501,0.0031575,-0.085067496,1742111078.083598,user_3
-0.02375,-0.02375,0.11,-0.0003825,0.0018300001,0.0028074998,-0.06625,-0.1875,-0.07,-0.0063625,-0.0036925,0.0487825,1742111078.187673,user_3
-0.00875,-0.02375,0.11625,-0.00035,0.00064,0.00048750002,0.055,0.0725,-0.02625,-0.009475,0.006775,0.0052175,1742111078.303558,user_3
-0.03375,-0.04625,0.13375,0.01422,0.012375,0.0042875,-0.1525,-0.3375,-0.09875,0.00048750002,-0.00232,-0.018280001,1742111078.4243891,user_3
-0.01625,-0.0225,0.12,0.004135,0.006255,0.0028375,-0.005,-0.05875,-0.06125,-0.0059825,-0.00328,0.0517125,1742111078.5295308,user_3
-0.00125,-0.0275,0.06875,0.0068200002,-0.032075,-0.0029749998,0.02,-0.0125,0.005,0.0009925,0.0014500001,-0.041015,1742111078.643753,user_3
-0.02,-0.03375,0.115,-0.00708,0.0046225,0.0001975,-0.055,-0.22,-0.14125,-0.0028675,-0.0095975,0.022979999,1742111078.762802,user_3
-0.0125,-0.02125,0.115,-0.000535,0.0026099999,-0.00055,0.04625,0.0275,0.0175,0.0103,-0.0210125,0.018875,1742111078.882942,user_3
-0.04125,-0.02875,0.1475,0.00685,0.0110625,0.00033500002,-0.09375,-0.31375,-0.16125,0.0098575,0.03122,-0.036330003,1742111078.98701,user_3
-0.01875,-0.02125,0.115,0.0040749996,0.0045025,0.001785,-0.01875,-0.1025,-0.03625,-0.0111075,-0.019745002,0.05185,1742111079.10388,user_3
0.00125,-0.01375,0.0125,-0.0057975003,-0.0310675,-0.002135,0.01625,0.04375,0.0175,0.0044400003,0.014557499,-0.041625,1742111079.223572,user_3
-0.03125,-0.03625,0.115,-0.0023800002,0.008895,0.004485,-0.07375,-0.25,-0.1175,-0.0076149995,-0.0130625,0.018905,1742111079.3276532,user_3
-0.02,-0.025,0.12,0.003845,0.008575,0.0007025,0.03125,-0.0175,-0.02,-0.0012675,-0.0074775,0.038255002,1742111079.445525,user_3
-0.035,-0.02875,0.19375,-0.031600002,-0.0210725,-0.010314999,-0.04125,-0.01625,-0.0425,-0.009155,0.020295,-0.0717,1742111079.5632918,user_3
-0.02875,-0.02375,0.1075,-0.0004725,0.0024875,0.00525,-0.0625,-0.2125,-0.07875,-0.009415,-0.0109875,0.047515,1742111079.6697202,user_3
-0.0175,-0.02375,0.11875,-0.0010975,0.0032650002,-0.00174,0.0625,0.035,-0.01,-0.00331,0.0018475,0.0391225,1742111079.783725,user_3
-0.0375,-0.015,0.155,-0.0117025,0.0089425,-0.0025775002,-0.115,-0.19,-0.06125,0.0045625,0.00528,-0.092544995,1742111079.903423,user_3
-0.02,-0.01875,0.11375,0.00087,0.0030375,0.0026099999,-0.05125,-0.1375,-0.04125,-0.0086675,0.0024249998,0.063615,1742111080.0228438,user_3
-0.0175,-0.025,0.12125,-0.0010375,0.0033725,-0.002045,0.08,0.10125,-0.04,-0.013564999,0.010255001,-0.016617501,1742111080.1257448,user_3
-0.03875,-0.0575,0.13375,0.021850001,0.017012501,0.003205,-0.2275,-0.3975,-0.0325,0.00061,-0.0012050001,-0.0116125,1742111080.2437491,user_3
-0.01625,-0.02,0.11375,0.0057525,0.0048525,0.0033725,-0.01,-0.0825,-0.08,0.021652501,-0.0010075001,0.061950002,1742111080.3623848,user_3
-0.015,-0.03125,0.11625,0.0001975,0.0095675,-0.00322,0.055,0.06,-0.015,0.0072025,-0.0105125,-0.044785,1742111080.467618,user_3
-0.04125,-0.0625,0.1425,0.0195,0.009262499,0.00389,-0.1725,-0.34875,-0.13,0.0060575,0.010452501,-0.0078125,1742111080.583101,user_3
-0.0175,-0.02,0.115,0.0054625003,0.0086525,0.0024875,0.00125,-0.0425,-0.04125,-0.008285,-0.00377,0.055755,1742111080.703134,user_3
-0.045,-0.0325,0.13625,-0.0202175,-0.0743725,-0.0094,0.02625,0.04625,-0.0275,0.0025025,0.0009775,-0.06569,1742111080.809726,user_3
-0.0275,-0.03125,0.10875,-0.0018925001,0.0130475,0.0034625002,-0.09875,-0.25625,-0.09375,-0.018662501,-0.0041799997,0.0267325,1742111080.924117,user_3
-0.0075,-0.02,0.12,-0.000535,0.0140525,-0.0031575,0.0475,0.03125,-0.035,-0.0025025,0.0033275,0.0514375,1742111081.042955,user_3
-0.03625,0.0425,0.18125,0.0119475005,0.00702,0.0001825,-0.07125,-0.065,-0.02,0.009292499,-0.022002501,-0.0824725,1742111081.162831,user_3
-0.01625,-0.01125,0.10875,0.0018925001,0.0042125,0.0050975,-0.03625,-0.13875,-0.06625,-0.00148,0.0039525,0.049285,1742111081.264469,user_3
-0.01,-0.02625,0.125,0.00016750001,-0.0004125,0.00177,0.08,0.0425,-0.0175,-0.015685,0.0080875,0.005035,1742111081.382588,user_3
-0.03,-0.0175,0.1475,-0.00091500004,0.0137325,1.5e-05,-0.10875,-0.22625,-0.02125,0.020295,-0.0110025,-0.064025,1742111081.501844,user_3
-0.015,-0.0225,0.115,0.002395,0.00734,0.002595,-0.01875,-0.105,-0.05375,0.0023800002,0.0007475,0.0528575,1742111081.606477,user_3
0.005,-0.0375,0.0675,0.003175,-0.009095,0.0021975,0.06125,0.035,-0.0125,-0.0098125,0.0036,-0.0150150005,1742111081.7233338,user_3
-0.03625,-0.04875,0.1375,0.0104674995,0.0110775,0.0020150002,-0.11875,-0.30125,-0.13875,0.0190275,0.008605,-0.01001,1742111081.8425338,user_3
-0.01375,-0.0225,0.11875,0.0056775,0.0069724997,0.0033425,0.00625,-0.055,-0.0275,-0.007905,-0.0039825,0.05104,1742111081.948447,user_3
-0.00375,-0.0075,0.01375,-0.0148625,-0.059495,-0.009872501,0.0425,0.0475,-0.0075,-0.00685,0.00055,-0.060195,1742111082.063251,user_3
-0.02375,-0.03,0.115,-0.0057675,0.0081475,0.00531,-0.06125,-0.24375,-0.09,0.0060125,-0.0048825,0.0134425005,1742111082.18285,user_3
-0.01,-0.02125,0.12,-0.00125,0.007065,-0.00079250004,0.02875,-0.0325,-0.025,0.00325,-0.0027925,0.0419625,1742111082.3025742,user_3
-0.02625,-0.02,0.0825,-0.021652501,-0.0594025,-0.0115975,-0.0075,0.01,-0.0225,-0.0016025,-0.0043325,-0.075317495,1742111082.4046988,user_3
-0.0175,-0.02375,0.10875,-0.0037375,0.0028225,0.0037375,-0.07125,-0.2475,-0.06375,-0.00499,-0.0045025,0.04425,1742111082.522783,user_3
-0.00625,-0.0225,0.12,-0.0019675,0.00389,-0.0010225,0.04375,-0.0075,-0.0275,-0.0024249998,0.0042125,0.039977502,1742111082.643326,user_3
-0.02625,-0.0375,0.17875,-0.0205225,-0.045685,-0.0122675,-0.03875,-0.02375,-0.04375,0.0016475001,-0.0069125,-0.08345,1742111082.746791,user_3
-0.0225,-0.02375,0.115,-0.00045750002,0.00113,0.0041199997,-0.06,-0.2075,-0.0525,-0.0020150002,-0.0016175,0.0502625,1742111082.862659,user_3
-0.00875,-0.02125,0.12,-0.0004125,0.0072175004,-0.001405,0.0625,0.02625,-0.03125,-0.0101175,0.0066225,0.017424999,1742111082.9866922,user_3
-0.0225,-0.0175,0.15375,-0.001785,0.0143275,-0.0015725,-0.11375,-0.26375,-0.06625,0.0229025,-0.011367501,-0.07547,1742111083.088587,user_3
-0.01,-0.01875,0.11125,0.0030675002,0.0042575,0.0043175,-0.0425,-0.1175,-0.0475,-0.0121,0.0008075,0.059584998,1742111083.20326,user_3
-0.00875,-0.02875,0.125,-0.0004125,0.003845,-0.0012050001,0.06375,0.05625,-0.02875,-0.0013725,0.0007325,-0.014375,1742111083.322936,user_3
-0.02875,-0.04625,0.135,0.0130925,0.0076599997,0.0030825,-0.1475,-0.35625,-0.1075,0.0113525,0.0066075,-0.0045324997,1742111083.430387,user_3
-0.01125,-0.02,0.11625,0.0019225,0.003205,0.002685,0.0075,-0.055,-0.05,-0.0016775,-0.00673,0.05252,1742111083.544357,user_3
0.02,-0.01875,0.04125,0.0009925,-0.018235,-0.0021525,0.025,0.00875,-0.00625,-0.0044549997,-0.0007775,-0.061065,1742111083.663124,user_3
-0.01875,-0.04,0.12375,-0.0038599998,0.0051424997,0.00171,-0.085,-0.25125,-0.1275,0.0045625,0.009582501,0.019395001,1742111083.783006,user_3
-0.01375,-0.0225,0.1225,-6e-05,0.0018625,0.000625,0.04625,0.0125,-0.02375,-0.021285,-0.0225225,0.046067502,1742111083.8854568,user_3
0.00375,-0.0175,0.065,0.009262499,-0.01384,-0.0016925,0.00375,-0.02125,0.0275,-0.0311575,0.00946,-0.054535,1742111084.002498,user_3
-0.0125,-0.025,0.12,0.0010975,0.0023800002,0.0007025,-0.0575,-0.26125,0.015,0.01007,-0.0178225,0.0174725,1742111084.1231182,user_3
-0.0075,-0.0275,0.12,0.000245,0.007005,-0.00033500002,0.06125,0.01375,0.01,0.0141,0.0074299998,0.0201425,1742111084.227456,user_3
-0.01625,-0.025,0.17,-0.021575,-0.015275,-0.0074475002,-0.03125,-0.0675,-0.01875,0.02626,0.00351,-0.0729075,1742111084.343047,user_3
-0.01625,-0.02875,0.1175,0.001235,0.0028225,0.0024249998,-0.035,-0.18625,-0.07125,-0.010345,-0.0165875,0.03325,1742111084.466055,user_3
-0.005,-0.02125,0.12125,-0.0007175,0.0034475,-0.0001825,0.04125,-0.01125,0.00625,-0.0169225,0.007415,0.016097499,1742111084.569602,user_3
-0.02125,-0.02125,0.12875,-0.0033725,0.01004,-0.00357,-0.06125,-0.2375,-0.04875,0.0114899995,-0.0001225,-0.0473175,1742111084.683616,user_3
-0.0125,-0.0225,0.1225,0.00177,0.005905,0.0029749998,-0.03375,-0.12875,-0.01125,-0.026870001,0.0155475,0.0579675,1742111084.802871,user_3
0.0025,-0.0275,0.1025,0.0004275,0.0081025,-0.001235,0.08,0.0425,-0.07,0.0048975,-0.00708,-0.0329425,1742111084.911505,user_3
-0.02875,-0.04875,0.13625,0.01332,0.0042125,0.0043175,-0.155,-0.38125,0.04375,0.0099475,-0.0031575,-0.009902501,1742111085.025528,user_3
-0.0125,-0.0175,0.1225,0.0041799997,0.00789,0.0022274998,0.0125,-0.06125,-0.02125,0.0051424997,0.0062725,0.045135,1742111085.1432362,user_3
0.03125,-0.0125,-0.01125,0.00737,-0.0133825,-0.00322,0.05375,0.0175,-0.0175,-0.0074775,-0.0064850003,-0.04715,1742111085.262431,user_3
-0.03,-0.05375,0.1375,0.0031125,0.0101475,0.0045324997,-0.055,-0.25875,-0.095,0.025315,0.0010225,-0.006455,1742111085.367432,user_3
-0.0075,-0.02375,0.12,4.5e-05,0.0134575,-0.00122,0.04125,-0.0125,-0.01875,0.0075675,-0.0118725,0.03061,1742111085.4866948,user_3
-0.04375,0.02875,0.18875,-0.015565,-0.0094449995,-0.0087275,-0.01125,-0.05375,0.00875,-0.0105275,0.015625,-0.0637825,1742111085.602667,user_3
-0.01875,-0.0175,0.1075,-0.000305,0.0065,0.0024249998,-0.0475,-0.17125,-0.06625,-0.0092175,-0.00911,0.03244,1742111085.709534,user_3
-0.01125,-0.0175,0.12625,3e-05,0.0096275,-0.0018625,0.05375,-0.00625,-0.00375,0.000107500004,0.00035,0.0263825,1742111085.8234382,user_3
-0.055,0.01875,0.18375,0.0142525,0.0052024997,-0.0025625,-0.06625,-0.13375,-0.05,0.01007,0.01471,-0.069625,1742111085.944875,user_3
-0.01375,-0.01625,0.10375,0.002365,0.0063475,0.0037525,-0.045,-0.14125,-0.0525,-0.0069274995,-0.001175,0.0461575,1742111086.062378,user_3
-0.01,-0.02,0.12875,-0.000245,0.0102375,-0.002395,0.0575,0.045,-0.03375,-0.0101775,0.00679,0.01619,1742111086.165513,user_3
-0.02375,-0.04625,0.1275,0.0193025,0.0078125,0.0048225,-0.145,-0.36125,-0.08375,0.015915,-0.0037850002,-0.03444,1742111086.2831628,user_3
-0.0125,-0.02125,0.11625,0.00148,0.0009925,-0.00029,-0.0325,-0.09875,-0.04,-0.0056,0.0014500001,0.06044,1742111086.402893,user_3
-0.015,-0.02375,0.1275,0.0003825,0.01062,-0.00377,0.08375,0.07,-0.025,-0.004395,-0.0029449998,-0.037795,1742111086.507448,user_3
-0.02375,-0.03375,0.1325,0.0081475,4.5e-05,0.0030825,-0.14625,-0.38625,-0.07875,0.0184025,0.0041199997,-0.0193775,1742111086.623117,user_3
-0.01375,-0.0225,0.11875,-4.5e-05,0.008255,-0.0018,0.02625,-0.05,-0.03875,0.0092775,-0.0065925,0.0460825,1742111086.742369,user_3
-0.02875,-0.03125,0.105,0.0069724997,-0.0528875,-0.00583,0.025,0.01125,0.0,-0.008315,-0.001435,-0.056595,1742111086.849531,user_3
-0.02125,-0.03,0.11875,-0.0042425,0.0113375,0.0033425,-0.055,-0.23125,-0.0975,0.0034325,-0.006455,0.026137501,1742111086.965609,user_3
-0.00875,-0.02,0.1225,-4.5e-05,0.005355,-0.0006725,0.0375,-0.03125,-0.02625,-0.002305,-0.004105,0.031205,1742111087.082944,user_3
-0.025,-0.01,0.175,-0.01976,-0.0022725,-0.0054925,-0.05125,-0.0675,-0.04875,-0.0061950004,0.01004,-0.0667125,1742111087.202213,user_3
-0.02625,-0.01875,0.1125,0.0041199997,0.0015575,0.0043325,-0.06125,-0.19,-0.055,-0.0112,-0.00502,0.05153,1742111087.305363,user_3
-0.0175,-0.0225,0.125,-0.0003825,0.0103,-0.0024425,0.07875,0.025,-0.02,-0.0018,0.0028675,0.0397175,1742111087.423915,user_3
-0.02625,-0.04375,0.1775,-0.02095,0.003205,-0.0013275,-0.09,-0.09875,-0.05125,0.0039375,-0.0073249997,-0.1009225,1742111087.542227,user_3
-0.0175,-0.02625,0.11625,0.00058,0.006225,0.002335,-0.05875,-0.15875,-0.01875,-0.0163875,0.00972,0.06186,1742111087.647307,user_3
-0.0075,-0.02375,0.1225,1.5e-05,0.00946,-0.00052,0.09125,0.08375,-0.0475,0.0163425,0.00859,0.013885,1742111087.762281,user_3
-0.02,-0.02375,0.15375,0.0046225,0.0102075,-9.25e-05,-0.1375,-0.37375,-0.07125,0.0305625,-0.014695,-0.05954,1742111087.882001,user_3
-0.02,-0.0175,0.11875,0.0028375,0.0039375,0.0021975,-0.005,-0.0875,-0.06875,0.00714,-0.0124825,0.061537497,1742111087.9893498,user_3
0.025,-0.02,0.0325,0.009155,-0.015305,0.0001975,0.01875,-0.01125,0.02375,-0.0074,-0.0043175,-0.0375225,1742111088.103373,user_3
-0.03375,-0.04625,0.1325,0.0025775002,0.0037375,0.0016025,-0.06875,-0.24,-0.15375,0.013915,-0.003175,-0.0030675002,1742111088.222795,user_3
-0.02125,-0.0225,0.12,0.0010825,0.0072175004,-9.25e-05,0.01125,-0.07,-0.0225,0.004135,-0.0142525,0.0375975,1742111088.342129,user_3
-0.045,0.00375,0.155,-0.019072501,-0.0202175,-0.0066825,-0.03625,-0.04625,-0.0025,-0.0204925,0.037505,-0.06279,1742111088.445585,user_3
-0.02875,-0.01625,0.10375,0.0010975,0.0066975,0.0040125,-0.06625,-0.195,-0.0775,-0.010314999,-0.0134575,0.028944999,1742111088.5631082,user_3
-0.02375,-0.02125,0.12375,-0.0028525,0.008850001,-0.0028074998,0.04875,-0.0225,-0.01625,0.0364375,-0.0278325,0.032775,1742111088.6827872,user_3
-0.03125,-0.01,0.15,-0.000275,-0.00023,-0.001465,-0.0925,-0.11625,-0.05625,0.0018475,0.0473475,-0.071655,1742111088.7876549,user_3
-0.0275,-0.0175,0.11375,0.0039675,0.0069875,0.0020899998,-0.04375,-0.14375,-0.065,-0.00557,-0.0165875,0.049544998,1742111088.903104,user_3
-0.0125,-0.035,0.10125,0.0002125,0.0066525,-0.000855,0.06,0.0725,0.02625,0.0036775,-0.0046225,-0.001435,1742111089.022051,user_3
-0.03625,-0.04875,0.1375,0.01651,0.0095675,0.0060425,-0.15625,-0.37375,-0.15625,0.0128475,0.0016475001,-0.022782499,1742111089.12939,user_3
-0.02125,-0.02,0.11375,0.0047925,0.0098125,0.002655,-0.0075,-0.07125,-0.03125,0.005935,-0.0059499997,0.0588075,1742111089.24336,user_3
-0.0225,-0.02125,0.02375,-0.0178075,-0.056197498,-0.00435,0.04,0.0625,-0.015,-0.0187075,0.0160375,-0.05606,1742111089.361812,user_3
-0.02875,-0.035,0.1225,-0.0048375,0.0072025,0.0024100002,-0.09625,-0.3025,-0.075,-0.0113075,-0.0049125,0.0216825,1742111089.471447,user_3
-0.015,-0.02625,0.11875,0.000855,0.0083625,0.000305,0.0425,0.0,-0.02875,0.0131075,-0.005005,0.0511325,1742111089.585383,user_3
-0.02625,-0.02875,0.19375,-0.02565,-0.0068675,-0.007905,-0.04,-0.00625,-0.02,0.007005,0.0066525,-0.093735,1742111089.7028852,user_3
-0.01375,-0.02125,0.11,0.00045750002,0.003815,0.0042275,-0.0475,-0.17125,-0.07875,-0.0086975,-0.00949,0.04834,1742111089.822272,user_3
-0.0075,-0.0225,0.1225,-0.0027925,0.010162501,-0.0016175,0.07125,0.06875,-0.0225,0.00612,-0.0154125,0.042770002,1742111089.927592,user_3
-0.015,-0.015,0.15125,-0.0104075,0.005325,-0.0036925,-0.08125,-0.14125,-0.02875,0.0051125004,0.02365,-0.08046,1742111090.04285,user_3
-0.01,-0.0225,0.11625,0.0018,0.0081025,0.0020299999,-0.00875,-0.10625,-0.055,-0.0060725003,-0.0140525,0.050474998,1742111090.162643,user_3
0.0375,-0.01125,-0.01125,0.0072025,-0.03595,-0.0037525,0.06125,0.04625,0.0075,-0.017745001,0.0093225,-0.037415,1742111090.2694788,user_3
-0.02,-0.05125,0.13,-0.0019225,0.0125725,0.00299,-0.08875,-0.32,-0.1575,0.024430001,0.0027774998,-0.0025025,1742111090.383414,user_3
-0.00875,-0.0225,0.1175,-0.000245,0.0018475,0.0007475,0.02625,-0.04,-0.01875,0.00563,-0.0169225,0.048095003,1742111090.501419,user_3
-0.0425,-0.03,0.195,-0.0169225,-0.0267175,-0.002365,0.01875,0.00375,0.01,-0.0311125,0.0189825,-0.07753,1742111090.622598,user_3
-0.00875,-0.01625,0.10625,0.0022125002,0.0072475,0.0033425,-0.03,-0.21,-0.06,0.0090325,-0.010345,0.037965,1742111090.725333,user_3
-0.0025,-0.0175,0.12625,-0.0012975,0.0112,-0.0033275,0.06875,0.03375,-0.0125,0.016495,-0.0046550003,0.028825,1742111090.8424,user_3
-0.0275,-0.04,0.16375,0.01358,0.006515,0.0003975,-0.09875,-0.3175,-0.05375,-0.04245,0.0210875,-0.0679025,1742111090.953347,user_3
-0.00875,-0.0225,0.10375,0.00554,0.0047600004,0.0046075,-0.02125,-0.115,-0.025,0.0007625,-0.00232,0.0582125,1742111091.06735,user_3
-0.00375,-0.0225,0.12875,4.5e-05,0.0113975,-0.0045625,0.095,0.11,-0.02625,0.04013,-0.0090175,-0.0016175,1742111091.1828291,user_3
-0.01625,-0.02875,0.135,0.0098125,-0.000655,0.0020599999,-0.17,-0.4075,-0.1025,0.038772497,0.023192499,-0.068497494,1742111091.302635,user_3
-0.0175,-0.02125,0.12125,0.00322,0.0121925,-0.0009625,0.00125,-0.04,-0.02875,-0.00091500004,-0.0064075,0.046860002,1742111091.4093912,user_3
-0.03875,-0.03,0.0575,0.0013875001,-0.0729225,-0.010757499,0.0575,0.06625,-0.00375,-0.00325,0.0072775004,-0.05014,1742111091.523602,user_3
-0.0375,-0.04375,0.1325,0.0013575,0.015045,0.0045625,-0.08375,-0.28875,-0.08375,-0.0110625,-0.012375,0.016602501,1742111091.642592,user_3
-0.02,-0.0225,0.1175,0.003175,0.0095975,0.00064,0.00875,-0.0475,-0.01875,0.01114,-0.0013875001,0.0481425,1742111091.76173,user_3
-0.0525,-0.0025,0.13,-0.0272225,-0.052977502,-0.0204175,0.01375,0.05375,-0.05125,-0.02359,0.013335,-0.06958,1742111091.865621,user_3
-0.025,-0.02125,0.1125,-0.0015875,0.009675,0.00705,-0.07875,-0.25625,-0.00125,-0.01384,-0.0031424998,0.038345,1742111091.98611,user_3
-0.01125,-0.02375,0.12625,-0.002915,0.0107125,-0.0025775002,0.0375,-0.01,-0.025,0.014085,0.004395,0.04741,1742111092.1020951,user_3
-0.035,-0.03375,0.20375,-0.0202325,-0.00441,-0.007095,-0.05125,-0.04,-0.04375,-0.0325475,-0.0084525,-0.093352504,1742111092.207551,user_3
-0.02125,-0.01,0.115,0.00174,0.00612,0.00264,-0.05375,-0.1825,-0.00625,-0.0013725,0.01497,0.05159,1742111092.322377,user_3
-0.0075,-0.025,0.12,-0.0013875001,0.0083925,-0.0019675,0.0825,0.05875,-0.04125,0.0166325,0.0066975,0.02008,1742111092.444493,user_3
-0.03,-0.03875,0.15875,0.0141,0.0101775,0.0032650002,-0.1775,-0.40625,0.00375,-0.0005025,-0.018235,-0.058105,1742111092.549393,user_3
-0.00875,-0.02125,0.105,0.0020899998,0.009002499,0.0023800002,-0.015,-0.1025,-0.035,0.0045475,0.010055,0.051955003,1742111092.663209,user_3
0.03375,-0.00125,-0.0075,0.0122975,-0.03386,-0.0013125,0.06375,0.08,-0.04375,-0.00154,0.0001975,-0.0305175,1742111092.782568,user_3
-0.0325,-0.05,0.1425,-0.000275,0.012680001,0.0010075001,-0.1025,-0.3225,-0.0475,0.0028525,-0.0051875,-0.0142375,1742111092.902744,user_3
-0.0075,-0.025,0.1075,0.0007175,0.0044549997,0.0003975,-0.0075,-0.06375,-0.035,0.0094,0.0079499995,0.058029998,1742111093.005329,user_3
-0.0375,-0.045,0.185,-0.0124675,-0.056397498,-0.0139925005,0.0125,0.0375,-0.05875,-0.0092775,-0.008407501,-0.07306,1742111093.122907,user_3
-0.01625,-0.025,0.10875,-0.0044250004,0.0132,0.004105,-0.0725,-0.2375,-0.0425,-0.0076149995,0.00035,0.032365,1742111093.2427871,user_3
-0.02625,-0.00375,0.13875,0.0040125,0.0072175004,-0.0010075001,-0.00875,-0.05125,-0.04,-0.0044250004,-0.032075,0.030335,1742111205.17859,user_4
0.06625,-0.0125,-0.01375,0.016112499,-0.0528875,-0.00052,-0.00125,0.01625,0.0075,0.00525,0.026765,-0.0659625,1742111205.288405,user_4
-0.025,-0.0225,0.13375,-0.009965,0.0003975,-0.00174,-0.04875,-0.1225,-0.13375,-0.0119775,-0.025727501,0.0426475,1742111205.402408,user_4
-0.005,-0.02625,0.12,-0.003555,0.01474,-0.0044250004,0.07125,0.13375,0.0525,-0.0124975005,0.019455,-0.019012501,1742111205.51876,user_4
-0.0275,-0.0625,0.15625,0.04239,0.004395,0.0086675,-0.0725,-0.22875,-0.25,0.025375,0.004105,-0.00045750002,1742111205.630205,user_4
-0.0175,-0.015,0.1175,0.0025775002,0.0205525,0.0,0.03375,0.01375,0.01125,-0.0020299999,-0.0174875,0.0450125,1742111205.744202,user_4
-0.05,0.005,0.20375,-0.031127501,-0.02916,-0.01419,-0.12125,-0.2475,-0.1375,0.0062100003,0.0220175,-0.07376,1742111205.8596091,user_4
-0.035,-0.00625,0.13125,-0.0046550003,0.00949,0.00058,-0.02375,-0.0775,-0.05125,-0.005935,-0.0248425,0.045930002,1742111205.978569,user_4
0.03,-0.02125,0.01125,0.0045625,-0.021147499,0.0019375,0.05625,0.0625,0.015,0.0059499997,0.021270001,-0.0569775,1742111206.0861282,user_4
-0.04,-0.04125,0.1475,0.0090475,0.0083325,0.0084224995,-0.065,-0.2125,-0.1775,-0.0084675,-0.022765,0.0269625,1742111206.200207,user_4
-0.0125,-0.02125,0.1175,-0.00029,0.01619,0.0010675,0.065,0.08625,0.02375,-0.003525,0.0009925,0.0273275,1742111206.318484,user_4
-0.03,-0.00375,0.145,0.00827,0.013245,0.00473,-0.10625,-0.23125,-0.21625,0.0110775,0.014375,-0.016235001,1742111206.428082,user_4
-0.03375,-0.0125,0.13,0.0013425,0.017059999,0.000945,-0.00125,-0.05875,-0.04625,-0.0021675,-0.0201425,0.035095003,1742111206.5421991,user_4
-0.015,-0.00625,0.0775,-0.0103,-0.06192,-0.008605,-0.04,-0.085,-0.04,0.0098875,0.0189525,-0.071335,1742111206.659192,user_4
-0.03875,-0.01625,0.13,-0.00499,0.0051424997,-0.00035,-0.045,-0.1325,-0.0975,-0.010452501,-0.024155,0.042465,1742111206.778809,user_4
-0.01875,-0.01875,0.12375,-0.002045,0.015945,-0.001755,0.0675,0.1,0.0225,-0.0090325,0.0119475005,0.0080575,1742111206.8843148,user_4
-0.03625,-0.03875,0.15375,0.026565,0.01323,0.00537,-0.07125,-0.2175,-0.20625,0.0128325,0.00142,-0.0096125,1742111206.999027,user_4
-0.0225,-0.01375,0.115,0.0033425,0.0160075,0.0028225,0.01875,-0.0375,-0.03625,-0.0027925,-0.0116875,0.0425575,1742111207.1196,user_4
-0.0425,-0.0275,0.155,-0.0116425,-0.0579225,-0.00911,-0.0525,-0.09625,-0.0825,0.0060125,0.020965,-0.06865,1742111207.226413,user_4
-0.035,-0.02125,0.12875,-0.0044699996,0.0019675,0.003585,-0.03625,-0.125,-0.09125,-0.00583,-0.020995,0.039169997,1742111207.340138,user_4
-0.015,-0.0225,0.11625,-0.0012675,0.0062100003,-0.0004725,0.06875,0.08875,0.01,-0.012345,0.0093075,-0.0075075002,1742111207.458408,user_4
-0.035,-0.02625,0.14125,0.016082501,0.00296,0.00554,-0.05375,-0.2,-0.21125,-0.0053875,0.00079250004,0.0136875,1742111207.568258,user_4
-0.0175,-0.02375,0.115,0.00142,0.0178675,0.0010975,0.02875,-0.035,-0.00875,-0.008025,-0.01526,0.03479,1742111207.682251,user_4
-0.04625,0.00625,0.17125,-0.0195,-0.005005,-0.0086525,-0.115,-0.27625,-0.20875,0.0192875,0.025405,-0.042404998,1742111207.7991738,user_4
-0.03125,-0.01625,0.1225,-0.001235,0.01245,0.0007325,-0.01625,-0.08875,-0.06125,-0.0063175,-0.025557501,0.027802499,1742111207.9102552,user_4
0.0375,-0.0375,0.015,0.0043175,-0.0189975,0.0020299999,0.03,0.00125,0.04,-0.00174,0.027817499,-0.019592501,1742111208.024121,user_4
-0.0375,-0.045,0.14125,-0.00557,0.007415,3e-05,-0.025,-0.15,-0.12875,-0.0101325,-0.026855,0.0111075,1742111208.139888,user_4
-0.01125,-0.02625,0.11,6e-05,0.0044250004,-0.00055,0.04375,0.00375,0.02375,0.0020150002,0.007035,0.00592,1742111208.259852,user_4
-0.04375,-0.04375,0.15125,0.020049999,0.0048525,0.004975,-0.065,-0.19,-0.22,0.00911,0.0042575,-0.01422,1742111208.366169,user_4
-0.0275,-0.0175,0.1125,0.0043325,0.0077675,0.0009625,0.0125,-0.06625,-0.02625,0.0007175,-0.0149225,0.0357825,1742111208.4801369,user_4
-0.055,-0.01375,0.17375,-0.012025,-0.02542,-0.003815,-0.07,-0.0875,-0.06625,0.0146025,0.0246125,-0.074264996,1742111208.600215,user_4
-0.035,-0.01875,0.1175,-0.000625,0.00554,-0.00154,-0.02875,-0.1025,-0.0525,-0.0083625,-0.023285,0.0432425,1742111208.70826,user_4
-0.0175,-0.02625,0.08875,-0.000107500004,-0.00052,-0.0016025,0.0625,0.07375,0.00625,-0.00059500005,0.01822,-0.048095003,1742111208.822322,user_4
-0.04375,-0.0525,0.14,0.0080875,0.0069274995,0.009385,-0.04875,-0.19375,-0.185,0.0005025,-0.01526,0.0141,1742111208.943991,user_4
-0.02375,-0.02125,0.11625,0.0040275003,0.0077825,0.0018475,0.06125,0.04875,0.01,-0.0013875001,-0.0059499997,0.034775,1742111209.050142,user_4
-0.05125,-0.00125,0.18375,-0.02719,-0.012435,-0.0066675,-0.11875,-0.265,-0.1725,0.009292499,0.02565,-0.0575875,1742111209.164449,user_4
-0.03875,-0.0175,0.11875,-0.000275,0.00612,0.000565,-0.02,-0.075,-0.04625,-0.0066225,-0.024415001,0.042115003,1742111209.27994,user_4
0.04125,-0.01875,0.005,0.0065925,-0.0152125,0.00061,0.05,0.03375,0.0225,-0.0046550003,0.02159,-0.0475625,1742111209.392171,user_4
-0.03875,-0.05125,0.13375,-0.00644,0.00714,0.0016625,-0.055,-0.1825,-0.18375,-0.006515,-0.0110625,0.0175025,1742111209.506164,user_4
-0.025,-0.02625,0.12125,0.0013575,0.0084375,0.000365,0.0575,0.04875,0.02125,-0.0065,-0.0037850002,0.02832,1742111209.620791,user_4
-0.03125,0.015,0.14875,-0.001405,0.0144650005,-0.005355,-0.19125,-0.29625,-0.19875,0.0030675002,0.0204175,-0.0169375,1742111209.740211,user_4
-0.0325,-0.01,0.11875,0.00435,0.0222025,0.0028375,-0.01875,-0.09125,-0.065,-0.0032950002,-0.0206,0.03627,1742111209.8481832,user_4
0.0425,0.01,-0.02375,0.0045775,-0.0355675,-0.004165,0.04375,0.07125,0.01875,-0.0040599997,0.017045,-0.0405575,1742111209.962263,user_4
-0.04,-0.04,0.14375,-0.0039675,0.00508,0.0031125,-0.06625,-0.2075,-0.14375,-0.0043325,-0.01413,0.0294025,1742111210.079944,user_4
-0.015,-0.02875,0.11875,-0.0022725,0.017745001,-0.0042275,0.07,0.0475,0.00375,-0.0027,-0.0024249998,0.021485,1742111210.190292,user_4
-0.025,-0.00625,0.16375,0.0169825,0.017944999,-0.0024425,-0.175,-0.255,-0.1775,0.0065625,0.019135,-0.026504999,1742111210.304332,user_4
-0.0075,-0.00875,0.1175,0.0059499997,0.018905,0.004105,-0.00125,-0.05625,-0.05125,0.002715,-0.01683,0.039155,1742111210.42364,user_4
-0.0275,-0.0275,0.14,-0.0026099999,-0.05124,-0.01007,-0.03125,-0.065,-0.04,0.0039375,0.015685,-0.059157502,1742111210.541471,user_4
-0.01125,-0.0175,0.12875,-0.0074925,0.00673,0.0034175,-0.05375,-0.13625,-0.10375,-0.0055225003,-0.0151525,0.040375,1742111210.646186,user_4
0.0,-0.02375,0.12,-0.0024725,0.0034175,-0.0013425,0.0925,0.08,0.015,-0.003525,0.0030975002,0.0133825,1742111210.761216,user_4
-0.0,-0.03125,0.1375,0.0169375,0.0039825,0.0029749998,-0.13875,-0.32125,-0.19375,-0.0033275,0.0057525,-0.00142,1742111210.882365,user_4
-0.005,-0.0225,0.11125,0.00348,0.00969,0.00357,-0.0025,-0.0425,-0.04,-0.0002125,-0.0136875,0.0566875,1742111210.988217,user_4
0.02,-0.01875,0.04875,0.0065625,-0.012802499,-0.002135,0.04625,0.07625,0.0025,-0.0148,0.012375,-0.06897,1742111211.10219,user_4
-0.02125,-0.06,0.15,0.0034175,0.0045625,0.00586,-0.08875,-0.27375,-0.145,0.0046225,-0.0125725,0.025222499,1742111211.220449,user_4
-0.00375,-0.0225,0.11875,0.00087,0.00792,0.00093,0.05375,0.06625,0.00125,-0.01184,0.002045,0.0467975,1742111211.3406909,user_4
-0.0275,-0.0375,0.19125,-0.0131075,-0.0072475,-0.008407501,-0.14375,-0.24625,-0.12125,0.012925,0.0125275,-0.105864994,1742111211.4453518,user_4
-0.01,-0.025,0.12,-0.0001225,0.00769,0.0007775,-0.05625,-0.1225,-0.05625,-0.003235,-0.011565,0.064972505,1742111211.561632,user_4
0.00375,-0.02625,0.1175,-7.75e-05,0.0043025,-0.000305,0.10125,0.1175,-0.02,0.0057375003,0.0029000002,-0.03093,1742111211.681797,user_4
-0.01625,-0.0475,0.1475,0.0243525,0.0010975,0.0028225,-0.1325,-0.31,-0.14,-0.0086525,0.009155,0.00679,1742111211.785994,user_4
-0.00125,-0.02625,0.1075,0.0031125,0.010757499,0.0027,0.015,0.04125,-0.02125,-0.0049274997,0.0041199997,0.092345,1742111211.9037929,user_4
0.02875,-0.00125,0.0125,0.007355,-0.047715,-0.003905,-0.05625,-0.04875,-0.02875,-0.0021525,-7.75e-05,-0.11287,1742111212.021921,user_4
-0.015,-0.03,0.12375,-0.0075675,0.0056925,0.002075,-0.07875,-0.2075,-0.09125,-0.000945,-0.0143575,0.055985,1742111212.128198,user_4
-0.0025,-0.03,0.11875,-0.001115,0.003905,-0.0001825,0.1025,0.1075,-0.02125,-0.0151825,0.0110925,0.0095525,1742111212.242278,user_4
-0.02125,-0.0075,0.15375,-0.0077525,0.0062100003,-0.0047925,-0.195,-0.39,-0.09875,0.010665,0.007355,-0.049147498,1742111212.362026,user_4
-0.01375,-0.0225,0.11625,0.0031125,0.0104075,-0.00116,-0.01875,-0.09125,-0.04625,-0.0034025,-0.009155,0.061675,1742111212.480814,user_4
-0.0025,-0.0375,0.09625,0.0,0.0008075,-0.00154,0.03625,0.02375,-0.04625,-0.0007175,0.00673,-0.0540775,1742111212.584072,user_4
-0.0125,-0.0325,0.1275,0.0024425,0.0010075001,0.0068825004,-0.04125,-0.17,-0.09375,-0.0084224995,-0.0107275,0.0273275,1742111212.701251,user_4
-0.005,-0.0325,0.11875,-0.00064,0.0036175,-0.0009925,0.04,-0.015,-0.02,0.00052,-0.002305,0.028717501,1742111212.820826,user_4
-0.0125,-0.03125,0.13625,0.000855,-0.0299375,-0.0006725,-0.04625,-0.09125,-0.06625,0.0122975,0.012665,-0.0724325,1742111212.926173,user_4
-0.01125,-0.025,0.11625,-0.00087,0.0019225,0.0007025,-0.0275,-0.1275,-0.10125,-0.0036,-0.01851,0.032302503,1742111213.041766,user_4
-0.01,-0.02875,0.125,-0.00035,0.00496,-0.0004425,0.05625,0.0125,0.015,0.0092475,-0.0085,-0.0086525,1742111213.161497,user_4
-0.03375,-0.03625,0.145,0.0047925,0.0030975002,0.00026,-0.0975,-0.19,-0.21125,0.01912,0.0215,-0.0042125,1742111213.268033,user_4
-0.02375,-0.02125,0.11625,0.00801,0.0072325002,0.0031424998,0.0025,-0.08125,-0.04125,-0.0058125,-0.0216075,0.01973,1742111213.382905,user_4
0.04,-0.03,-0.00625,0.0006875,-0.01651,-0.002595,0.025,-0.0125,0.015,0.0023800002,0.02449,-0.01329,1742111213.501822,user_4
-0.04625,-0.05125,0.1375,0.00409,0.0121925,0.00348,-0.0425,-0.18875,-0.1425,-0.0018300001,-0.0143575,-0.0042725,1742111213.610025,user_4
-0.025,-0.03625,0.10875,0.0018925001,0.0056925,0.0010075001,0.0075,-0.0725,-0.0275,0.0045475,-0.0034175,0.03009,1742111213.72414,user_4
-0.0525,0.00875,0.17,0.011825,0.0034175,-0.0083325,-0.10375,-0.205,-0.15125,-0.000825,0.012665,-0.041334998,1742111213.841346,user_4
-0.0325,-0.02375,0.1075,0.0096275,0.008865,0.01355,-0.02875,-0.09,-0.07625,-0.0061950004,-0.0133825,0.0360875,1742111213.960761,user_4
-0.0225,-0.03625,0.08875,-0.0034175,-0.0013425,0.0004425,0.0425,0.01875,-0.005,-0.0045475,0.009185,-0.016082501,1742111214.066216,user_4
-0.04375,-0.04375,0.1275,0.0057375003,0.0057525,0.00351,-0.07375,-0.195,-0.17625,0.00232,-0.0049274997,0.0102225,1742111214.1817331,user_4
-0.03125,-0.035,0.1125,0.000655,0.0077525,-0.0018150001,0.03125,-0.01625,-0.0275,-0.0069575,-0.0122375,0.028305,1742111214.301783,user_4
-0.04375,-0.04,0.165,-0.012604999,-0.0168925,0.002135,-0.08875,-0.15625,-0.055,0.009140001,0.015855,-0.0697925,1742111214.4083269,user_4
-0.02875,-0.02625,0.1075,-0.0012675,0.0069575,0.000107500004,-0.03125,-0.09375,-0.08625,-0.008545,-0.0172275,0.0428325,1742111214.522506,user_4
-0.02125,-0.04,0.08625,-0.00232,0.0025325,-0.002135,0.06375,0.0425,-0.005,-0.0042575,0.006835,-0.0175625,1742111214.641897,user_4
-0.05125,-0.06,0.14375,0.0139,0.0074925,0.0038599998,-0.07625,-0.23,-0.145,0.0164025,-0.013122501,-0.0009625,1742111214.750049,user_4
-0.025,-0.03375,0.10625,0.0043025,0.00998,0.0001375,0.01,-0.0475,-0.04,0.00415,-0.00679,0.045119997,1742111214.864022,user_4
0.0025,-0.0,0.015,-0.00033500002,-0.038025003,-0.0072775004,-0.01125,0.00625,-0.04625,0.0039825,0.013595,-0.065215,1742111214.982074,user_4
-0.03375,-0.03875,0.11375,-0.0056775,0.00612,0.002365,-0.0725,-0.195,-0.11375,-0.008895,-0.0096125,0.0440375,1742111215.1022642,user_4
-0.025,-0.035,0.115,-0.001495,0.0024725,-0.00093,0.07875,0.055,-0.0275,-0.026014999,-0.0057225,0.0136875,1742111215.206215,user_4
-0.05,-0.0375,0.175,-0.0171975,0.0047925,-0.000107500004,-0.13,-0.26875,-0.0675,0.0189525,-0.0063475,-0.062529996,1742111215.322253,user_4
-0.0275,-0.03375,0.1125,0.0024875,0.002885,0.00174,-0.025,-0.08875,-0.0575,-0.01497,-0.00554,0.047455,1742111215.433968,user_4
-0.0225,-0.04625,0.09125,0.0054625003,0.00299,0.00035,0.05375,0.03375,0.0025,-0.004135,0.006745,-0.030272499,1742111215.547977,user_4
-0.05,-0.05625,0.14625,0.010255001,0.0034025,0.0030525,-0.09,-0.26,-0.105,0.006715,-0.008529999,0.0136575,1742111215.662872,user_4
-0.0225,-0.03125,0.1075,0.0026099999,0.0113525,-0.00048750002,0.03125,-0.01,-0.02125,-0.0028675,0.0011900001,0.0485375,1742111215.782655,user_4
-0.04125,-0.035,0.165,-0.010895001,-0.050720003,-0.0146475,-0.0725,-0.0675,-0.04375,0.016967501,0.0009775,-0.090942495,1742111215.890389,user_4
-0.03,-0.02375,0.1125,-0.0007175,0.009262499,0.0063625,-0.06375,-0.1575,-0.0825,-0.0072625,-0.0099174995,0.06102,1742111216.0041778,user_4
-0.0175,-0.03125,0.11375,-0.0018625,0.0041799997,-0.00087,0.10125,0.11375,-0.015,-0.007065,0.008485,0.01851,1742111216.122815,user_4
-0.025,-0.0275,0.11125,-0.0054025003,0.01291,-0.0018300001,-0.1775,-0.4325,-0.165,0.0238025,0.008315,-0.016280001,1742111216.243364,user_4
-0.02125,-0.03125,0.1075,0.00299,0.0068675,0.00331,0.00375,-0.03375,-0.03125,-0.0024425,-0.0164025,0.056015,1742111216.346037,user_4
0.0025,-0.02625,0.0225,0.009734999,-0.03238,-0.001525,0.0075,0.00625,-0.00125,0.001115,0.0172275,-0.08078,1742111216.461837,user_4
-0.035,-0.0375,0.12875,-0.0063625,0.007965,0.0013425,-0.06625,-0.215,-0.12375,-0.01387,-0.020385,0.0452725,1742111216.582682,user_4
-0.02,-0.03,0.11125,0.00029,0.0038,-0.0020150002,0.0775,0.0375,0.00125,-0.0072025,-0.003815,0.041259997,1742111216.688048,user_4
-0.06,-0.03625,0.20875,-0.016555,-0.0083625,-0.0045775,-0.1325,-0.13,-0.05875,0.019897498,0.0065925,-0.10974,1742111216.802366,user_4
-0.0225,-0.0225,0.10875,-0.000825,0.0125725,0.0031575,-0.0525,-0.1225,-0.055,-0.0059825,-0.014175001,0.068375,1742111216.925102,user_4
-0.015,-0.03125,0.11375,-0.00052,0.0037225,-0.0024725,0.09625,0.125,-0.06625,0.0045925,0.0046375,-0.025572501,1742111217.03015,user_4
-0.03125,-0.03625,0.1325,0.010605,0.00389,0.00148,-0.15875,-0.36625,-0.10125,-0.0128625,0.0155475,0.01271,1742111217.144019,user_4
-0.01125,-0.03375,0.10375,0.0004725,0.0086675,0.0001375,0.02625,-0.02125,-0.07375,0.00537,-0.0099174995,0.049225,1742111217.2624462,user_4
0.00625,-0.035,0.0325,0.0076149995,-0.059325002,-0.0018925001,-0.005,0.015,0.00125,0.015305,0.0078724995,-0.086975,1742111217.383445,user_4
-0.025,-0.0425,0.12625,-0.0066675,0.010345,0.00177,-0.05625,-0.195,-0.1475,-0.00612,-0.010162501,0.0420825,1742111217.4860768,user_4
-0.01625,-0.03125,0.115,-0.00061,0.0047150003,-0.001465,0.0875,0.05,0.00375,-0.0004125,-0.0083775,0.019087499,1742111217.6029189,user_4
-0.045,-0.025,0.1525,-0.0024425,0.015365,-0.002715,-0.1625,-0.325,-0.19,0.007385,0.0196075,-0.0372475,1742111217.721838,user_4
-0.015,-0.03,0.105,0.0074,0.0128175,0.0040599997,-0.01375,-0.07125,-0.05875,-0.002075,-0.02159,0.0470425,1742111217.82803,user_4
0.03375,-0.02,-0.01375,0.007035,-0.0340425,0.00026,0.05375,0.05875,0.02375,-0.0086675,0.021285,-0.05632,1742111217.946362,user_4
-0.04625,-0.05625,0.15,-0.0001975,-0.0013425,0.0036,-0.07625,-0.24375,-0.16,-0.0043175,-0.009902501,0.024459999,1742111218.062252,user_4
-0.0225,-0.03125,0.10875,-0.00061,0.0095225,-0.0024725,0.0725,0.04375,-0.00375,-0.00473,-0.0055549997,0.041015,1742111218.170163,user_4
-0.055,-0.03375,0.205,-0.01442,-0.0024425,-0.0058449996,-0.14625,-0.23375,-0.0875,0.007965,0.0137950005,-0.088425,1742111218.284253,user_4
-0.0225,-0.02125,0.10375,-0.0001825,0.012802499,0.0039525,-0.0375,-0.105,-0.05875,-0.00534,-0.0116125,0.0611875,1742111218.404511,user_4
-0.0125,-0.03375,0.08875,-0.0014500001,-0.0060425,-0.0007175,0.07875,0.125,-0.03,-0.010575,0.0061950004,-0.06244,1742111218.522864,user_4
-0.04125,-0.05625,0.14625,0.01204,0.008575,0.0057825,-0.0825,-0.2275,-0.12875,-0.0023800002,0.00296,0.0080875,1742111218.625924,user_4
-0.0175,-0.03,0.10375,0.0046075,0.00917,0.001145,0.0325,0.02125,-0.01875,-0.00016750001,-0.0121625,0.04242,1742111218.743022,user_4
-0.04375,-0.0225,0.19,-0.02031,-0.0193625,-0.008545,-0.10375,-0.1925,-0.06,0.0104825,0.0060575,-0.079330005,1742111218.862905,user_4
-0.0275,-0.0175,0.11375,4.5e-05,0.0081475,0.005355,-0.0475,-0.12875,-0.0975,-0.0076149995,-0.0090625,0.048722498,1742111218.9680152,user_4
-0.01875,-0.03,0.11625,-0.00048750002,0.0065,-0.0010075001,0.075,0.06375,0.00125,-0.0036624998,0.00264,-0.0141,1742111219.083123,user_4
-0.03375,-0.06625,0.1475,0.018889999,0.0051875,0.00325,-0.1175,-0.2625,-0.15625,0.012435,0.00647,-0.00331,1742111219.202603,user_4
-0.01875,-0.03375,0.10375,0.0037850002,0.0102075,0.0016325001,0.0225,-0.0325,-0.0325,0.00045750002,-0.014479999,0.045912497,1742111219.310029,user_4
-0.02625,-0.02125,0.105,-0.0048225,-0.052705,-0.0122825,-0.0425,-0.03875,-0.01875,0.0119775,0.006835,-0.0771025,1742111219.425571,user_4
-0.02375,-0.025,0.1125,-0.002305,0.01033,0.0038299998,-0.07,-0.19375,-0.07625,-0.0160225,-0.0056,0.0488275,1742111219.542604,user_4
-0.01875,-0.02875,0.11375,-0.0020599999,0.00055,-0.0013875001,0.08875,0.10375,-0.025,-0.020399999,0.0151375,0.02156,1742111219.6627588,user_4
-0.03625,-0.04,0.14125,0.006805,0.0178075,-0.00528,-0.19875,-0.41125,-0.0975,0.008195,0.00531,-0.02002,1742111219.76617,user_4
-0.01625,-0.0225,0.105,0.0066675,0.013505,0.0045175,-0.00125,-0.05875,-0.05125,-0.0025325,-0.0063775,0.060075,1742111219.883816,user_4
0.0275,-0.01125,0.00875,0.00093,-0.0027,-0.002715,0.0525,0.075,-0.00875,0.001175,-0.0086199995,-0.071105,1742111220.002568,user_4
-0.03,-0.06,0.13875,-0.0034475,0.0077975,0.0066825,-0.0725,-0.2375,-0.13375,0.00467,0.0013125,0.0195775,1742111220.108156,user_4
-0.01125,-0.035,0.11,0.0020899998,0.00592,0.0027925,0.05875,0.01875,-0.01625,-0.000365,-0.008195,0.0351875,1742111220.22222,user_4
-0.0375,-0.035,0.175,-0.016617501,0.0066225,-0.00467,-0.1075,-0.21875,-0.0625,0.017212499,0.0015725,-0.06569,1742111220.342087,user_4
-0.015,-0.02625,0.1075,0.004395,0.009765,0.0047150003,-0.025,-0.09375,-0.065,-0.0031275,-0.0130475,0.050552502,1742111220.46151,user_4
0.015,-0.0275,0.03625,0.0010825,0.001115,-0.0007025,0.06375,0.0575,-0.00125,-0.0030525,0.003205,-0.044875,1742111220.563925,user_4
-0.035,-0.06,0.14875,0.0001525,0.0045925,0.0036775,-0.085,-0.275,-0.1625,0.0039375,-0.0034625002,0.0133525,1742111220.682656,user_4
-0.01,-0.03375,0.10625,0.00079250004,0.0089275,0.00026,0.0475,-0.00125,-0.01625,-0.0065450002,-0.008117501,0.0425425,1742111220.801825,user_4
-0.04125,-0.04375,0.2,-0.0174875,-0.01529,-0.008880001,-0.07625,-0.095,-0.025,0.020399999,0.0036,-0.086867504,1742111220.906362,user_4
-0.01625,-0.0225,0.115,0.000825,0.012802499,0.0045775,-0.05375,-0.15375,-0.07375,-0.0117025,-0.0121450005,0.0541525,1742111221.0236878,user_4
-0.0,-0.04125,0.0975,-0.001405,0.00769,-0.0012825,0.09,0.1225,-0.01875,-0.013595,0.0115975,-0.0372925,1742111221.142804,user_4
-0.03,-0.06375,0.15125,0.0084525,0.0039224997,0.0047150003,-0.09875,-0.29125,-0.14875,0.008529999,0.0050500003,0.000275,1742111221.247936,user_4
-0.0075,-0.03375,0.105,0.0031125,0.010605,0.00296,0.03125,-0.02375,-0.0275,0.003525,-0.0084525,0.04959,1742111221.363005,user_4
-0.0275,-0.03625,0.135,-0.0071575,-0.04309,-0.005325,-0.03875,-0.0475,-0.02875,0.020537501,-0.0007775,-0.089339994,1742111221.481878,user_4
-0.01625,-0.03125,0.115,-0.0049274997,0.00714,0.0016625,-0.06125,-0.1825,-0.095,-0.006775,-0.014007499,0.052245,1742111221.590086,user_4
-0.015,-0.02625,0.12125,-0.00061,0.00151,-0.000855,0.09,0.09875,-0.01,0.0040275003,0.004975,-0.014375,1742111221.704014,user_4
-0.02375,-0.0325,0.1275,0.0071875,-0.00023,-0.0001525,-0.1625,-0.33,-0.18875,0.0151375,0.00946,0.00473,1742111221.822069,user_4
-0.01625,-0.03,0.11,0.0009625,0.0063625,-0.0005025,0.03,-0.01125,-0.0175,-0.00142,-0.021225,0.0461275,1742111221.931937,user_4
0.0125,-0.025,0.04125,0.002365,-0.0437775,-0.0027,-0.0175,-0.03625,0.00625,0.011185001,0.025572501,-0.0673375,1742111222.046143,user_4
-0.02125,-0.0275,0.1125,-0.0071575,0.009140001,-7.75e-05,-0.055,-0.17375,-0.1375,-0.00534,-0.027665,0.030045,1742111222.162953,user_4
-0.015,-0.02375,0.1175,-0.0007775,0.005065,-0.0015575,0.0625,0.03125,0.01375,-0.0045025,0.0068975003,0.0038599998,1742111222.281708,user_4
-0.03875,-0.02875,0.155,0.002915,0.005295,-0.001175,-0.12375,-0.22625,-0.20625,0.0075375,0.0261225,-0.0242,1742111222.388012,user_4
-0.02375,-0.02375,0.11,0.004945,0.01416,0.0027325,-0.0075,-0.0625,-0.055,-0.0119325,-0.0243375,0.044189997,1742111222.5029602,user_4
0.03375,-0.01875,0.01125,0.00917,-0.0360725,0.0001825,0.025,-0.01,0.01375,0.0052024997,0.0196525,-0.053345002,1742111222.622281,user_4
-0.0425,-0.04,0.13375,-0.0038,0.00328,0.0024725,-0.06625,-0.21,-0.1725,0.00087,-0.0171975,0.0104825,1742111222.729986,user_4
-0.02,-0.02625,0.11,-0.0001525,0.00647,0.00033500002,0.04625,0.03,0.02125,-0.01387,-0.0058125,0.04448,1742111222.843978,user_4
-0.0425,-0.0275,0.17625,-0.017182501,-0.0025475,-0.0093225,-0.1275,-0.17375,-0.145,0.0228725,0.02333,-0.067825,1742111222.961613,user_4
-0.03375,-0.02375,0.11625,0.0031125,0.0092175,0.00148,-0.05125,-0.14,-0.05625,-0.014527501,-0.015625,0.05243,1742111223.0826838,user_4
-0.0175,-0.02625,0.11625,0.0007175,0.0042275,-0.0018150001,0.07875,0.11,-0.02,-0.022155,0.024215,0.0042425,1742111223.185982,user_4
-0.04625,-0.04,0.1475,0.0096125,0.0012825,0.00059500005,-0.13375,-0.305,-0.14625,-0.012955,0.0001825,0.009734999,1742111223.301736,user_4
-0.02,-0.02625,0.105,0.0010225,0.0108025,-0.00154,0.04375,0.01625,-0.0325,-0.00496,-0.0011900001,0.052840002,1742111223.425188,user_4
-0.035,-0.03875,0.18,-0.01097,-0.0343475,-0.0103,-0.065,-0.07625,-0.04375,0.0072025,0.00978,-0.0838175,1742111223.528137,user_4
-0.0325,-0.02125,0.1175,0.0029000002,0.002625,0.0051875,-0.045,-0.13625,-0.0925,-0.007385,-0.015975,0.042632498,1742111223.642896,user_4
-0.01875,-0.0225,0.115,0.000885,0.0036925,-0.00016750001,0.075,0.05125,0.0075,-0.0054025003,0.003555,-0.002135,1742111223.762339,user_4
-0.03375,-0.04375,0.13625,0.00946,0.0031424998,0.001175,-0.12375,-0.24,-0.225,0.007965,0.008025,0.0004725,1742111223.869897,user_4
-0.0225,-0.0275,0.11125,0.002655,0.0075225,0.00029,0.0175,-0.045,-0.0225,-0.0019375,-0.01213,0.039794996,1742111223.983895,user_4
-0.04125,-0.0225,0.12375,-0.01245,-0.04628,-0.00998,-0.015,-0.035,-0.02875,0.0072925,0.0174725,-0.07289,1742111224.102131,user_4
-0.03125,-0.01875,0.11125,-0.0028525,0.0060875,0.0030525,-0.07,-0.1925,-0.11125,-0.012725,-0.01802,0.0393975,1742111224.22217,user_4
-0.025,-0.02125,0.1225,-0.00299,0.0022125002,-0.0013875001,0.07875,0.05375,-0.025,-0.0089425,0.00142,0.0189675,1742111224.326037,user_4
-0.0425,-0.0025,0.15,-0.0066075,-0.0068975003,-0.002685,-0.14125,-0.20625,-0.06625,0.009155,0.0046225,-0.07779,1742111224.445975,user_4
-0.0275,-0.02,0.11625,-0.0004425,0.005875,0.0016775,-0.0375,-0.095,-0.05875,0.002135,-0.01181,0.056092497,1742111224.562818,user_4
0.0175,-0.0125,0.02625,-0.0029749998,-0.0030525,0.0010825,0.0325,0.03875,-0.00375,0.002105,0.0089275,-0.0593875,1742111224.6679978,user_4
-0.0425,-0.04125,0.1375,-0.0021825,0.0069274995,0.0045625,-0.095,-0.23375,-0.1425,0.0021825,-0.0046225,0.025375,1742111224.782561,user_4
-0.0225,-0.02125,0.11625,0.001405,0.0109399995,0.000655,0.04375,0.0225,-0.015,-0.0051875,-0.0140675,0.03978,1742111224.904423,user_4
-0.0325,-0.01875,0.1625,-0.0178525,-0.0110775,-0.00229,-0.1225,-0.21,-0.05375,0.01126,0.00821,-0.0714725,1742111225.0101278,user_4
