L-AccX,L-AccY,L-AccZ,L-GyrX,L-GyrY,L-GyrZ,R-AccX,R-AccY,R-AccZ,R-GyrX,R-GyrY,R-GyrZ,timestamp
-0.015000000000000013,0.15500000000000003,0.6000000000000001,0.01855999999999991,-0.18553999999999993,-0.11120000000000008,0.02499999999999991,-0.45999999999999996,0.1299999999999999,-0.018799999999999928,-0.14184000000000008,-0.16003999999999996,1742237476.825784
-0.10999999999999999,-0.04500000000000004,0.7,-0.02294000000000007,0.033320000000000016,-0.21228000000000002,-0.17999999999999994,-0.475,0.31499999999999995,-0.1902999999999999,-0.20484000000000002,-0.13196000000000008,1742237476.927901
0.07000000000000006,-0.09499999999999997,0.44999999999999996,-0.12220000000000009,0.31592,-0.09998000000000007,-0.31000000000000005,-0.49,0.4849999999999999,-0.08484000000000003,-0.15527999999999997,0.13746000000000014,1742237477.041755
0.2549999999999999,-0.040000000000000036,0.2549999999999999,-0.11108000000000007,0.28088,0.08666000000000018,-0.125,-0.32499999999999996,0.44999999999999996,0.052240000000000064,0.10424000000000011,0.26329999999999987,1742237477.155703
0.2549999999999999,0.15999999999999992,0.17500000000000004,0.07055999999999996,-0.008299999999999974,0.29503999999999997,0.07499999999999996,-0.18500000000000005,0.3599999999999999,-0.02954000000000001,0.3186,0.05090000000000017,1742237477.270998
0.08499999999999996,0.55,0.25,0.0024399999999999977,-0.2683199999999999,0.23497999999999997,0.125,-0.21499999999999997,0.19999999999999996,0.09631999999999996,0.21386000000000016,-0.17077999999999993,1742237477.3903732
-0.05500000000000005,0.3700000000000001,0.5150000000000001,0.0031799999999999606,-0.3100599999999999,-0.21251999999999993,-0.09999999999999998,-0.555,0.020000000000000018,-0.27954,0.11681999999999992,-0.3248199999999999,1742237477.510829
-0.135,0.2749999999999999,0.615,0.11949999999999994,-0.0747000000000001,-0.14698,-0.17000000000000004,-0.49,0.28,-0.11499999999999999,-0.23375999999999997,-0.028200000000000003,1742237477.611893
-0.020000000000000018,0.08000000000000007,0.5049999999999999,-0.04565999999999992,0.2558600000000002,-0.17176000000000002,-0.18500000000000005,-0.395,0.42500000000000004,-0.11705999999999994,-0.2045800000000001,0.11390000000000011,1742237477.726567
0.17999999999999994,0.040000000000000036,0.32499999999999996,-0.06434000000000006,0.32311999999999985,0.0037799999999998946,-0.18999999999999995,-0.36,0.49,0.05090000000000017,-0.03417999999999999,0.28796,1742237477.846512
0.29499999999999993,0.14500000000000002,0.14500000000000002,0.045660000000000034,0.13707999999999987,0.22448,-0.0050000000000000044,-0.25,0.395,0.11840000000000006,0.17028,0.18872,1742237477.9660192
0.1299999999999999,0.4750000000000001,0.16500000000000004,0.11107999999999985,-0.21118000000000003,0.29346000000000005,0.11499999999999999,-0.22499999999999998,0.2650000000000001,0.05479999999999996,0.21813999999999978,-0.07374000000000003,1742237478.067573
-0.020000000000000018,0.48,0.3799999999999999,-0.11926000000000003,-0.26722,-0.15198,0.004999999999999893,-0.385,0.03499999999999992,0.08397999999999994,0.11119999999999997,-0.22974000000000006,1742237478.181604
-0.10499999999999998,0.395,0.4950000000000001,0.15748000000000006,-0.2832,-0.15246000000000004,-0.15500000000000003,-0.615,0.02499999999999991,-0.10010000000000008,-0.13903999999999994,-0.20716,1742237478.2957811
-0.15000000000000002,0.2450000000000001,0.5800000000000001,0.03527999999999998,0.09373999999999993,-0.22314,-0.27,-0.575,0.27,-0.13366,-0.29296,0.03649999999999998,1742237478.41098
0.125,0.06499999999999995,0.3400000000000001,-0.09948000000000001,0.3552200000000001,-0.14501999999999993,-0.245,-0.45500000000000007,0.43500000000000005,-0.06652000000000002,-0.03625999999999996,0.2448800000000002,1742237478.530984
0.24,0.15999999999999992,0.09499999999999997,0.09301999999999988,0.24646000000000012,0.18542000000000014,-0.020000000000000018,-0.265,0.33499999999999996,0.041260000000000074,0.1933600000000002,0.1764000000000001,1742237478.651047
0.15500000000000003,0.49,0.22999999999999998,0.05761999999999978,-0.14561999999999997,0.25976,0.11499999999999999,-0.19500000000000006,0.22999999999999998,-0.05188000000000004,0.26281999999999983,-0.11181999999999992,1742237478.751662
0.014999999999999902,0.48,0.3599999999999999,0.11499999999999999,-0.3612000000000001,0.02526000000000006,-0.050000000000000044,-0.475,0.010000000000000009,-0.09314,0.12292000000000014,-0.3136,1742237478.866297
-0.18500000000000005,0.32000000000000006,0.575,0.13146000000000013,-0.20263999999999993,-0.20362000000000002,-0.13,-0.44500000000000006,0.23499999999999988,-0.06835999999999998,-0.20496000000000003,-0.04467999999999994,1742237478.98711
-0.08499999999999996,0.03499999999999992,0.52,-0.013919999999999932,0.2813800000000002,-0.24414000000000002,-0.20999999999999996,-0.485,0.30000000000000004,-0.019540000000000002,-0.16346000000000005,0.04455999999999993,1742237479.106407
0.15500000000000003,0.06499999999999995,0.32000000000000006,-0.08020000000000005,0.391,-0.01085999999999998,-0.245,-0.515,0.43500000000000005,-0.06029999999999991,-0.1582,0.2508600000000001,1742237479.214834
0.23499999999999988,0.25,0.15999999999999992,0.022340000000000027,0.15063999999999989,0.20653999999999995,-0.06499999999999995,-0.30499999999999994,0.3700000000000001,0.03503999999999996,0.1297600000000001,0.19067999999999996,1742237479.330868
0.15999999999999992,0.615,0.1299999999999999,0.12829999999999986,-0.14600000000000002,0.2870999999999999,0.09000000000000008,-0.18999999999999995,0.21999999999999997,-0.03479999999999994,0.24913999999999992,-0.09155999999999997,1742237479.442122
-0.04500000000000004,0.45999999999999996,0.3599999999999999,0.17066000000000003,-0.32531999999999994,-0.014780000000000015,-0.025000000000000022,-0.43999999999999995,-0.06000000000000005,-0.10120000000000007,0.15063999999999989,-0.34498000000000006,1742237479.549771
-0.17000000000000004,0.31000000000000005,0.645,0.05018000000000011,-0.14270000000000005,-0.21826,-0.20999999999999996,-0.525,0.17999999999999994,-0.09644000000000008,-0.271,-0.0601799999999999,1742237479.665547
0.0,0.14500000000000002,0.47,-0.07677999999999996,0.36792,-0.21508000000000005,-0.30000000000000004,-0.45999999999999996,0.375,-0.1139,-0.2700199999999999,0.14172000000000007,1742237479.7862558
0.2250000000000001,0.06000000000000005,0.27,-0.07386000000000004,0.3066399999999998,0.01110000000000011,-0.27,-0.375,0.45500000000000007,0.0021999999999999797,0.03747999999999996,0.27966,1742237479.9056609
0.22999999999999998,0.28,0.07000000000000006,0.10400000000000009,0.0638399999999999,0.30066000000000015,0.010000000000000009,-0.235,0.33000000000000007,0.10973999999999995,0.27038000000000006,0.16027999999999998,1742237480.005428
0.014999999999999902,0.5449999999999999,0.32000000000000006,0.23486000000000007,-0.15112000000000003,0.1433199999999999,0.08000000000000007,-0.255,0.11499999999999999,0.07335999999999987,0.31896000000000013,-0.17358000000000007,1742237480.118666
-0.05500000000000005,0.395,0.385,0.01977999999999991,-0.41248000000000007,-0.1632,-0.06499999999999995,-0.54,-0.07499999999999996,-0.15942,0.06445999999999996,-0.2229,1742237480.232792
-0.235,0.26,0.675,0.02075999999999989,-0.10815999999999992,-0.2429199999999999,-0.14500000000000002,-0.565,0.16500000000000004,-0.10596000000000005,-0.23486000000000007,-0.07898000000000005,1742237480.350581
-0.03500000000000003,0.16999999999999993,0.4750000000000001,-0.09777999999999998,0.3614600000000001,-0.23974000000000006,-0.255,-0.55,0.385,-0.14454,-0.2832,0.1468600000000002,1742237480.471623
0.22999999999999998,0.08000000000000007,0.18500000000000005,-0.0908199999999999,0.3320399999999999,0.010499999999999954,-0.15000000000000002,-0.28,0.41500000000000004,0.014399999999999968,0.06616,0.26636000000000015,1742237480.5745249
0.20999999999999996,0.32499999999999996,0.06000000000000005,0.11170000000000013,0.09570000000000012,0.3591399999999998,0.050000000000000044,-0.21999999999999997,0.30000000000000004,0.03283999999999998,0.34986000000000006,0.01770000000000005,1742237480.688527
0.04499999999999993,0.605,0.21500000000000008,0.1334200000000001,-0.3407,0.14793999999999996,0.050000000000000044,-0.32000000000000006,0.040000000000000036,0.06773999999999991,0.24036000000000013,-0.21936,1742237480.806033
-0.08999999999999997,0.395,0.405,-0.032220000000000026,-0.39172000000000007,-0.24268000000000012,-0.08999999999999997,-0.53,0.05499999999999994,-0.26683999999999997,-0.06762000000000001,-0.27478,1742237480.926688
-0.15500000000000003,0.42500000000000004,0.5150000000000001,0.06651999999999991,0.07201999999999997,-0.12097999999999998,-0.29000000000000004,-0.495,0.33499999999999996,-0.18896000000000002,-0.35450000000000004,0.05357999999999996,1742237481.03065
0.05499999999999994,0.20999999999999996,0.365,-0.10620000000000007,0.30479999999999996,-0.26916000000000007,-0.26,-0.485,0.44999999999999996,-0.018440000000000012,-0.07862000000000002,0.19238000000000022,1742237481.144701
0.2450000000000001,0.135,0.16999999999999993,-0.06981999999999988,0.28772,0.031500000000000083,-0.07000000000000006,-0.32499999999999996,0.365,0.1689400000000001,0.10914000000000001,0.27246000000000015,1742237481.258558
0.25,0.3400000000000001,0.02499999999999991,0.09875999999999996,0.10816000000000003,0.35461999999999994,0.06499999999999995,-0.245,0.2549999999999999,0.03869999999999996,0.2815000000000001,-0.010379999999999945,1742237481.372617
0.014999999999999902,0.585,0.17999999999999994,0.17578000000000005,-0.2279,0.20252000000000003,0.004999999999999893,-0.355,0.05499999999999994,0.00865999999999989,0.35705999999999993,-0.21594000000000002,1742237481.492102
-0.14,0.5449999999999999,0.365,0.16480000000000006,-0.39183999999999997,-0.17503999999999997,-0.10999999999999999,-0.65,-0.03500000000000003,-0.21165999999999996,-0.04712000000000005,-0.15064,1742237481.612064
-0.16500000000000004,0.31000000000000005,0.56,0.041260000000000074,0.0317400000000001,-0.3005399999999999,-0.16000000000000003,-0.52,0.24,-0.21411999999999998,-0.36485999999999996,0.04283999999999999,1742237481.7146409
0.10000000000000009,0.16500000000000004,0.3400000000000001,-0.07213999999999998,0.3237399999999999,-0.16125999999999996,-0.255,-0.395,0.42999999999999994,-0.09374000000000005,-0.21520000000000006,0.19788000000000006,1742237481.828724
0.24,0.19999999999999996,0.1499999999999999,-0.07874000000000003,0.2695399999999999,0.11158000000000001,-0.09999999999999998,-0.29000000000000004,0.365,0.09644000000000008,0.03833999999999982,0.2376800000000001,1742237481.947329
0.11499999999999999,0.5550000000000002,0.004999999999999893,-0.0043999999999999595,0.08094000000000001,0.3555999999999999,0.07499999999999996,-0.22999999999999998,0.24,0.1177999999999999,0.27222000000000013,0.03051999999999988,1742237482.066464
0.04499999999999993,0.5699999999999998,0.15500000000000003,0.12535999999999992,-0.32763999999999993,0.0671400000000002,0.02499999999999991,-0.385,-0.020000000000000018,0.0014600000000000168,0.11572000000000005,-0.23803999999999992,1742237482.169653
-0.16500000000000004,0.3999999999999999,0.3900000000000001,0.28625999999999996,-0.43848,-0.12134,-0.20999999999999996,-0.6,0.14500000000000002,-0.17652,-0.20228000000000002,-0.19434000000000007,1742237482.283721
-0.10499999999999998,0.33000000000000007,0.5,-0.05506,0.18603999999999998,-0.2915,-0.265,-0.54,0.2749999999999999,-0.07116,-0.22010000000000007,0.09911999999999987,1742237482.3976572
0.14000000000000012,0.17500000000000004,0.30000000000000004,-0.09875999999999996,0.32555999999999985,-0.14844000000000002,-0.22499999999999998,-0.4,0.3599999999999999,-0.016960000000000086,-0.04565999999999992,0.24205999999999994,1742237482.511636
0.2650000000000001,0.25,0.10499999999999998,0.14561999999999986,0.31286000000000014,0.22266000000000008,-0.06000000000000005,-0.355,0.31000000000000005,0.07225999999999999,0.11268000000000011,0.1667400000000001,1742237482.6319308
0.1200000000000001,0.5350000000000001,0.06499999999999995,0.06773999999999991,-0.10438000000000003,0.33386000000000005,0.050000000000000044,-0.28,0.19999999999999996,0.019400000000000084,0.2827200000000001,-0.09289999999999998,1742237482.751507
-0.04500000000000004,0.565,0.2849999999999999,0.11670000000000003,-0.36536,-0.06359999999999999,-0.030000000000000027,-0.42999999999999994,-0.0050000000000000044,-0.020259999999999945,0.08594000000000013,-0.26757999999999993,1742237482.853755
-0.135,0.45500000000000007,0.43999999999999995,0.13074000000000008,-0.26294000000000006,-0.21129999999999993,-0.21999999999999997,-0.575,0.08000000000000007,-0.05944000000000005,-0.1433199999999999,-0.16381999999999997,1742237482.967698
-0.07000000000000006,0.2250000000000001,0.5049999999999999,-0.0675,0.2145999999999999,-0.271,-0.30499999999999994,-0.57,0.22999999999999998,-0.20568000000000008,-0.30762,0.09301999999999988,1742237483.087125
0.15500000000000003,0.1299999999999999,0.2749999999999999,-0.10363999999999995,0.41759999999999997,-0.04174,-0.29000000000000004,-0.3400000000000001,0.41500000000000004,-0.0966800000000001,-0.06323999999999996,0.26513999999999993,1742237483.205742
0.23499999999999988,0.29000000000000004,-0.050000000000000044,-0.05235999999999996,0.27368000000000015,0.2401199999999999,-0.06499999999999995,-0.28,0.31499999999999995,0.11511999999999989,0.27661999999999987,0.14196000000000009,1742237483.309485
0.09000000000000008,0.6499999999999999,-0.05500000000000005,0.18432000000000004,-0.15222000000000002,0.3667,0.06499999999999995,-0.275,0.125,0.08166000000000007,0.32788000000000017,-0.1127999999999999,1742237483.42343
-0.05500000000000005,0.56,0.2250000000000001,0.11280000000000001,-0.4264,-0.08398000000000005,-0.04500000000000004,-0.53,-0.08499999999999996,-0.08692,-0.008919999999999928,-0.27868000000000004,1742237483.537833
-0.19500000000000006,0.47,0.5,0.17211999999999983,-0.11205999999999994,-0.20728000000000002,-0.25,-0.53,0.19999999999999996,-0.21777999999999997,-0.2987000000000001,-0.05688000000000004,1742237483.6516328
0.0,0.18999999999999995,0.4099999999999999,-0.04527999999999999,0.2711199999999998,-0.2700199999999999,-0.32000000000000006,-0.485,0.345,-0.14124000000000003,-0.14672000000000007,0.1713800000000001,1742237483.771906
0.20999999999999996,0.135,0.20500000000000007,-0.06176000000000004,0.34412,0.03980000000000006,-0.13,-0.29499999999999993,0.3500000000000001,0.15124000000000004,0.14207999999999998,0.2832000000000001,1742237483.8917
0.2250000000000001,0.3599999999999999,-0.06000000000000005,0.018320000000000114,0.20751999999999993,0.31494,0.03499999999999992,-0.265,0.25,0.04747999999999997,0.2939400000000001,-0.0043999999999999595,1742237483.992448
0.03499999999999992,0.6600000000000001,0.08000000000000007,0.1606399999999999,-0.31555999999999995,0.21948000000000012,0.02499999999999991,-0.42500000000000004,-0.025000000000000022,0.03308,0.11450000000000005,-0.17334000000000005,1742237484.1069288
-0.135,0.585,0.3500000000000001,0.11681999999999992,-0.31188000000000005,-0.10986000000000007,-0.13,-0.545,0.08000000000000007,-0.22912,-0.13525999999999994,-0.28124000000000005,1742237484.226911
-0.125,0.3700000000000001,0.4650000000000001,0.08190000000000008,0.013919999999999932,-0.2563399999999999,-0.35,-0.555,0.29499999999999993,-0.12634,-0.2669600000000001,0.08484000000000003,1742237484.346519
0.10499999999999998,0.18500000000000005,0.33499999999999996,-0.06347999999999998,0.26281999999999983,-0.19996000000000003,-0.26,-0.3400000000000001,0.42500000000000004,0.02844000000000002,0.006220000000000114,0.29200000000000004,1742237484.4484138
0.22999999999999998,0.18999999999999995,0.1200000000000001,-0.0650599999999999,0.3099400000000001,0.12464000000000008,0.0,-0.26,0.28,0.17199999999999993,0.2744200000000001,0.14832,1742237484.562413
0.16999999999999993,0.49,-0.07999999999999996,0.23631999999999986,0.032480000000000064,0.37463999999999986,0.04499999999999993,-0.345,0.03499999999999992,0.023320000000000007,0.3087200000000001,-0.1850599999999999,1742237484.676364
-0.06499999999999995,0.635,0.23499999999999988,0.11376000000000008,-0.3775599999999999,0.0012199999999999989,-0.10999999999999999,-0.55,0.03499999999999992,-0.10914000000000001,0.030160000000000187,-0.24315999999999993,1742237484.791977
-0.17000000000000004,0.5550000000000002,0.43500000000000005,0.10997999999999997,-0.20910000000000006,-0.19226,-0.21999999999999997,-0.54,0.17999999999999994,-0.13024000000000002,-0.30200000000000005,-0.04125999999999996,1742237484.912614
0.0,0.2849999999999999,0.3799999999999999,0.00024000000000001798,0.14002000000000003,-0.30479999999999996,-0.28,-0.4650000000000001,0.30499999999999994,-0.16113999999999995,-0.26305999999999996,0.1822600000000001,1742237485.033877
0.19500000000000006,0.1200000000000001,0.2549999999999999,-0.09974000000000005,0.3038399999999999,-0.07591999999999999,-0.20999999999999996,-0.36,0.365,0.025640000000000107,-0.0042799999999999505,0.29968000000000017,1742237485.132476
0.20500000000000007,0.365,-0.040000000000000036,0.023320000000000007,0.30932000000000004,0.30479999999999996,-0.015000000000000013,-0.29000000000000004,0.2849999999999999,0.10131999999999985,0.2048399999999999,0.11292000000000013,1742237485.246465
0.08000000000000007,0.5449999999999999,0.030000000000000027,0.20300000000000007,-0.23875999999999997,0.2623199999999999,0.05499999999999994,-0.3400000000000001,0.07499999999999996,0.07275999999999994,0.29492000000000007,-0.16137999999999997,1742237485.366178
-0.08499999999999996,0.5249999999999999,0.26,0.07433999999999985,-0.25794000000000006,-0.02088000000000001,-0.07499999999999996,-0.545,0.02499999999999991,-0.3109200000000001,0.06140000000000012,-0.31568000000000007,1742237485.4861708
-0.17999999999999994,0.5550000000000002,0.42500000000000004,0.15870000000000006,-0.14648000000000005,-0.2316800000000001,-0.22499999999999998,-0.485,0.27,-0.10096000000000005,-0.33055999999999996,0.08874000000000004,1742237485.588662
0.020000000000000018,0.15500000000000003,0.3999999999999999,-0.04625999999999997,0.2545200000000001,-0.26525999999999994,-0.27,-0.41500000000000004,0.3700000000000001,-0.13805999999999996,-0.19898000000000005,0.12071999999999994,1742237485.70256
0.17500000000000004,0.17500000000000004,0.2450000000000001,-0.014780000000000015,0.33007999999999993,0.06529999999999991,-0.18999999999999995,-0.2849999999999999,0.3900000000000001,0.06054000000000004,0.08630000000000004,0.2544000000000002,1742237485.816363
0.17999999999999994,0.41500000000000004,-0.04500000000000004,-0.034540000000000015,0.16296,0.29736000000000007,-0.0050000000000000044,-0.20999999999999996,0.33499999999999996,0.14257999999999993,0.28454,0.06176000000000004,1742237485.931328
0.06499999999999995,0.5800000000000001,0.08000000000000007,0.27868000000000004,-0.39686,0.15026000000000006,0.050000000000000044,-0.38,0.06000000000000005,-0.14490000000000003,0.33166000000000007,-0.29089999999999994,1742237486.0519118
-0.17999999999999994,0.5,0.42500000000000004,-0.05041999999999991,-0.28454,-0.13427999999999995,-0.17000000000000004,-0.495,0.29000000000000004,-0.11803999999999992,-0.28492000000000006,-0.08665999999999996,1742237486.172678
-0.125,0.3999999999999999,0.45500000000000007,0.048699999999999966,0.03905999999999987,-0.24609999999999999,-0.265,-0.4099999999999999,0.41500000000000004,-0.010739999999999972,-0.24327999999999994,0.1302399999999999,1742237486.272547
0.06499999999999995,0.2549999999999999,0.33499999999999996,-0.10450000000000004,0.29027999999999987,-0.26844,-0.22499999999999998,-0.4099999999999999,0.3700000000000001,0.11218000000000017,-0.04589999999999994,0.2805199999999999,1742237486.387719
0.2450000000000001,0.20500000000000007,0.125,-0.12890000000000001,0.30821999999999994,0.027220000000000022,-0.015000000000000013,-0.30000000000000004,0.29000000000000004,0.15442,0.26380000000000003,0.12475999999999998,1742237486.5067132
0.20999999999999996,0.48,-0.11499999999999999,0.43103999999999987,0.12426000000000004,0.37451999999999996,0.06499999999999995,-0.365,0.07000000000000006,-0.032480000000000064,0.3346,-0.18065999999999993,1742237486.62717
-0.025000000000000022,0.5899999999999999,0.26,0.17774,-0.47974000000000006,0.038819999999999855,-0.04500000000000004,-0.485,0.10000000000000009,-0.23414000000000001,-0.049919999999999964,-0.27686,1742237486.728557
-0.15500000000000003,0.4750000000000001,0.45500000000000007,0.10438000000000014,-0.18896000000000002,-0.22046,-0.265,-0.48,0.30000000000000004,-0.11694000000000004,-0.33948,0.04688000000000003,1742237486.842579
-0.010000000000000009,0.29499999999999993,0.405,0.05249999999999999,0.16602000000000006,-0.19689999999999996,-0.30499999999999994,-0.42500000000000004,0.395,-0.041139999999999954,-0.20311999999999997,0.22706000000000004,1742237486.956469
0.1499999999999999,0.15500000000000003,0.29000000000000004,-0.0968,0.3097000000000001,-0.07811999999999997,-0.11499999999999999,-0.32499999999999996,0.31000000000000005,0.16480000000000006,0.07288000000000006,0.29772,1742237487.0732758
0.24,0.21999999999999997,0.050000000000000044,-0.15186,0.30468000000000006,0.20544000000000007,0.02499999999999991,-0.32499999999999996,0.21500000000000008,0.11280000000000001,0.23131999999999997,0.053099999999999925,1742237487.193356
0.14000000000000012,0.6099999999999999,0.014999999999999902,0.1518600000000001,-0.20362000000000002,0.27368000000000015,0.03499999999999992,-0.42999999999999994,-0.020000000000000018,0.10655999999999999,0.23218000000000005,-0.13978000000000002,1742237487.313826
-0.07000000000000006,0.5800000000000001,0.2849999999999999,0.23694000000000015,-0.3971,-0.018059999999999965,-0.06000000000000005,-0.555,-0.0050000000000000044,-0.18725999999999998,-0.060799999999999965,-0.2527999999999999,1742237487.412661
-0.17500000000000004,0.3500000000000001,0.5350000000000001,0.1373199999999999,-0.028320000000000012,-0.23926000000000003,-0.22499999999999998,-0.555,0.16500000000000004,-0.16370000000000007,-0.2782,0.06872000000000011,1742237487.527267
0.08499999999999996,0.125,0.355,-0.05176000000000003,0.3332599999999999,-0.21129999999999993,-0.245,-0.44999999999999996,0.32000000000000006,-0.12732,-0.1532,0.17613999999999996,1742237487.648361
0.2650000000000001,0.09499999999999997,0.19500000000000006,-0.038940000000000086,0.31298000000000004,0.09057999999999988,-0.09999999999999998,-0.37,0.2749999999999999,0.15588000000000002,0.1299999999999999,0.22009999999999996,1742237487.767017
0.24,0.3700000000000001,0.014999999999999902,0.11414000000000013,0.04675999999999991,0.3334999999999999,0.04499999999999993,-0.33000000000000007,0.15999999999999992,0.04614000000000007,0.3148199999999999,-0.03308,1742237487.868352
0.020000000000000018,0.5800000000000001,0.19999999999999996,0.16016000000000008,-0.3479,0.16578000000000004,0.040000000000000036,-0.41500000000000004,-0.015000000000000013,0.08460000000000001,0.1236600000000001,-0.17164000000000001,1742237487.982479
-0.13,0.5,0.4099999999999999,0.13707999999999987,-0.35229999999999995,-0.20252000000000003,-0.09999999999999998,-0.57,-0.0050000000000000044,-0.18603999999999998,-0.07128000000000001,-0.21618000000000004,1742237488.0966542
-0.14,0.23499999999999988,0.5249999999999999,0.018179999999999863,0.026980000000000004,-0.25,-0.26,-0.535,0.21500000000000008,-0.22265999999999997,-0.26014000000000004,0.05030000000000001,1742237488.2139142
0.06000000000000005,0.17500000000000004,0.355,-0.18982,0.33288000000000006,-0.18786000000000003,-0.245,-0.405,0.33499999999999996,-0.07044000000000006,-0.13061999999999996,0.20472,1742237488.333803
0.24,0.26,0.1100000000000001,-0.07665999999999995,0.33031999999999995,0.09118000000000004,-0.07000000000000006,-0.37,0.25,0.19324000000000008,0.14904000000000006,0.27624000000000004,1742237488.4543731
0.20500000000000007,0.44500000000000006,0.04499999999999993,-0.04161999999999999,-0.01305999999999996,0.2192400000000001,0.05499999999999994,-0.345,0.14500000000000002,0.08874000000000004,0.31104,0.009039999999999937,1742237488.55241
0.09000000000000008,0.5550000000000002,0.08000000000000007,0.07044000000000006,-0.06677999999999995,0.19506,0.06000000000000005,-0.395,0.014999999999999902,-0.11803999999999992,0.2924800000000001,-0.24402000000000001,1742237488.667049
-0.030000000000000027,0.565,0.23499999999999988,0.22668,-0.26868000000000003,0.011719999999999953,-0.11499999999999999,-0.585,0.08000000000000007,-0.22351999999999994,-0.09875999999999996,-0.26757999999999993,1742237488.787227
-0.09499999999999997,0.405,0.44999999999999996,0.14647999999999994,-0.03295999999999999,-0.20068000000000008,-0.29000000000000004,-0.48,0.2749999999999999,-0.16991999999999996,-0.29625999999999997,0.12646000000000002,1742237488.907426
0.07000000000000006,0.21500000000000008,0.3799999999999999,-0.07434000000000007,0.19713999999999987,-0.24560000000000004,-0.19500000000000006,-0.45500000000000007,0.30499999999999994,0.020140000000000047,-0.10314000000000001,0.30078000000000005,1742237489.0083451
0.20999999999999996,0.21999999999999997,0.17999999999999994,-0.07728000000000002,0.3320399999999999,0.05726000000000009,-0.020000000000000018,-0.35,0.2650000000000001,0.17931999999999992,0.17578000000000005,0.21448,1742237489.122197
0.26,0.32000000000000006,0.05499999999999994,0.12280000000000002,0.12817999999999996,0.21716000000000002,0.08499999999999996,-0.35,0.11499999999999999,0.10046,0.3140799999999999,-0.04834000000000005,1742237489.236171
0.09000000000000008,0.6200000000000001,0.14000000000000012,0.26038000000000006,-0.3258,0.2527999999999999,0.010000000000000009,-0.485,-0.05500000000000005,-0.2158199999999999,0.27136000000000005,-0.27454,1742237489.353572
-0.07000000000000006,0.45999999999999996,0.41500000000000004,-0.034540000000000015,-0.18896000000000002,-0.2389,-0.15500000000000003,-0.56,0.135,-0.23803999999999992,-0.2511,-0.13037999999999994,1742237489.477345
-0.015000000000000013,0.32000000000000006,0.48,0.008539999999999992,0.06347999999999998,-0.25354,-0.27,-0.485,0.30499999999999994,-0.11548000000000003,-0.29236000000000006,0.19457999999999998,1742237489.594867
0.16500000000000004,0.16500000000000004,0.345,-0.06335999999999997,0.28332,-0.09423999999999999,-0.15000000000000002,-0.365,0.3500000000000001,0.06761999999999979,-0.0030599999999999516,0.30152,1742237489.692422
0.2549999999999999,0.345,0.07000000000000006,0.12109999999999999,0.30396,0.15783999999999998,0.010000000000000009,-0.33499999999999996,0.2549999999999999,0.1800599999999999,0.1665000000000001,0.15466000000000002,1742237489.8072069
0.20500000000000007,0.4099999999999999,0.125,0.31079999999999997,-0.2584200000000001,0.22974000000000006,0.030000000000000027,-0.44999999999999996,0.050000000000000044,-0.08728000000000002,0.4686199999999998,-0.16931999999999992,1742237489.929044
0.010000000000000009,0.31499999999999995,0.44999999999999996,0.045660000000000034,-0.33299999999999996,-0.15025999999999995,0.020000000000000018,-0.45500000000000007,0.08499999999999996,-0.19835999999999998,-0.04834000000000005,-0.17015999999999998,1742237490.048692
-0.07000000000000006,0.4099999999999999,0.56,-0.07238,-0.01427999999999996,-0.18420000000000003,-0.16500000000000004,-0.475,0.32000000000000006,-0.12658000000000003,-0.3769600000000001,0.06542000000000003,1742237490.1474009
0.06499999999999995,0.15500000000000003,0.44999999999999996,-0.05455999999999994,0.22840000000000016,-0.23387999999999998,-0.19500000000000006,-0.44500000000000006,0.3799999999999999,0.0035399999999998766,-0.15734000000000004,0.2176600000000002,1742237490.261337
0.2450000000000001,0.030000000000000027,0.27,-0.024780000000000024,0.24963999999999986,0.020019999999999927,-0.04500000000000004,-0.3400000000000001,0.31000000000000005,0.14892000000000016,0.10167999999999999,0.21520000000000006,1742237490.375584
0.24,0.375,0.10000000000000009,0.24218000000000006,0.08531999999999984,0.29944000000000015,0.09499999999999997,-0.32000000000000006,0.20500000000000007,0.03747999999999996,0.2785599999999999,-0.032340000000000035,1742237490.494741
0.030000000000000027,0.42999999999999994,0.45500000000000007,0.21911999999999998,-0.28748000000000007,0.04357999999999995,0.02499999999999991,-0.41500000000000004,0.014999999999999902,0.17613999999999996,0.18725999999999998,-0.12597999999999998,1742237490.614978
-0.030000000000000027,0.33000000000000007,0.49,0.00035999999999991594,-0.22399999999999998,-0.1802999999999999,-0.020000000000000018,-0.6,-0.05500000000000005,-0.15136000000000005,-0.11536000000000002,-0.18946000000000007,1742237490.734737
-0.10499999999999998,0.14500000000000002,0.6200000000000001,0.0030599999999998406,0.04090000000000016,-0.27686,-0.21999999999999997,-0.555,0.2450000000000001,-0.25146,-0.31933999999999996,-0.054320000000000035,1742237490.831595
0.1299999999999999,0.014999999999999902,0.3999999999999999,-0.06286000000000003,0.35461999999999994,-0.08665999999999996,-0.22499999999999998,-0.41500000000000004,0.3500000000000001,-0.05737999999999999,-0.07508000000000004,0.19713999999999987,1742237490.948704
0.25,0.08000000000000007,0.20999999999999996,0.21716000000000002,0.19544000000000006,0.28918,-0.03500000000000003,-0.33499999999999996,0.30000000000000004,0.12963999999999998,0.10888000000000009,0.21216000000000013,1742237491.067689
0.14500000000000002,0.365,0.2650000000000001,0.05848000000000009,-0.12463999999999997,0.29528,0.09499999999999997,-0.31000000000000005,0.18999999999999995,-0.015739999999999976,0.28601999999999994,-0.09301999999999999,1742237491.187438
-0.0050000000000000044,0.405,0.44999999999999996,0.06298000000000004,-0.26086,-0.08129999999999993,0.06499999999999995,-0.4,0.040000000000000036,-0.06725999999999999,0.14769999999999994,-0.22631999999999997,1742237491.287319
-0.10499999999999998,0.30499999999999994,0.5150000000000001,0.06188000000000016,-0.28662,-0.1925,-0.125,-0.53,0.16999999999999993,-0.14478000000000002,-0.16784,-0.15001999999999993,1742237491.4015
-0.21499999999999997,0.16500000000000004,0.6099999999999999,-0.033320000000000016,0.06335999999999986,-0.30872,-0.25,-0.485,0.33000000000000007,-0.06568000000000007,-0.25794000000000006,0.07457999999999987,1742237491.515445
0.08000000000000007,0.06499999999999995,0.3700000000000001,-0.10084000000000004,0.40148000000000006,-0.12670000000000003,-0.245,-0.405,0.405,0.017079999999999984,-0.02429999999999999,0.21423999999999999,1742237491.633356
0.23499999999999988,0.09499999999999997,0.17500000000000004,0.16979999999999995,0.2389000000000001,0.32457999999999987,-0.015000000000000013,-0.30499999999999994,0.31000000000000005,0.14379999999999993,0.24303999999999992,0.15198,1742237491.753448
0.1100000000000001,0.54,0.2250000000000001,0.16931999999999992,-0.24353999999999998,0.40979999999999994,0.10000000000000009,-0.31499999999999995,0.125,0.045539999999999914,0.28601999999999994,-0.11548000000000003,1742237491.873486
-0.0050000000000000044,0.4849999999999999,0.3700000000000001,-0.08789999999999998,-0.26561999999999997,-0.1543,0.004999999999999893,-0.4650000000000001,0.02499999999999991,-0.057499999999999996,0.016960000000000086,-0.16649999999999998,1742237491.971255
-0.16000000000000003,0.405,0.4950000000000001,-0.01305999999999996,-0.33544000000000007,-0.29200000000000004,-0.15000000000000002,-0.515,0.16500000000000004,-0.22411999999999999,-0.24708000000000008,-0.12390000000000001,1742237492.087504
-0.07499999999999996,0.30499999999999994,0.48,-0.042120000000000046,0.23461999999999983,-0.20544000000000007,-0.26,-0.505,0.31000000000000005,-0.05786000000000002,-0.17003999999999997,0.07142000000000004,1742237492.208215
0.1499999999999999,0.20500000000000007,0.27,-0.07677999999999996,0.29528,-0.09020000000000006,-0.18999999999999995,-0.39,0.33499999999999996,0.029779999999999918,-0.02294000000000007,0.2280199999999999,1742237492.327156
0.2250000000000001,0.29000000000000004,0.1100000000000001,0.07885999999999993,0.18432000000000004,0.2415799999999999,-0.03500000000000003,-0.31000000000000005,0.31499999999999995,0.08397999999999994,0.1348800000000001,0.12561999999999984,1742237492.427169
0.14500000000000002,0.56,0.07499999999999996,0.03320000000000012,-0.16015999999999997,0.2540199999999999,0.04499999999999993,-0.29000000000000004,0.14000000000000012,0.09766000000000008,0.31152,-0.11987999999999999,1742237492.541143
-0.0050000000000000044,0.5350000000000001,0.21500000000000008,-0.0037800000000000056,-0.25476,-0.017340000000000022,-0.09999999999999998,-0.545,-0.05500000000000005,-0.23962000000000006,0.07299999999999995,-0.37048000000000003,1742237492.667051
-0.10999999999999999,0.55,0.355,0.12866,-0.24609999999999999,-0.1641800000000001,-0.28,-0.5,0.22999999999999998,-0.11768000000000012,-0.33886000000000005,0.04577999999999993,1742237492.769351
-0.07999999999999996,0.2749999999999999,0.42999999999999994,0.05346000000000006,0.10777999999999999,-0.2839400000000001,-0.30499999999999994,-0.42999999999999994,0.365,-0.12475999999999998,-0.19079999999999997,0.1802999999999999,1742237492.883244
0.10000000000000009,0.135,0.32499999999999996,-0.012940000000000063,0.33240000000000003,-0.040159999999999973,-0.17999999999999994,-0.365,0.3700000000000001,0.10498000000000007,0.10301999999999989,0.28796,1742237492.997178
0.24,0.3599999999999999,-0.015000000000000013,-0.10560000000000003,0.3438800000000002,0.18836000000000008,0.030000000000000027,-0.265,0.22999999999999998,0.08654000000000006,0.31542000000000003,0.04492000000000007,1742237493.11441
0.1499999999999999,0.625,-0.0050000000000000044,0.19677999999999995,-0.09814,0.36009999999999986,0.014999999999999902,-0.375,-0.0050000000000000044,-0.20189999999999997,0.14196000000000009,-0.34251999999999994,1742237493.233235
-0.050000000000000044,0.5550000000000002,0.2650000000000001,0.04590000000000005,-0.3476600000000001,-0.09448000000000001,-0.19999999999999996,-0.57,0.16999999999999993,-0.20641999999999994,-0.17625999999999997,-0.18334000000000006,1742237493.353618
-0.14500000000000002,0.51,0.42500000000000004,0.05884,-0.14561999999999997,-0.25598,-0.33000000000000007,-0.5,0.33000000000000007,-0.04394000000000009,-0.32153999999999994,0.20788000000000006,1742237493.452214
0.030000000000000027,0.22999999999999998,0.3900000000000001,-0.06603999999999999,0.16113999999999984,-0.30566000000000004,-0.25,-0.38,0.42500000000000004,0.05750000000000011,0.07044000000000006,0.27513999999999994,1742237493.568518
0.19999999999999996,0.10000000000000009,0.23499999999999988,-0.043220000000000036,0.3712200000000001,0.024900000000000144,0.0,-0.31000000000000005,0.2849999999999999,0.13916000000000017,0.26025999999999994,0.16759999999999997,1742237493.687834
0.21999999999999997,0.51,-0.20999999999999996,0.18530000000000002,0.3507,0.38928000000000007,0.10499999999999998,-0.30000000000000004,0.14000000000000012,-0.05125999999999997,0.2844200000000001,-0.14415999999999995,1742237493.806582
0.020000000000000018,0.55,0.19999999999999996,-0.002080000000000082,-0.42322000000000004,0.029179999999999984,-0.040000000000000036,-0.48,-0.015000000000000013,-0.09277999999999997,0.012199999999999989,-0.28698,1742237493.9073431
-0.07999999999999996,0.615,0.27,-0.14454,-0.37818000000000007,-0.20129999999999992,-0.19999999999999996,-0.53,0.17999999999999994,-0.18518,-0.26392000000000004,-0.09326000000000001,1742237494.021408
-0.07000000000000006,0.44500000000000006,0.405,0.16662,-0.0039000000000000146,-0.15186,-0.36,-0.49,0.3599999999999999,-0.18553999999999993,-0.2700199999999999,0.19653999999999994,1742237494.135306
0.125,0.2650000000000001,0.2749999999999999,-0.06603999999999999,0.2906399999999998,-0.20996000000000004,-0.21499999999999997,-0.30499999999999994,0.3999999999999999,0.02293999999999996,0.09888000000000008,0.28503999999999996,1742237494.253973
0.21999999999999997,0.29499999999999993,-0.06499999999999995,0.1730999999999998,0.4648399999999999,0.1985999999999999,0.03499999999999992,-0.24,0.30000000000000004,0.06054000000000004,0.25903999999999994,0.07850000000000001,1742237494.374002
0.14500000000000002,0.4650000000000001,0.11499999999999999,0.2535399999999999,-0.14612000000000003,0.3237399999999999,0.07499999999999996,-0.345,0.135,-0.2268,0.25195999999999996,-0.3061600000000001,1742237494.476178
0.030000000000000027,0.5800000000000001,0.26,0.08081999999999989,-0.4450599999999999,-0.06286000000000003,-0.10499999999999998,-0.375,0.24,-0.1945800000000001,-0.28576,-0.23084000000000005,1742237494.5903502
-0.12,0.4099999999999999,0.5249999999999999,0.19897999999999993,-0.12597999999999998,-0.27222,-0.375,-0.405,0.42500000000000004,-0.03088000000000002,-0.2575599999999999,0.13990000000000014,1742237494.708142
0.04499999999999993,0.16500000000000004,0.43500000000000005,0.027959999999999985,0.27868000000000004,-0.20948,-0.385,-0.33000000000000007,0.51,0.06225999999999998,0.033320000000000016,0.36694000000000004,1742237494.827368
0.07499999999999996,0.41500000000000004,0.17999999999999994,0.0025599999999998957,-0.15612000000000004,0.24536000000000002,-0.06499999999999995,-0.17500000000000004,0.7349999999999999,-0.033320000000000016,-0.07713999999999999,0.21813999999999978,1742222043.923704
-0.0050000000000000044,0.45500000000000007,0.5249999999999999,-0.037719999999999976,-0.25988,-0.07799999999999996,0.04499999999999993,0.05499999999999994,0.6699999999999999,0.07702000000000009,0.22436000000000011,0.13561999999999985,1742222044.03705
-0.08499999999999996,0.29000000000000004,0.675,0.06140000000000012,-0.17212000000000005,-0.22950000000000004,0.16500000000000004,0.02499999999999991,0.33499999999999996,0.043220000000000036,0.26636000000000015,-0.11009999999999998,1742222044.1509728
-0.07999999999999996,-0.015000000000000013,0.635,0.1190199999999999,0.11426000000000003,-0.20263999999999993,0.15999999999999992,-0.17000000000000004,0.15500000000000003,0.009879999999999889,0.06054000000000004,-0.21263999999999994,1742222044.2650108
0.06499999999999995,-0.10999999999999999,0.405,0.059579999999999966,0.3114000000000001,0.007319999999999993,-0.05500000000000005,-0.395,0.2849999999999999,-0.09129999999999994,-0.20594,-0.15246000000000004,1742222044.378711
0.16999999999999993,-0.06499999999999995,0.17999999999999994,-0.05725999999999998,0.1248800000000001,0.28344000000000014,-0.135,-0.41500000000000004,0.5049999999999999,-0.09533999999999998,-0.24012,0.062019999999999964,1742222044.491885
0.05499999999999994,0.405,0.20500000000000007,0.12083999999999984,-0.21998000000000006,0.28454,-0.12,-0.235,0.6949999999999998,-0.060659999999999936,-0.13598,0.22204000000000002,1742222044.6095512
-0.050000000000000044,0.365,0.5249999999999999,-0.06640000000000001,-0.25085999999999997,-0.07689999999999997,-0.010000000000000009,0.014999999999999902,0.685,0.07055999999999996,0.20228000000000002,0.16809999999999992,1742222044.7191029
-0.14500000000000002,0.31000000000000005,0.635,0.013299999999999867,-0.17053999999999991,-0.21984000000000004,0.17999999999999994,0.0,0.33499999999999996,0.04638000000000009,0.3211600000000001,-0.048960000000000004,1742222044.83299
-0.125,0.0,0.6499999999999999,0.10546000000000011,0.09361999999999981,-0.21302,0.15999999999999992,-0.15500000000000003,0.18999999999999995,-0.010739999999999972,0.09167999999999998,-0.20886000000000005,1742222044.9495811
0.010000000000000009,-0.08499999999999996,0.45500000000000007,0.10340000000000016,0.30590000000000006,0.00024000000000001798,-0.03500000000000003,-0.36,0.25,-0.09118000000000004,-0.17810000000000004,-0.17589999999999995,1742222045.060746
0.15500000000000003,-0.13,0.22999999999999998,-0.010000000000000009,0.16381999999999985,0.24634,-0.125,-0.4,0.44999999999999996,-0.11108000000000007,-0.24024,0.02635999999999994,1742222045.17389
0.06000000000000005,0.365,0.19999999999999996,-0.05384,-0.07374000000000003,0.2761199999999999,-0.15500000000000003,-0.2849999999999999,0.665,-0.08960000000000001,-0.18103999999999998,0.20886000000000005,1742222045.290561
-0.015000000000000013,0.44500000000000006,0.5,-0.04271999999999998,-0.23399999999999999,-0.013299999999999979,-0.050000000000000044,-0.0050000000000000044,0.71,0.06957999999999998,0.1358600000000001,0.21679999999999988,1742222045.402001
-0.10499999999999998,0.32000000000000006,0.6400000000000001,0.012820000000000054,-0.14490000000000003,-0.21204,0.1299999999999999,0.04499999999999993,0.385,0.06042000000000014,0.33386000000000005,-0.022580000000000044,1742222045.515877
-0.09499999999999997,0.004999999999999893,0.685,0.09838000000000013,0.10107999999999984,-0.21972000000000003,0.16500000000000004,-0.08999999999999997,0.19500000000000006,0.0307599999999999,0.16711999999999994,-0.20704,1742222045.6305711
0.03499999999999992,-0.09999999999999998,0.44999999999999996,0.08275999999999994,0.29908,-0.010739999999999972,-0.04500000000000004,-0.405,0.24,-0.05700000000000005,-0.11158000000000001,-0.2045800000000001,1742222045.751303
0.18500000000000005,-0.09999999999999998,0.19500000000000006,-0.056520000000000015,0.12853999999999988,0.26258000000000004,-0.08499999999999996,-0.43500000000000005,0.41999999999999993,-0.11303999999999992,-0.22105999999999992,0.03685999999999989,1742222045.857879
0.08499999999999996,0.3500000000000001,0.19500000000000006,0.0006200000000000649,-0.09350000000000003,0.2378,-0.11499999999999999,-0.35,0.605,0.0034199999999999786,-0.18616,0.18396000000000012,1742222045.971766
0.020000000000000018,0.375,0.4849999999999999,-0.007320000000000104,-0.21814,-0.016720000000000068,-0.04500000000000004,-0.040000000000000036,0.7450000000000001,0.04590000000000005,0.15417999999999998,0.20276000000000005,1742222046.090538
-0.05500000000000005,0.3700000000000001,0.6099999999999999,-0.05358000000000007,-0.20799999999999996,-0.18065999999999993,0.135,-0.0050000000000000044,0.3999999999999999,0.030279999999999863,0.31555999999999984,-0.017080000000000095,1742222046.199988
-0.10499999999999998,0.1200000000000001,0.6699999999999999,0.05750000000000011,0.06603999999999988,-0.22546,0.1499999999999999,-0.14500000000000002,0.17500000000000004,-0.0015800000000000258,0.09448000000000012,-0.21020000000000005,1742222046.3138912
0.040000000000000036,-0.050000000000000044,0.43999999999999995,0.10607999999999995,0.29102000000000006,-0.048820000000000086,-0.050000000000000044,-0.39,0.2450000000000001,-0.08020000000000005,-0.15894000000000008,-0.17149999999999999,1742222046.430787
0.17500000000000004,-0.09999999999999998,0.21999999999999997,-0.06628,0.14440000000000008,0.20897999999999994,-0.10999999999999999,-0.43500000000000005,0.42999999999999994,-0.09533999999999998,-0.23474000000000006,0.01868000000000003,1742222046.541763
0.135,0.2549999999999999,0.19500000000000006,0.015139999999999931,-0.13451999999999997,0.24083999999999994,-0.15500000000000003,-0.32499999999999996,0.655,-0.07508000000000004,-0.1593,0.1816399999999998,1742222046.65587
0.004999999999999893,0.4950000000000001,0.44999999999999996,-0.028079999999999994,-0.2118,0.042240000000000055,-0.06499999999999995,-0.08499999999999996,0.6699999999999999,0.043460000000000054,0.14734000000000003,0.21374000000000004,1742222046.771553
-0.06000000000000005,0.41500000000000004,0.5800000000000001,-0.08189999999999997,-0.18676000000000004,-0.14148000000000005,0.1200000000000001,0.010000000000000009,0.3799999999999999,0.034540000000000015,0.3073800000000002,-0.0043999999999999595,1742222046.883984
-0.10499999999999998,0.19999999999999996,0.655,0.07764000000000015,0.031119999999999814,-0.23572000000000004,0.135,-0.135,0.2250000000000001,0.04821999999999993,0.11280000000000001,-0.22596000000000005,1742222046.99776
0.02499999999999991,-0.0050000000000000044,0.4849999999999999,0.12220000000000009,0.25048000000000004,-0.08984000000000003,-0.03500000000000003,-0.4,0.2450000000000001,-0.026739999999999986,-0.07213999999999998,-0.17577999999999994,1742222047.111755
0.17500000000000004,-0.06499999999999995,0.25,-0.028320000000000012,0.19446000000000008,0.1630799999999999,-0.09499999999999997,-0.44500000000000006,0.3999999999999999,-0.10084000000000004,-0.21618000000000004,-0.006840000000000068,1742222047.231164
0.14500000000000002,0.25,0.18999999999999995,-0.04822000000000004,-0.07238,0.25976,-0.16500000000000004,-0.32499999999999996,0.5899999999999999,-0.12279999999999991,-0.20275999999999994,0.17188000000000003,1742222047.339767
0.010000000000000009,0.4650000000000001,0.405,0.040039999999999853,-0.25366,0.09814000000000012,-0.11499999999999999,-0.08999999999999997,0.7149999999999999,-0.024660000000000015,0.07909999999999995,0.23096000000000005,1742222047.453682
-0.07000000000000006,0.45999999999999996,0.54,-0.0029199999999999227,-0.15405999999999997,-0.13561999999999996,0.08499999999999996,0.010000000000000009,0.43500000000000005,0.06006,0.2939400000000001,0.059819999999999984,1742222047.56699
-0.08499999999999996,0.19999999999999996,0.6499999999999999,0.07654000000000005,-0.02185999999999999,-0.24218000000000006,0.16500000000000004,-0.05500000000000005,0.23499999999999988,0.04590000000000005,0.19446000000000008,-0.16552,1742222047.680922
0.010000000000000009,-0.030000000000000027,0.5049999999999999,0.09436,0.22730000000000006,-0.10851999999999995,-0.010000000000000009,-0.33499999999999996,0.23499999999999988,-0.009279999999999955,-0.06934000000000007,-0.18884,1742222047.7947872
0.15999999999999992,-0.08499999999999996,0.31499999999999995,0.026980000000000004,0.20079999999999987,0.10961999999999983,-0.08999999999999997,-0.45500000000000007,0.3700000000000001,-0.055419999999999914,-0.19396000000000002,-0.05589999999999995,1742222047.911405
0.1499999999999999,0.1499999999999999,0.19999999999999996,-0.05041999999999991,-0.016240000000000032,0.27293999999999996,-0.13,-0.33000000000000007,0.53,-0.10010000000000008,-0.20826,0.07740000000000014,1742222048.021769
0.04499999999999993,0.43999999999999995,0.2650000000000001,-0.022220000000000018,-0.21216000000000002,0.18420000000000014,-0.13,-0.22499999999999998,0.6949999999999998,-0.023799999999999932,0.01428000000000007,0.20751999999999993,1742222048.135765
-0.06000000000000005,0.55,0.4650000000000001,-0.016120000000000023,-0.23339999999999994,-0.07713999999999999,0.020000000000000018,-0.015000000000000013,0.5049999999999999,0.018799999999999928,0.24122,0.10167999999999999,1742222048.250952
-0.14500000000000002,0.3500000000000001,0.675,0.08081999999999989,-0.07934000000000008,-0.2377999999999999,0.1499999999999999,-0.030000000000000027,0.29499999999999993,0.024660000000000126,0.22521999999999998,-0.13061999999999996,1742222048.363915
-0.03500000000000003,0.050000000000000044,0.5449999999999999,0.12182000000000004,0.19288000000000016,-0.16759999999999997,-0.025000000000000022,-0.2849999999999999,0.2250000000000001,-0.0043999999999999595,-0.005499999999999949,-0.2329199999999999,1742222048.477922
0.1100000000000001,-0.030000000000000027,0.365,0.10753999999999997,0.24890000000000012,0.0317400000000001,-0.13,-0.47,0.3700000000000001,-0.08557999999999999,-0.16236000000000006,-0.08763999999999994,1742222048.5916648
0.17999999999999994,0.05499999999999994,0.17500000000000004,-0.062019999999999964,0.06542000000000003,0.24975999999999998,-0.15000000000000002,-0.385,0.52,-0.054320000000000035,-0.19579999999999997,0.05346000000000006,1742222048.711704
0.09499999999999997,0.42999999999999994,0.24,0.01550000000000007,-0.15052,0.19067999999999996,-0.15000000000000002,-0.255,0.6299999999999999,-0.029899999999999927,-0.028320000000000012,0.20520000000000005,1742222048.819692
-0.010000000000000009,0.4750000000000001,0.41999999999999993,-0.03625999999999996,-0.23450000000000004,-0.03979999999999995,-0.015000000000000013,-0.050000000000000044,0.53,0.011479999999999935,0.20043999999999995,0.14904000000000006,1742222048.932986
-0.08499999999999996,0.44999999999999996,0.585,0.016599999999999948,-0.14612000000000003,-0.1950599999999999,0.14000000000000012,-0.050000000000000044,0.33499999999999996,-0.09510000000000007,0.22998000000000007,-0.07299999999999995,1742222049.0467892
-0.025000000000000022,0.17500000000000004,0.5800000000000001,0.09314,0.0836199999999998,-0.19018000000000002,0.020000000000000018,-0.19500000000000006,0.2650000000000001,0.023440000000000127,0.056640000000000024,-0.22105999999999992,1742222049.160919
0.10499999999999998,0.050000000000000044,0.3900000000000001,0.0674999999999999,0.23327999999999993,-0.0502999999999999,-0.125,-0.4099999999999999,0.33499999999999996,-0.09655999999999998,-0.15013999999999994,-0.11021999999999998,1742222049.2746198
0.17999999999999994,-0.020000000000000018,0.2549999999999999,-0.05274000000000001,0.1358600000000001,0.16931999999999992,-0.16500000000000004,-0.345,0.54,-0.06164000000000003,-0.19910000000000005,0.06690000000000018,1742222049.392277
0.1200000000000001,0.3400000000000001,0.18999999999999995,0.1212200000000001,-0.11646000000000001,0.23181999999999992,-0.15500000000000003,-0.31499999999999995,0.625,-0.05603999999999998,-0.056520000000000015,0.19300000000000006,1742222049.501805
0.020000000000000018,0.4950000000000001,0.405,0.00035999999999991594,-0.24681999999999993,-0.008299999999999974,-0.03500000000000003,-0.06000000000000005,0.585,0.020499999999999963,0.1532,0.18420000000000014,1742222049.6156852
-0.10499999999999998,0.3799999999999999,0.6299999999999999,0.020380000000000065,-0.1604,-0.15112000000000003,0.1299999999999999,0.02499999999999991,0.3999999999999999,0.0329600000000001,0.2608600000000001,-0.07264000000000004,1742222049.732403
-0.09499999999999997,0.1200000000000001,0.665,0.08216000000000001,0.08227999999999991,-0.1925,0.03499999999999992,-0.20499999999999996,0.21999999999999997,0.032480000000000064,0.11865999999999999,-0.2257,1742222049.843722
0.050000000000000044,-0.06499999999999995,0.45500000000000007,0.08299999999999996,0.28259999999999996,-0.02198,-0.08499999999999996,-0.43999999999999995,0.2749999999999999,-0.04382000000000008,-0.13341999999999998,-0.1370800000000001,1742222049.957681
0.16999999999999993,0.0,0.2250000000000001,-0.019159999999999955,0.1816399999999998,0.21472000000000002,-0.09499999999999997,-0.375,0.42500000000000004,-0.08898000000000006,-0.2424400000000001,0.01966000000000001,1742222050.075727
0.135,0.2849999999999999,0.11499999999999999,-0.02758000000000005,-0.08008000000000004,0.2797799999999999,-0.15500000000000003,-0.33499999999999996,0.645,-0.06311999999999995,-0.15698,0.16748000000000007,1742222050.192376
-0.025000000000000022,0.5449999999999999,0.44500000000000006,0.0017000000000000348,-0.26464,-0.008059999999999956,-0.07000000000000006,-0.135,0.6400000000000001,0.04090000000000016,0.12890000000000001,0.20507999999999993,1742222050.299773
-0.09499999999999997,0.42500000000000004,0.5800000000000001,0.02648000000000006,-0.15344000000000002,-0.15355999999999992,0.1100000000000001,-0.010000000000000009,0.395,0.07433999999999985,0.2795399999999999,0.0030599999999998406,1742222050.413832
-0.07999999999999996,0.1200000000000001,0.6499999999999999,0.10718000000000005,0.03370000000000006,-0.21545999999999998,0.06000000000000005,-0.20499999999999996,0.21999999999999997,0.06872000000000011,0.12098000000000009,-0.22131999999999996,1742222050.534301
0.040000000000000036,-0.04500000000000004,0.45999999999999996,0.07103999999999999,0.26293999999999995,-0.025639999999999996,-0.030000000000000027,-0.405,0.26,-0.09851999999999994,-0.08165999999999995,-0.11548000000000003,1742222050.641721
0.16999999999999993,0.06499999999999995,0.21500000000000008,-0.050779999999999936,0.1861600000000001,0.18396000000000012,-0.06000000000000005,-0.43500000000000005,0.395,-0.03051999999999999,-0.20594,0.0006200000000000649,1742222050.755635
0.09000000000000008,0.405,0.18500000000000005,-0.009639999999999982,-0.12475999999999998,0.25305999999999984,-0.11499999999999999,-0.37,0.5249999999999999,-0.08948,-0.1582,0.1445399999999999,1742222050.872135
-0.050000000000000044,0.5049999999999999,0.41999999999999993,0.05018000000000011,-0.22814,-0.0015800000000000258,-0.08499999999999996,-0.15500000000000003,0.6400000000000001,-0.10986000000000007,0.006340000000000012,0.1975,1742222050.982792
-0.11499999999999999,0.43999999999999995,0.5800000000000001,0.06957999999999998,-0.21153999999999995,-0.15844000000000003,0.09499999999999997,0.030000000000000027,0.45500000000000007,0.06529999999999991,0.2389000000000001,0.05590000000000006,1742222051.096822
-0.125,0.2250000000000001,0.615,0.11646000000000001,0.03929999999999989,-0.23241999999999996,0.125,-0.07499999999999996,0.2650000000000001,0.031119999999999814,0.1717599999999999,-0.22229999999999994,1742222051.211794
0.03499999999999992,-0.0050000000000000044,0.44500000000000006,0.07603999999999989,0.2486600000000001,-0.08838000000000001,-0.11499999999999999,-0.4,0.22999999999999998,-0.02734000000000003,-0.060919999999999974,-0.21398000000000006,1742222051.324834
0.15999999999999992,-0.010000000000000009,0.25,-0.025519999999999987,0.19531999999999994,0.16003999999999996,-0.14,-0.41999999999999993,0.395,-0.07996000000000003,-0.21472000000000002,-0.03808,1742222051.438879
0.1200000000000001,0.33000000000000007,0.14500000000000002,-0.06640000000000001,-0.04747999999999997,0.30176000000000003,-0.20999999999999996,-0.38,0.5550000000000002,-0.07531999999999994,-0.19068000000000007,0.13427999999999995,1742222051.555756
0.010000000000000009,0.5550000000000002,0.365,0.00878000000000001,-0.25342,0.025760000000000005,-0.15500000000000003,-0.125,0.6699999999999999,-0.03198000000000001,0.0626199999999999,0.24377999999999989,1742222051.672687
-0.09999999999999998,0.405,0.56,-0.006960000000000077,-0.14246000000000003,-0.11681999999999992,0.05499999999999994,0.004999999999999893,0.45500000000000007,0.06176000000000004,0.27478,0.062019999999999964,1742222051.7808168
-0.10499999999999998,0.17999999999999994,0.6099999999999999,0.10364000000000018,0.021600000000000064,-0.18958000000000008,0.1299999999999999,-0.08499999999999996,0.25,0.01635999999999993,0.21838000000000002,-0.19410000000000005,1742222051.894777
0.02499999999999991,0.004999999999999893,0.45500000000000007,0.06738000000000022,0.22533999999999987,-0.052000000000000046,-0.07000000000000006,-0.355,0.22999999999999998,-0.019399999999999973,-0.011840000000000073,-0.20874000000000004,1742222052.013089
0.14500000000000002,-0.0050000000000000044,0.33000000000000007,0.04625999999999997,0.17711999999999994,0.12585999999999986,-0.10999999999999999,-0.42999999999999994,0.3799999999999999,-0.05932000000000004,-0.17968000000000006,-0.03846000000000005,1742222052.122619
0.15999999999999992,0.19500000000000006,0.19500000000000006,-0.02966000000000002,0.020380000000000065,0.2304600000000001,-0.16500000000000004,-0.375,0.49,-0.07835999999999999,-0.18444000000000005,0.10009999999999986,1742222052.236706
0.040000000000000036,0.42500000000000004,0.32499999999999996,0.014399999999999968,-0.22387999999999997,0.08190000000000008,-0.16000000000000003,-0.245,0.6400000000000001,-0.05003999999999997,-0.07311999999999996,0.23571999999999993,1742222052.352063
-0.06499999999999995,0.41500000000000004,0.54,-0.018059999999999965,-0.18089999999999995,-0.09472000000000003,-0.0050000000000000044,0.0,0.565,0.035519999999999996,0.21692,0.11059999999999981,1742222052.464837
-0.10999999999999999,0.30000000000000004,0.6600000000000001,-0.00048000000000003595,0.010499999999999954,-0.21094000000000002,0.10499999999999998,-0.025000000000000022,0.3500000000000001,0.027220000000000022,0.2551199999999998,-0.13403999999999994,1742222052.5787678
0.030000000000000027,0.040000000000000036,0.48,0.0039000000000000146,0.24511999999999978,-0.18958000000000008,-0.025000000000000022,-0.265,0.21999999999999997,0.05848000000000009,0.01537999999999995,-0.27076,1742222052.693092
0.18500000000000005,0.014999999999999902,0.29499999999999993,0.11511999999999989,0.2084999999999999,0.06738000000000022,-0.18999999999999995,-0.515,0.28,-0.03515999999999997,-0.15552,-0.11596000000000006,1742222052.812605
0.18999999999999995,0.17999999999999994,0.18500000000000005,0.052119999999999944,0.03186,0.2549999999999999,-0.18500000000000005,-0.4099999999999999,0.42999999999999994,-0.16101999999999994,-0.21777999999999997,0.09498000000000006,1742222052.919487
0.050000000000000044,0.5350000000000001,0.26,0.020620000000000083,-0.1997000000000001,0.21520000000000006,-0.17500000000000004,-0.25,0.635,-0.09204000000000001,-0.0916800000000001,0.2084999999999999,1742222053.034936
-0.030000000000000027,0.52,0.4099999999999999,0.014520000000000088,-0.2583,-0.053100000000000036,-0.07499999999999996,-0.06000000000000005,0.6000000000000001,0.03370000000000006,0.20690000000000008,0.1411199999999999,1742222053.152977
-0.14500000000000002,0.5449999999999999,0.585,0.10083999999999982,-0.11768000000000012,-0.18212000000000006,0.10499999999999998,-0.025000000000000022,0.33499999999999996,0.035640000000000116,0.29542,-0.09251999999999994,1742222053.259775
-0.07499999999999996,0.030000000000000027,0.5800000000000001,0.12916000000000016,0.15623999999999993,-0.23156,0.010000000000000009,-0.2849999999999999,0.19999999999999996,0.008539999999999992,0.05577999999999994,-0.22839999999999994,1742222053.3736498
0.1100000000000001,-0.07499999999999996,0.3599999999999999,0.09935999999999989,0.2584200000000001,0.027220000000000022,-0.07999999999999996,-0.41500000000000004,0.29000000000000004,-0.08177999999999996,-0.13378,-0.13184000000000007,1742222053.493214
0.135,0.09499999999999997,0.20999999999999996,-0.0013400000000000079,0.09851999999999994,0.27526000000000006,-0.16000000000000003,-0.47,0.43999999999999995,-0.10899999999999999,-0.18053999999999992,0.03929999999999989,1742222053.60058
0.040000000000000036,0.575,0.20500000000000007,0.07740000000000014,-0.05506,0.15772000000000008,-0.17999999999999994,-0.395,0.595,-0.14002000000000003,-0.12536000000000003,0.21302,1742222053.71354
0.010000000000000009,0.565,0.4849999999999999,-0.07091999999999998,-0.24681999999999993,-0.0907,0.0,-0.030000000000000027,0.635,0.03516000000000008,0.2515799999999999,0.1936,1742222053.833152
-0.040000000000000036,0.345,0.6099999999999999,0.04699999999999993,-0.11229999999999996,-0.20972000000000002,0.15999999999999992,0.010000000000000009,0.3400000000000001,0.0329600000000001,0.28406,-0.12048000000000003,1742222053.94076
-0.010000000000000009,0.014999999999999902,0.56,0.11572000000000005,0.22828000000000004,-0.13879999999999992,-0.010000000000000009,-0.33000000000000007,0.20999999999999996,-0.031379999999999963,-0.007440000000000002,-0.26916000000000007,1742222054.055827
0.16500000000000004,-0.050000000000000044,0.32499999999999996,0.05479999999999996,0.22583999999999982,0.06738000000000022,-0.06000000000000005,-0.47,0.2749999999999999,-0.07823999999999998,-0.09179999999999999,-0.09522000000000008,1742222054.173076
0.16500000000000004,0.1299999999999999,0.18999999999999995,-0.021240000000000037,0.05908000000000002,0.23682000000000003,-0.10999999999999999,-0.41500000000000004,0.42500000000000004,-0.12622,-0.20141999999999993,0.12047999999999992,1742222054.281604
0.07000000000000006,0.55,0.24,0.052119999999999944,-0.14576,0.16931999999999992,-0.135,-0.235,0.74,-0.0736,-0.09998000000000007,0.24059999999999993,1742222054.395548
0.020000000000000018,0.41500000000000004,0.44999999999999996,-0.007440000000000002,-0.28698,-0.07311999999999996,0.06000000000000005,-0.050000000000000044,0.4750000000000001,0.09240000000000004,0.23181999999999992,0.14856000000000003,1742222054.5148969
-0.07999999999999996,0.41500000000000004,0.595,0.02648000000000006,-0.14318000000000008,-0.18274,0.18500000000000005,-0.07499999999999996,0.29000000000000004,-0.04613999999999996,0.2096,-0.07835999999999999,1742222054.6237729
-0.06000000000000005,0.14000000000000012,0.6099999999999999,0.10607999999999995,0.13378,-0.20728000000000002,0.02499999999999991,-0.245,0.2250000000000001,0.030279999999999863,0.05455999999999994,-0.24072000000000005,1742222054.737738
0.1200000000000001,-0.04500000000000004,0.3700000000000001,0.06800000000000006,0.2813800000000002,0.0037799999999998946,-0.09999999999999998,-0.505,0.2749999999999999,-0.023799999999999932,-0.11499999999999999,-0.13781999999999994,1742222054.853476
0.18999999999999995,0.040000000000000036,0.21500000000000008,-0.03736000000000006,0.13172000000000006,0.20520000000000005,-0.12,-0.43999999999999995,0.3999999999999999,-0.0908199999999999,-0.21629999999999994,0.03394000000000008,1742222054.97272
0.09000000000000008,0.3900000000000001,0.14000000000000012,0.06555999999999984,-0.09851999999999994,0.2804,-0.16000000000000003,-0.35,0.6000000000000001,-0.11096000000000006,-0.18152000000000001,0.17613999999999996,1742222055.0797088
0.02499999999999991,0.4950000000000001,0.3799999999999999,-0.03064,-0.25549999999999995,-0.009399999999999964,-0.08499999999999996,-0.07999999999999996,0.6600000000000001,0.012460000000000138,0.11961999999999984,0.1849400000000001,1742222055.193669
-0.12,0.4849999999999999,0.5699999999999998,0.053220000000000045,-0.21789999999999998,-0.14196000000000009,0.1100000000000001,-0.04500000000000004,0.375,0.02635999999999994,0.27966,-0.03955999999999993,1742222055.3133929
-0.10499999999999998,0.16500000000000004,0.6600000000000001,0.08850000000000002,0.10875999999999997,-0.19764000000000004,0.07499999999999996,-0.22499999999999998,0.18500000000000005,-0.012700000000000045,0.07861999999999991,-0.21411999999999998,1742222055.421707
0.06499999999999995,0.004999999999999893,0.395,0.05298000000000003,0.3479000000000001,-0.02758000000000005,-0.09499999999999997,-0.41999999999999993,0.2250000000000001,-0.07177999999999995,-0.15576,-0.1641800000000001,1742222055.5354822
0.17500000000000004,0.09000000000000008,0.15500000000000003,0.006839999999999957,0.16515999999999997,0.21166000000000018,-0.16500000000000004,-0.42500000000000004,0.41500000000000004,-0.1541800000000001,-0.23521999999999998,0.020499999999999963,1742222055.6537442
0.10000000000000009,0.4099999999999999,0.21999999999999997,0.07946000000000009,-0.1751800000000001,0.21411999999999987,-0.255,-0.27,0.6600000000000001,-0.19874000000000003,-0.17858000000000007,0.18981999999999988,1742222055.761771
0.014999999999999902,0.47,0.4099999999999999,-0.023679999999999923,-0.18688000000000005,0.020499999999999963,-0.12,-0.03500000000000003,0.605,0.07469999999999999,0.11768,0.20457999999999998,1742222055.87562
-0.07999999999999996,0.49,0.5550000000000002,0.040039999999999853,-0.17381999999999997,-0.17176000000000002,0.05499999999999994,-0.010000000000000009,0.3599999999999999,0.034660000000000135,0.3172600000000001,-0.017940000000000067,1742222055.993309
-0.08999999999999997,0.1200000000000001,0.635,0.11853999999999987,0.09692000000000012,-0.23596000000000006,0.030000000000000027,-0.16500000000000004,0.18999999999999995,0.07909999999999995,0.13196000000000008,-0.25964,1742222056.1036742
0.1100000000000001,-0.06000000000000005,0.3500000000000001,0.09460000000000002,0.27918,-0.01085999999999998,-0.135,-0.47,0.2749999999999999,-0.08923999999999999,-0.1493,-0.14794000000000007,1742222056.217752
0.17500000000000004,0.08000000000000007,0.21500000000000008,-0.0039000000000000146,0.12194000000000016,0.22009999999999996,-0.18500000000000005,-0.4,0.48,-0.12622,-0.24670000000000003,0.05176000000000003,1742222056.333062
0.05499999999999994,0.4950000000000001,0.23499999999999988,0.09314,-0.20653999999999995,0.24536000000000002,-0.21999999999999997,-0.345,0.6600000000000001,0.04908000000000001,-0.03527999999999998,0.21082,1742222056.452894
-0.03500000000000003,0.44500000000000006,0.52,-0.029179999999999984,-0.25036,-0.11705999999999994,-0.04500000000000004,-0.10499999999999998,0.5150000000000001,0.026000000000000023,0.24646000000000012,0.20838,1742222056.559927
-0.10999999999999999,0.32499999999999996,0.665,0.02855999999999992,-0.08653999999999995,-0.25439999999999996,0.15999999999999992,-0.020000000000000018,0.30000000000000004,-0.03736000000000006,0.2527999999999999,-0.07020000000000004,1742222056.673748
-0.025000000000000022,0.06000000000000005,0.56,0.05908000000000002,0.23631999999999986,-0.18408000000000002,0.04499999999999993,-0.19999999999999996,0.19999999999999996,-0.026739999999999986,-0.014900000000000024,-0.29200000000000004,1742222056.793712
0.14500000000000002,-0.050000000000000044,0.30499999999999994,0.06298000000000004,0.25916000000000006,0.08216000000000001,-0.14500000000000002,-0.44500000000000006,0.28,-0.09974000000000005,-0.1902999999999999,-0.13270000000000004,1742222056.9015942
0.15999999999999992,0.16500000000000004,0.135,0.00537999999999994,0.012320000000000109,0.2890599999999999,-0.265,-0.4,0.5899999999999999,-0.14305999999999996,-0.21826,0.08251999999999993,1742222057.015376
0.02499999999999991,0.5150000000000001,0.33000000000000007,-0.028679999999999928,-0.2524400000000001,0.13990000000000014,-0.18500000000000005,-0.265,0.685,-0.043340000000000045,-0.00988,0.26171999999999995,1742222057.133142
-0.06499999999999995,0.43500000000000005,0.5350000000000001,0.0026800000000000157,-0.2907799999999999,-0.12365999999999999,-0.0050000000000000044,-0.020000000000000018,0.565,0.021360000000000046,0.24122,0.135,1742222057.2428212
-0.14500000000000002,0.345,0.635,0.09216000000000002,-0.08044000000000007,-0.20299999999999996,0.1499999999999999,0.0,0.29000000000000004,-0.026739999999999986,0.22706000000000004,-0.13514000000000004,1742222057.356694
-0.05500000000000005,0.03499999999999992,0.5550000000000002,0.07311999999999985,0.2709999999999999,-0.16649999999999998,-0.0050000000000000044,-0.27,0.18500000000000005,0.010620000000000074,-0.0014600000000000168,-0.23705999999999994,1742222057.472825
0.14500000000000002,-0.10999999999999999,0.29499999999999993,0.14159999999999995,0.27526000000000006,0.07508000000000004,-0.07000000000000006,-0.43500000000000005,0.30499999999999994,-0.09045999999999998,-0.17896,-0.06835999999999998,1742222057.584588
0.14000000000000012,0.17999999999999994,0.1200000000000001,-0.007080000000000086,0.024540000000000006,0.3067599999999999,-0.14500000000000002,-0.37,0.5,-0.17212000000000005,-0.14612000000000003,0.11402000000000001,1742222057.704166
0.014999999999999902,0.635,0.31000000000000005,-0.09338000000000002,-0.22241999999999995,0.09388000000000019,-0.09999999999999998,-0.245,0.7650000000000001,-0.017340000000000022,-0.035519999999999996,0.22961999999999994,1742222057.8135831
-0.08499999999999996,0.3599999999999999,0.5350000000000001,0.0341800000000001,-0.2637999999999999,-0.11499999999999999,0.04499999999999993,-0.010000000000000009,0.53,0.04688000000000003,0.2425599999999999,0.10192000000000001,1742222057.932823
-0.17500000000000004,0.5800000000000001,0.675,-0.045419999999999905,-0.05908000000000002,-0.29955999999999994,0.14000000000000012,-0.040000000000000036,0.27,0.046499999999999986,0.20544000000000007,-0.15100000000000002,1742222058.040012
-0.06499999999999995,-0.13,0.4650000000000001,0.39159999999999995,0.2559800000000001,-0.17015999999999998,-0.015000000000000013,-0.29000000000000004,0.020000000000000018,-0.15308,-0.05786000000000002,-0.21058,1742222058.153764
0.17500000000000004,-0.14,0.19999999999999996,0.13683999999999985,0.2072799999999999,0.12134,-0.14,-0.43500000000000005,0.5,-0.06689999999999996,-0.26636000000000004,0.006839999999999957,1742222058.2739918
0.18999999999999995,0.07000000000000006,0.18500000000000005,-0.10644000000000009,-0.008660000000000001,0.26317999999999997,-0.14500000000000002,-0.33499999999999996,0.6800000000000002,-0.022580000000000044,-0.11584000000000005,0.1591800000000001,1742222058.380654
0.030000000000000027,0.45999999999999996,0.3900000000000001,-0.04870000000000008,-0.24462000000000006,0.14659999999999984,-0.05500000000000005,-0.10499999999999998,0.69,0.014780000000000015,0.10009999999999986,0.19666000000000006,1742222058.4944708
-0.050000000000000044,0.3400000000000001,0.5449999999999999,-0.050899999999999945,-0.23253999999999997,-0.07374000000000003,0.04499999999999993,-0.14,0.41500000000000004,0.04370000000000007,0.24205999999999994,0.03405999999999998,1742222058.613145
-0.11499999999999999,0.41500000000000004,0.655,0.015139999999999931,-0.011720000000000064,-0.17200000000000004,0.15999999999999992,-0.13,0.22999999999999998,0.10474000000000006,0.13695999999999997,-0.17164000000000001,1742222058.72267
-0.030000000000000027,0.04499999999999993,0.54,0.15477999999999992,0.24438000000000004,-0.19555999999999996,0.040000000000000036,-0.28,0.19999999999999996,-0.02185999999999999,-0.016840000000000077,-0.24339999999999995,1742222058.836638
0.125,-0.17000000000000004,0.30499999999999994,0.11316000000000015,0.3067599999999999,0.11253999999999986,-0.125,-0.52,0.3400000000000001,-0.09227999999999992,-0.22155999999999998,-0.029899999999999927,1742222058.95302
0.1499999999999999,0.16500000000000004,0.10000000000000009,-0.03967999999999994,-0.018440000000000012,0.37194000000000016,-0.125,-0.35,0.5800000000000001,-0.09301999999999999,-0.18053999999999992,0.13805999999999985,1742222059.063512
0.020000000000000018,0.605,0.355,-0.01085999999999998,-0.3138399999999999,0.09227999999999992,-0.07499999999999996,-0.17000000000000004,0.7050000000000001,-0.013679999999999914,0.04235999999999995,0.18333999999999984,1742222059.177502
-0.08499999999999996,0.44999999999999996,0.5699999999999998,-0.06434000000000006,-0.24060000000000004,-0.13781999999999994,0.03499999999999992,-0.09499999999999997,0.4849999999999999,0.08338000000000001,0.23327999999999993,0.05920000000000014,1742222059.292321
-0.14500000000000002,0.31499999999999995,0.6800000000000002,0.08251999999999993,-0.04405999999999999,-0.23229999999999995,0.14500000000000002,-0.06499999999999995,0.27,0.05493999999999999,0.21313999999999989,-0.14966000000000002,1742222059.413365
-0.030000000000000027,0.07000000000000006,0.5699999999999998,0.10875999999999997,0.25329999999999986,-0.1532,-0.0050000000000000044,-0.29000000000000004,0.17500000000000004,-0.0025599999999998957,0.029059999999999864,-0.24438000000000004,1742222059.519567
0.15999999999999992,-0.08499999999999996,0.29499999999999993,0.07433999999999985,0.30274,0.10899999999999999,-0.07499999999999996,-0.52,0.26,-0.035760000000000014,-0.14758000000000004,-0.0966800000000001,1742222059.634618
0.18500000000000005,0.09499999999999997,0.1299999999999999,-0.02954000000000001,0.059940000000000104,0.2839400000000001,-0.14,-0.41500000000000004,0.49,-0.25061999999999995,-0.25146,0.14466,1742222059.75365
0.04499999999999993,0.5699999999999998,0.17999999999999994,0.006720000000000059,-0.22827999999999993,0.26281999999999983,-0.16500000000000004,-0.235,0.7,-0.08704,-0.14112000000000002,0.24634,1742222059.8595982
-0.04500000000000004,0.49,0.47,-0.03308,-0.2723399999999999,-0.08362000000000003,-0.040000000000000036,-0.020000000000000018,0.635,0.07264000000000004,0.22986000000000018,0.14844000000000013,1742222059.973738
-0.08999999999999997,0.4099999999999999,0.6099999999999999,0.029059999999999864,-0.13879999999999992,-0.19520000000000004,0.135,-0.03500000000000003,0.29499999999999993,0.020380000000000065,0.33311999999999986,-0.10655999999999999,1742222060.093348
-0.050000000000000044,0.10000000000000009,0.6600000000000001,0.13038000000000016,0.12792000000000003,-0.20311999999999997,0.02499999999999991,-0.235,0.15999999999999992,0.048699999999999966,0.11390000000000011,-0.2830799999999999,1742222060.201503
-0.21499999999999997,-0.03500000000000003,0.6600000000000001,0.08349999999999991,0.0672600000000001,-0.29747999999999997,0.135,0.06000000000000005,0.07000000000000006,-0.0675,0.13793999999999995,-0.3357,1742258455.9748611
-0.010000000000000009,-0.18999999999999995,0.5449999999999999,-0.05346000000000006,0.26404000000000005,-0.11768000000000012,-0.015000000000000013,-0.595,0.1499999999999999,0.014780000000000015,-0.19116,-0.25952,1742258456.088758
0.10000000000000009,-0.015000000000000013,0.2650000000000001,-0.13184000000000007,0.32531999999999983,0.1834800000000001,-0.025000000000000022,-0.6,0.51,0.048579999999999846,-0.46263999999999994,0.02929999999999988,1742258456.202537
-0.07000000000000006,0.29499999999999993,0.06000000000000005,-0.0601799999999999,0.025760000000000005,0.37928000000000006,-0.16500000000000004,-0.395,0.75,-0.027700000000000058,-0.19591999999999998,0.2552399999999999,1742258456.320151
-0.32499999999999996,0.4950000000000001,0.31000000000000005,0.18261999999999978,-0.3711,0.11047999999999991,-0.14500000000000002,-0.050000000000000044,0.6600000000000001,-0.09105999999999992,0.20972000000000013,0.21936000000000022,1742258456.430542
-0.585,0.375,0.6099999999999999,0.23449999999999993,-0.3414400000000001,-0.1322000000000001,0.04499999999999993,0.20500000000000007,0.41500000000000004,-0.011960000000000082,0.33874000000000004,0.0,1742258456.544673
-0.29499999999999993,-0.05500000000000005,0.595,0.20422000000000007,0.1445399999999999,-0.22705999999999993,0.06000000000000005,0.0,0.08499999999999996,0.07457999999999987,0.38561999999999985,-0.3813399999999999,1742258456.6614568
-0.015000000000000013,-0.12,0.3999999999999999,0.030279999999999863,0.3515599999999999,-0.09144000000000008,0.030000000000000027,-0.58,-0.06000000000000005,-0.012700000000000045,-0.10486000000000006,-0.3274,1742258456.772652
0.15999999999999992,-0.10999999999999999,0.30499999999999994,-0.06677999999999995,0.26171999999999995,0.11158000000000001,-0.07499999999999996,-0.64,0.2650000000000001,0.0317400000000001,-0.33007999999999993,-0.05467999999999995,1742258456.886606
-0.010000000000000009,0.21500000000000008,0.2549999999999999,0.14916000000000018,0.012580000000000036,0.26722,-0.17999999999999994,-0.74,0.5150000000000001,-0.12365999999999999,-0.40748000000000006,0.23399999999999999,1742258457.002811
-0.16500000000000004,0.28,0.5,0.2218,-0.28833999999999993,0.035880000000000134,-0.22499999999999998,-0.20999999999999996,0.7,-0.22510000000000008,0.007440000000000113,0.32543999999999995,1742258457.1136
-0.275,0.15500000000000003,0.665,0.12535999999999992,-0.15308,-0.14781999999999995,0.03499999999999992,0.040000000000000036,0.4650000000000001,-0.30077999999999994,0.31152,0.08496000000000015,1742258457.22768
-0.17999999999999994,-0.17000000000000004,0.7,-0.011240000000000028,0.11559999999999993,-0.22229999999999994,0.14500000000000002,0.07000000000000006,0.1499999999999999,-0.005859999999999976,0.33740000000000014,-0.18225999999999998,1742258457.342018
-0.050000000000000044,-0.16000000000000003,0.4950000000000001,-0.01966000000000001,0.26927999999999996,-0.03748000000000007,0.014999999999999902,-0.18500000000000005,0.03499999999999992,-0.06738,-0.10241999999999996,-0.37170000000000003,1742258457.461529
0.10499999999999998,-0.07999999999999996,0.29499999999999993,-0.09522000000000008,0.23156,0.16590000000000016,-0.07499999999999996,-0.635,0.26,-0.15442,-0.1596599999999999,-0.15539999999999998,1742258457.569568
0.07000000000000006,0.1200000000000001,0.21999999999999997,0.08496000000000015,-0.09802,0.21594000000000002,-0.07000000000000006,-0.525,0.7650000000000001,-0.03820000000000001,-0.37012,0.2669600000000001,1742258457.683627
-0.15000000000000002,0.1299999999999999,0.49,0.23646000000000011,-0.2153400000000001,0.06529999999999991,-0.16000000000000003,-0.11499999999999999,0.8900000000000001,-0.046760000000000024,0.021239999999999926,0.3368,1742258457.802318
-0.28,0.11499999999999999,0.69,0.017079999999999984,-0.19726,-0.15489999999999993,-0.025000000000000022,0.2250000000000001,0.47,-0.21789999999999998,0.27796,0.10864000000000007,1742258457.911682
-0.20499999999999996,-0.15500000000000003,0.76,-0.0045199999999999685,0.08227999999999991,-0.20826,0.1200000000000001,0.16999999999999993,0.1100000000000001,-0.19568000000000008,0.18127999999999989,-0.24815999999999994,1742258458.025766
-0.015000000000000013,-0.21999999999999997,0.4650000000000001,-0.044320000000000026,0.29188000000000014,-0.04944000000000004,0.020000000000000018,-0.19500000000000006,0.14500000000000002,-0.18396,-0.22839999999999994,-0.20751999999999993,1742258458.142903
0.14500000000000002,-0.17000000000000004,0.2749999999999999,-0.020259999999999945,0.16602000000000006,0.16833999999999993,0.050000000000000044,-0.21999999999999997,0.675,-0.03979999999999995,-0.31104,0.05711999999999984,1742258458.253752
0.09000000000000008,-0.015000000000000013,0.2549999999999999,-0.01660000000000006,-0.06213999999999997,0.2540199999999999,0.010000000000000009,0.004999999999999893,0.77,-0.02294000000000007,-0.02624000000000004,0.14904000000000006,1742258458.367646
-0.16000000000000003,0.17500000000000004,0.44500000000000006,0.28528,-0.18128,0.06433999999999984,0.010000000000000009,0.07000000000000006,0.615,-0.0041599999999999415,0.10340000000000016,0.17724000000000006,1742258458.483705
-0.26,0.09499999999999997,0.645,-0.010499999999999954,-0.21362000000000003,-0.15894000000000008,0.03499999999999992,0.2849999999999999,0.47,-0.11303999999999992,0.16906,0.06128,1742258458.595784
-0.20999999999999996,-0.17999999999999994,0.7850000000000001,0.06103999999999998,0.01415999999999995,-0.24866,0.11499999999999999,0.2749999999999999,0.28,-0.10753999999999997,0.09388000000000019,-0.16688000000000003,1742258458.709612
-0.030000000000000027,-0.21499999999999997,0.51,-0.006960000000000077,0.31567999999999996,-0.07811999999999997,0.07000000000000006,-0.020000000000000018,0.23499999999999988,0.05688000000000004,-0.09423999999999999,-0.22338000000000002,1742258458.823699
0.125,-0.21499999999999997,0.30499999999999994,-0.02746000000000004,0.2427999999999999,0.10242000000000018,0.08499999999999996,-0.21999999999999997,0.45500000000000007,-0.050779999999999936,-0.22448,0.010380000000000056,1742258458.9425762
0.08000000000000007,-0.03500000000000003,0.21999999999999997,-0.06652000000000002,-0.04405999999999999,0.26746000000000003,0.030000000000000027,-0.09499999999999997,0.6949999999999998,-0.0050000000000000044,-0.14002000000000003,0.14880000000000004,1742258459.051625
-0.18999999999999995,0.30000000000000004,0.3599999999999999,-0.08960000000000001,-0.25122,0.16711999999999994,-0.05500000000000005,-0.06499999999999995,0.75,0.21263999999999994,-0.008179999999999965,0.23571999999999993,1742258459.16562
-0.28,0.25,0.605,0.059819999999999984,-0.28137999999999996,-0.10914000000000001,-0.12,0.29499999999999993,0.615,0.10899999999999999,0.17077999999999993,0.15611999999999981,1742258459.283819
-0.33000000000000007,0.08000000000000007,0.8050000000000002,0.09875999999999996,-0.031379999999999963,-0.23438000000000003,0.03499999999999992,0.09000000000000008,0.31000000000000005,-0.04283999999999999,0.39270000000000005,-0.12524000000000002,1742258459.393607
-0.135,-0.04500000000000004,0.5550000000000002,-0.01525999999999994,0.24571999999999994,-0.19177999999999995,0.1200000000000001,-0.0050000000000000044,0.06499999999999995,-0.11705999999999994,0.1407400000000001,-0.36548,1742258459.5076978
0.07000000000000006,-0.05500000000000005,0.385,-0.016840000000000077,0.25550000000000006,-0.0034199999999999786,-0.030000000000000027,-0.565,0.32499999999999996,-0.07862000000000002,-0.35997999999999997,-0.22814,1742258459.623318
0.16999999999999993,-0.040000000000000036,0.20999999999999996,-0.04908000000000001,0.1461199999999998,0.22777999999999987,-0.10999999999999999,-0.48,0.5699999999999998,-0.035519999999999996,-0.3775599999999999,0.1573399999999998,1742258459.735552
-0.07499999999999996,0.2849999999999999,0.30499999999999994,0.13793999999999995,-0.17786000000000002,0.19311999999999996,-0.28,-0.18999999999999995,0.905,-0.03479999999999994,-0.07823999999999998,0.3508399999999998,1742258459.849472
-0.235,0.19500000000000006,0.6200000000000001,0.20311999999999997,-0.23084000000000005,-0.06213999999999997,-0.08999999999999997,0.10000000000000009,0.4750000000000001,-0.03088000000000002,0.39538000000000006,0.12916000000000016,1742258459.9638531
-0.16500000000000004,-0.030000000000000027,0.675,0.07214000000000009,-0.00770000000000004,-0.14391999999999994,0.16999999999999993,0.14000000000000012,0.1299999999999999,-0.11694000000000004,0.2450000000000001,-0.17700000000000005,1742258460.083968
-0.09999999999999998,-0.050000000000000044,0.53,0.03980000000000006,0.14538000000000006,0.007560000000000011,0.06000000000000005,-0.39,0.43999999999999995,-0.08448,-0.041139999999999954,-0.19068000000000007,1742258460.1914072
0.0,0.030000000000000027,0.405,0.06176000000000004,0.09129999999999994,0.02929999999999988,0.19500000000000006,-0.10999999999999999,0.48,-0.030279999999999974,0.06603999999999988,-0.0040200000000000236,1742258460.30527
0.004999999999999893,-0.040000000000000036,0.48,0.03929999999999989,0.014639999999999986,0.015139999999999931,0.19999999999999996,-0.16500000000000004,0.43999999999999995,-0.062019999999999964,0.07508000000000004,-0.0042799999999999505,1742258460.424741
-0.010000000000000009,-0.040000000000000036,0.4650000000000001,0.028799999999999937,-0.022340000000000027,-0.13085999999999998,0.2650000000000001,0.04499999999999993,0.3700000000000001,-0.14549999999999996,0.08177999999999996,0.0032999999999998586,1742258460.531689
-0.08499999999999996,0.04499999999999993,0.45500000000000007,-0.15355999999999992,-0.06298000000000004,-0.10741999999999996,0.28,0.0,0.405,0.0009799999999999809,-0.008919999999999928,-0.042360000000000064,1742258460.645594
-0.16500000000000004,0.19500000000000006,0.4650000000000001,0.30102000000000007,-0.02294000000000007,0.07850000000000001,0.29499999999999993,0.040000000000000036,0.51,0.10277999999999987,-0.18934000000000006,0.0317400000000001,1742258460.7649338
-0.07499999999999996,-0.15000000000000002,0.6600000000000001,-0.14368000000000003,0.0932599999999999,-0.26,0.22999999999999998,-0.06000000000000005,0.135,0.24707999999999997,-0.02513999999999994,-0.026859999999999995,1742258460.873635
0.08000000000000007,-0.255,0.405,-0.04455999999999993,0.24913999999999992,0.033560000000000034,-0.10499999999999998,-0.36,0.385,-0.3342200000000001,-0.32520000000000004,0.025020000000000042,1742258460.987423
0.1100000000000001,-0.08999999999999997,0.2450000000000001,-0.06152000000000002,0.07264000000000004,0.31567999999999996,-0.125,-0.22999999999999998,0.7349999999999999,-0.08311999999999997,-0.19410000000000005,0.22375999999999996,1742258461.1055732
-0.07499999999999996,0.30499999999999994,0.31000000000000005,0.20740000000000003,-0.19446000000000008,0.32592,-0.06499999999999995,-0.15500000000000003,0.6949999999999998,0.02635999999999994,0.06420000000000003,0.2216800000000001,1742258461.215531
-0.29499999999999993,0.3400000000000001,0.5800000000000001,0.17408,-0.2376800000000001,-0.03808,-0.025000000000000022,0.16999999999999993,0.565,-0.05932000000000004,0.24122,0.15611999999999981,1742258461.328543
-0.31499999999999995,0.10000000000000009,0.75,0.1606399999999999,-0.0008599999999999719,-0.22010000000000007,0.125,0.24,0.2650000000000001,-0.14172000000000007,0.2341399999999998,-0.15295999999999998,1742258461.44492
-0.135,-0.13,0.585,-0.06981999999999988,0.2036199999999999,-0.19262,0.07499999999999996,-0.07499999999999996,0.18999999999999995,-0.16858000000000006,-0.026000000000000023,-0.27552,1742258461.5567129
0.07499999999999996,-0.125,0.3700000000000001,-0.032220000000000026,0.26708,0.0023200000000000998,0.07000000000000006,-0.32000000000000006,0.43500000000000005,-0.21105999999999991,-0.2584200000000001,-0.05810000000000004,1742258461.670434
0.1200000000000001,-0.05500000000000005,0.21999999999999997,-0.14184000000000008,0.016000000000000014,0.2673399999999999,-0.040000000000000036,-0.21499999999999997,0.7149999999999999,0.1212200000000001,-0.20922000000000007,0.09655999999999998,1742258461.78646
-0.12,0.345,0.26,0.18420000000000014,-0.1825,0.18554000000000004,0.02499999999999991,-0.17500000000000004,0.77,0.26478,0.06702000000000008,0.2594000000000001,1742258461.9055302
-0.275,0.21500000000000008,0.6949999999999998,0.14403999999999995,-0.22924,-0.07299999999999995,0.030000000000000027,0.17500000000000004,0.565,-0.02648000000000006,0.21350000000000002,0.1591800000000001,1742258462.011491
-0.24,0.004999999999999893,0.69,0.13561999999999985,0.0026800000000000157,-0.17224000000000006,0.17500000000000004,0.16500000000000004,0.30499999999999994,-0.19481999999999988,0.16662,-0.15515999999999996,1742258462.126134
-0.125,-0.09499999999999997,0.5800000000000001,-0.04810000000000003,0.19520000000000004,-0.16283999999999998,0.06499999999999995,-0.12,0.14500000000000002,-0.20922000000000007,0.04747999999999997,-0.27954,1742258462.245693
0.03499999999999992,-0.12,0.385,-0.03979999999999995,0.2806399999999998,0.02624000000000004,0.004999999999999893,-0.35,0.3799999999999999,-0.10462000000000005,-0.31262,-0.08228000000000002,1742258462.353479
0.1100000000000001,-0.04500000000000004,0.26,-0.045419999999999905,0.08044000000000007,0.21082,-0.125,-0.28,0.7050000000000001,-0.0029199999999999227,-0.27148000000000005,0.14026000000000005,1742258462.467417
-0.020000000000000018,0.2250000000000001,0.30000000000000004,0.07922000000000007,-0.16674,0.19324000000000008,-0.18999999999999995,-0.28,0.825,0.1933600000000002,-0.09326000000000001,0.34338,1742258462.585006
-0.245,0.27,0.6699999999999999,0.0329600000000001,-0.24339999999999995,-0.053220000000000045,-0.08499999999999996,0.15999999999999992,0.5899999999999999,-0.051019999999999954,0.26757999999999993,0.21692,1742258462.7050838
-0.245,0.1200000000000001,0.7450000000000001,0.07543999999999995,-0.04503999999999997,-0.20544000000000007,0.1100000000000001,0.09000000000000008,0.2849999999999999,-0.18420000000000003,0.2839400000000001,-0.10631999999999997,1742258462.8095329
-0.09499999999999997,-0.07000000000000006,0.6099999999999999,-0.09020000000000006,0.24536000000000002,-0.16674,0.1200000000000001,-0.09999999999999998,0.08499999999999996,-0.28064,0.09826000000000001,-0.26281999999999994,1742258462.925916
0.10499999999999998,-0.06000000000000005,0.3500000000000001,-0.04798000000000002,0.25416000000000016,0.005859999999999976,0.014999999999999902,-0.43500000000000005,0.4099999999999999,-0.08129999999999993,-0.28674,-0.050899999999999945,1742258463.037408
0.20999999999999996,-0.07000000000000006,0.20500000000000007,-0.029179999999999984,0.06225999999999998,0.24316000000000004,-0.030000000000000027,-0.3400000000000001,0.7,0.11047999999999991,-0.25476,0.10596000000000005,1742258463.151404
-0.10999999999999999,0.33499999999999996,0.23499999999999988,0.048819999999999864,-0.21874000000000005,0.30211999999999994,-0.21499999999999997,-0.24,0.825,0.10485999999999995,-0.08105999999999991,0.30479999999999996,1742258463.266827
-0.375,0.45500000000000007,0.54,0.10655999999999999,-0.31152,-0.02525999999999995,-0.12,0.11499999999999999,0.55,-0.10668000000000011,0.32776000000000005,0.19482,1742258463.386369
-0.355,0.17500000000000004,0.7149999999999999,0.21043999999999996,-0.042360000000000064,-0.18444000000000005,0.125,0.17999999999999994,0.26,-0.2797799999999999,0.27308,-0.16662,1742258463.49354
-0.18500000000000005,-0.010000000000000009,0.5800000000000001,0.07567999999999997,0.1814,-0.15368000000000004,0.1200000000000001,0.04499999999999993,0.06000000000000005,-0.08299999999999996,0.0638399999999999,-0.35083999999999993,1742258463.607462
0.02499999999999991,-0.135,0.42999999999999994,-0.06713999999999998,0.27136000000000005,-0.08435999999999999,0.010000000000000009,-0.475,0.3799999999999999,0.006720000000000059,-0.2931,-0.14439999999999997,1742258463.7263849
0.17999999999999994,-0.125,0.25,-0.08410000000000006,0.23194000000000004,0.1665000000000001,-0.040000000000000036,-0.395,0.6000000000000001,0.15355999999999992,-0.4047799999999999,0.14416000000000007,1742258463.835296
0.040000000000000036,0.17999999999999994,0.1499999999999999,-0.03051999999999999,-0.1643,0.3993,-0.38,-0.38,0.8700000000000001,-0.010140000000000038,-0.23851999999999995,0.3714600000000001,1742258463.949425
-0.355,0.44999999999999996,0.5249999999999999,0.05761999999999978,-0.32604,0.05285999999999991,-0.20499999999999996,0.09000000000000008,0.54,-0.15489999999999993,0.3438800000000002,0.2086199999999998,1742258464.0700328
-0.41500000000000004,0.28,0.69,0.29188000000000014,-0.16503999999999996,-0.11839999999999995,0.08499999999999996,0.1299999999999999,0.2849999999999999,-0.28186,0.3763399999999999,-0.11205999999999994,1742258464.186937
-0.24,-0.12,0.6099999999999999,-0.10192000000000001,0.13134,-0.32433999999999996,0.1499999999999999,0.08499999999999996,0.07000000000000006,-0.06518000000000002,0.12268000000000012,-0.35351999999999995,1742258464.290554
0.020000000000000018,-0.07999999999999996,0.405,-0.0031799999999999606,0.36768,-0.0857,0.09499999999999997,-0.515,0.21500000000000008,-0.041139999999999954,-0.27648000000000006,-0.18420000000000003,1742258464.409344
0.16999999999999993,-0.06499999999999995,0.2549999999999999,-0.036619999999999986,0.17798000000000003,0.1959200000000001,-0.040000000000000036,-0.52,0.53,0.08606000000000003,-0.40662,0.0968,1742258464.530426
-0.15500000000000003,0.3900000000000001,0.22999999999999998,0.030160000000000187,-0.13842,0.32055999999999996,-0.29000000000000004,-0.45999999999999996,0.8,-0.051019999999999954,-0.31298000000000004,0.3655999999999999,1742258464.6323369
-0.37,0.395,0.52,0.09460000000000002,-0.35522,-0.006099999999999994,-0.21999999999999997,0.04499999999999993,0.665,-0.18603999999999998,0.24438000000000004,0.2425599999999999,1742258464.747127
-0.47,0.24,0.7650000000000001,0.2807599999999999,-0.12939999999999996,-0.15394000000000008,0.10499999999999998,0.07000000000000006,0.30000000000000004,-0.23156,0.4073399999999998,-0.07347999999999999,1742258464.8675892
-0.18999999999999995,-0.10499999999999998,0.53,-0.03503999999999996,0.26624000000000003,-0.2529199999999999,0.17999999999999994,0.14000000000000012,0.125,-0.07677999999999996,0.11925999999999992,-0.34129999999999994,1742258464.973532
0.050000000000000044,-0.12,0.385,-0.04027999999999998,0.30455999999999994,-0.05725999999999998,0.10499999999999998,-0.37,0.16999999999999993,-0.12791999999999992,-0.19764000000000004,-0.2801600000000001,1742258465.087418
0.1499999999999999,-0.04500000000000004,0.26,-0.02942,0.19067999999999996,0.22351999999999994,-0.015000000000000013,-0.42500000000000004,0.47,-0.11108000000000007,-0.3051800000000001,-0.002080000000000082,1742258465.208291
-0.030000000000000027,0.20999999999999996,0.22999999999999998,0.12585999999999986,-0.16771999999999998,0.4133399999999998,-0.19999999999999996,-0.345,0.78,0.013419999999999987,-0.31848,0.23729999999999984,1742258465.315317
-0.33000000000000007,0.3500000000000001,0.45999999999999996,-0.006720000000000059,-0.3114,0.10681999999999992,-0.19999999999999996,0.06000000000000005,0.8,-0.08557999999999999,0.25,0.31542000000000003,1742258465.4294348
-0.42500000000000004,0.345,0.635,0.055299999999999905,-0.22986000000000006,-0.13378,0.020000000000000018,0.135,0.41999999999999993,-0.08704,0.42286000000000024,-0.00988,1742258465.5503209
-0.37,0.040000000000000036,0.6699999999999999,0.09606000000000003,0.08055999999999996,-0.29455999999999993,0.17999999999999994,0.125,0.11499999999999999,-0.11694000000000004,0.11792000000000002,-0.28454,1742258465.6678789
-0.13,-0.05500000000000005,0.44500000000000006,-0.07910000000000006,0.3182400000000001,-0.19274000000000002,-0.025000000000000022,-0.51,0.18500000000000005,-0.049919999999999964,-0.19823999999999997,-0.36254,1742258465.77156
0.1200000000000001,-0.030000000000000027,0.2650000000000001,-0.03370000000000006,0.23646000000000011,0.1311,-0.07000000000000006,-0.55,0.43999999999999995,0.009279999999999955,-0.32166000000000006,0.011600000000000055,1742258465.888096
-0.0050000000000000044,0.2450000000000001,0.18999999999999995,-0.00024000000000001798,-0.06541999999999992,0.2923600000000002,-0.015000000000000013,-0.365,0.5800000000000001,0.04394000000000009,-0.012580000000000036,0.23619999999999997,1742258466.009494
-0.17500000000000004,0.31000000000000005,0.375,0.18896000000000002,-0.19091999999999998,0.1224400000000001,0.050000000000000044,-0.20999999999999996,0.8300000000000001,0.015740000000000087,0.048579999999999846,0.31518,1742258466.113378
-0.375,0.375,0.615,0.14403999999999995,-0.19934000000000007,-0.16003999999999996,0.10499999999999998,0.030000000000000027,0.5,-0.19775999999999994,0.26966,0.16613999999999995,1742258466.228116
-0.365,0.07499999999999996,0.7650000000000001,0.062140000000000084,0.13892000000000015,-0.36950000000000005,0.17500000000000004,0.15999999999999992,0.10499999999999998,-0.28881999999999997,0.16822000000000004,-0.14734000000000003,1742258466.348821
0.02499999999999991,-0.15000000000000002,0.345,0.06323999999999996,0.3152999999999999,-0.13427999999999995,0.07499999999999996,-0.22999999999999998,0.02499999999999991,0.02624000000000004,-0.17236000000000007,-0.24181999999999992,1742258466.467513
0.16500000000000004,-0.10499999999999998,0.2450000000000001,0.020499999999999963,0.14305999999999996,0.13561999999999985,0.03499999999999992,-0.515,0.5150000000000001,-0.0050000000000000044,-0.4621600000000001,0.007440000000000113,1742258466.571795
0.040000000000000036,0.09000000000000008,0.24,0.04590000000000005,-0.09753999999999996,0.26171999999999995,-0.08999999999999997,-0.18999999999999995,0.865,-0.04382000000000008,-0.20484000000000002,0.23242000000000007,1742258466.688192
-0.22999999999999998,0.385,0.55,0.1360999999999999,-0.26183999999999996,0.08240000000000003,-0.14500000000000002,0.02499999999999991,0.7650000000000001,-0.03394000000000008,0.18603999999999998,0.21813999999999978,1742258466.809526
-0.245,0.17500000000000004,0.7149999999999999,0.1591800000000001,-0.12402000000000002,-0.17298000000000002,0.014999999999999902,0.19999999999999996,0.3700000000000001,-0.23729999999999996,0.32531999999999983,-0.014519999999999977,1742258466.9093308
-0.16000000000000003,-0.14,0.635,0.03308,0.12231999999999998,-0.1850599999999999,0.14000000000000012,0.15500000000000003,0.09000000000000008,-0.18286000000000002,0.09289999999999998,-0.28881999999999997,1742258467.0303009
-0.015000000000000013,-0.17000000000000004,0.45500000000000007,-0.02942,0.2574400000000001,0.0009799999999999809,0.004999999999999893,-0.16500000000000004,0.2549999999999999,0.11961999999999984,-0.2058199999999999,-0.33751999999999993,1742258467.147764
0.1200000000000001,-0.15500000000000003,0.29000000000000004,-0.04310000000000003,0.1730999999999998,0.16393999999999997,-0.07499999999999996,-0.505,0.4950000000000001,0.01648000000000005,-0.35938000000000003,0.056400000000000006,1742258467.251234
0.08000000000000007,-0.05500000000000005,0.28,0.11511999999999989,-0.09460000000000002,0.2868600000000001,-0.19500000000000006,-0.125,0.9550000000000001,-0.06286000000000003,-0.25184000000000006,0.35997999999999997,1742258467.369238
-0.10499999999999998,0.1100000000000001,0.5,0.17456000000000005,-0.24108000000000007,0.13695999999999997,-0.14,0.15999999999999992,0.665,-0.07996000000000003,0.2804,0.1348800000000001,1742258467.4886909
-0.25,0.20500000000000007,0.72,-0.01855999999999991,-0.16064,-0.17015999999999998,0.06499999999999995,0.1499999999999999,0.30499999999999994,-0.16784,0.2107000000000001,-0.029059999999999975,1742258467.593451
-0.19500000000000006,-0.30499999999999994,0.7850000000000001,-0.08105999999999991,0.18592000000000009,-0.3038399999999999,0.14000000000000012,0.16999999999999993,0.135,0.08385999999999982,-0.011099999999999999,-0.24414000000000002,1742258467.707896
0.07499999999999996,-0.365,0.395,-0.05628,0.35572000000000004,0.014639999999999986,-0.025000000000000022,-0.29000000000000004,0.3599999999999999,-0.06946000000000008,-0.1528400000000001,-0.16736000000000006,1742258467.828371
0.19500000000000006,-0.08999999999999997,0.16500000000000004,0.013539999999999885,0.12170000000000014,0.26513999999999993,0.010000000000000009,-0.2849999999999999,0.565,-0.035640000000000005,-0.17224000000000006,0.04174000000000011,1742258467.93515
-0.050000000000000044,0.28,0.2849999999999999,0.15088000000000013,-0.22974000000000006,0.20409999999999995,-0.10999999999999999,-0.0050000000000000044,0.75,-0.04455999999999993,-0.14403999999999995,0.23658,1742258468.0510662
-0.18500000000000005,0.21500000000000008,0.5550000000000002,0.05090000000000017,-0.27674,-0.0006199999999999539,-0.07999999999999996,0.10000000000000009,0.7250000000000001,-0.031120000000000037,0.17613999999999996,0.12535999999999992,1742258468.168277
-0.30499999999999994,0.19999999999999996,0.7,0.10450000000000004,-0.16468000000000005,-0.2058199999999999,0.04499999999999993,0.21999999999999997,0.3700000000000001,-0.10205999999999993,0.21228000000000002,0.02198000000000011,1742258468.2881331
-0.24,-0.14500000000000002,0.7450000000000001,0.007200000000000095,0.08606000000000003,-0.3075,0.08000000000000007,0.15500000000000003,0.23499999999999988,-0.04064000000000001,0.06603999999999988,-0.17015999999999998,1742258468.390359
-0.030000000000000027,-0.235,0.47,-0.05003999999999997,0.35131999999999985,-0.01758000000000004,0.06499999999999995,-0.14500000000000002,0.385,0.04188000000000014,-0.0675,-0.1483199999999999,1742258468.509745
0.11499999999999999,-0.11499999999999999,0.23499999999999988,-0.03858000000000006,0.2376800000000001,0.29736000000000007,0.06000000000000005,-0.22499999999999998,0.51,0.06982,-0.13978000000000002,-0.023440000000000016,1742258468.627789
0.03499999999999992,0.14000000000000012,0.15999999999999992,-0.10438000000000003,-0.13012,0.33386000000000005,0.010000000000000009,-0.15500000000000003,0.635,0.07044000000000006,-0.13891999999999993,0.10364000000000018,1742258468.732162
-0.22499999999999998,0.27,0.4650000000000001,0.2107000000000001,-0.29236000000000006,0.027839999999999865,-0.06499999999999995,-0.10499999999999998,0.8,0.0836199999999998,0.04078000000000004,0.19116,1742258468.848334
-0.36,0.2250000000000001,0.69,0.10070000000000001,-0.20189999999999997,-0.21094000000000002,0.030000000000000027,0.16999999999999993,0.44500000000000006,-0.10399999999999998,0.26868000000000003,0.12451999999999996,1742258468.967843
-0.275,-0.10499999999999998,0.7549999999999999,0.08874000000000004,0.07201999999999997,-0.33055999999999996,0.16500000000000004,0.15500000000000003,0.14000000000000012,-0.21874000000000005,0.11743999999999999,-0.1689400000000001,1742258469.073279
-0.06000000000000005,-0.19999999999999996,0.49,-0.05786000000000002,0.33874000000000004,-0.10546,0.06499999999999995,-0.18999999999999995,0.21999999999999997,0.007440000000000113,-0.14136000000000004,-0.19323999999999997,1742258469.188534
0.14500000000000002,-0.10499999999999998,0.2549999999999999,-0.12414000000000003,0.16442,0.12707999999999986,0.02499999999999991,-0.375,0.47,0.05675999999999992,-0.26416000000000006,-0.03479999999999994,1742258469.308309
0.04499999999999993,0.08000000000000007,0.20500000000000007,0.0023200000000000998,-0.01427999999999996,0.27136000000000005,-0.07000000000000006,-0.345,0.7450000000000001,0.007940000000000058,-0.23875999999999997,0.18297999999999992,1742258469.415075
-0.16000000000000003,0.2849999999999999,0.41500000000000004,0.14440000000000008,-0.22729999999999995,0.15257999999999994,-0.18999999999999995,-0.07000000000000006,0.8500000000000001,-0.05164000000000002,0.08543999999999996,0.24449999999999994,1742258469.530277
-0.275,0.2849999999999999,0.6499999999999999,-0.04455999999999993,-0.20740000000000003,-0.11414000000000002,0.0,0.1499999999999999,0.395,-0.14672000000000007,0.3651199999999999,0.08385999999999982,1742258469.648576
-0.22499999999999998,0.03499999999999992,0.685,0.051140000000000185,0.056519999999999904,-0.23950000000000005,0.16500000000000004,0.15999999999999992,0.14000000000000012,-0.19299999999999995,0.17809999999999993,-0.19811999999999996,1742258469.76818
-0.07499999999999996,-0.07000000000000006,0.52,-0.01758000000000004,0.21960000000000002,-0.1471,0.08000000000000007,-0.09499999999999997,0.15999999999999992,-0.04491999999999996,-0.1849400000000001,-0.28528,1742258469.870369
0.125,-0.29000000000000004,0.375,-0.08775999999999995,0.21960000000000002,0.11035999999999979,-0.06000000000000005,-0.4650000000000001,0.52,-0.11096000000000006,-0.401,0.036739999999999995,1742258469.988859
0.02499999999999991,0.17999999999999994,0.19999999999999996,-0.04200000000000004,0.23595999999999995,0.28503999999999996,-0.025000000000000022,-0.29499999999999993,0.7949999999999999,0.13770000000000016,-0.03272000000000008,0.26879999999999993,1742258470.107795
-0.14500000000000002,0.5350000000000001,0.1499999999999999,-0.020379999999999954,-0.23462000000000005,0.22424,-0.11499999999999999,0.07499999999999996,0.835,-0.06934000000000007,0.22120000000000006,0.2700199999999999,1742258470.211311
-0.345,0.5350000000000001,0.41500000000000004,0.3334999999999999,-0.25464,-0.05553999999999992,0.04499999999999993,0.19999999999999996,0.33000000000000007,-0.1825,0.3542400000000001,0.02391999999999994,1742258470.328691
-0.29000000000000004,0.14000000000000012,0.6299999999999999,0.24511999999999978,0.08618000000000015,-0.24327999999999994,0.17999999999999994,0.18500000000000005,0.09499999999999997,-0.17370000000000008,0.1433199999999999,-0.29896,1742258470.4480908
-0.025000000000000022,0.010000000000000009,0.4950000000000001,-0.012700000000000045,0.26171999999999995,-0.15844000000000003,0.125,-0.35,0.15999999999999992,0.03064,-0.24315999999999993,-0.29212000000000005,1742258470.553293
0.16500000000000004,-0.07999999999999996,0.32000000000000006,0.023800000000000043,0.23509999999999986,0.11743999999999999,0.050000000000000044,-0.575,0.43500000000000005,0.06323999999999996,-0.43982,0.03272000000000008,1742258470.6690838
0.08000000000000007,0.18999999999999995,0.15999999999999992,-0.0040200000000000236,0.007200000000000095,0.29566000000000003,-0.020000000000000018,-0.33000000000000007,0.97,-0.06981999999999988,-0.08141999999999994,0.40527999999999986,1742258470.788862
-0.24,0.41999999999999993,0.345,0.14832,-0.42664,0.12622,-0.07999999999999996,0.18500000000000005,0.6800000000000002,-0.07434000000000007,0.3667,0.2523199999999999,1742258470.893179
-0.44999999999999996,0.2650000000000001,0.76,0.15501999999999994,-0.20141999999999993,-0.14698,0.14500000000000002,0.2250000000000001,0.22999999999999998,-0.31666000000000005,0.1861600000000001,-0.07422000000000006,1742258471.009488
-0.31000000000000005,0.050000000000000044,0.6800000000000002,0.022460000000000147,0.23303999999999991,-0.2561,0.16500000000000004,0.07499999999999996,0.08499999999999996,-0.06286000000000003,-0.019279999999999964,-0.29346000000000005,1742258471.128063
0.0,-0.07000000000000006,0.3900000000000001,-0.08472000000000002,0.2967599999999999,-0.15624000000000005,0.10000000000000009,-0.30000000000000004,0.16500000000000004,-0.005240000000000022,-0.29188000000000003,-0.24622,1742258471.235465
0.20500000000000007,-0.135,0.24,-0.08874000000000004,0.18211999999999984,0.1557599999999999,-0.030000000000000027,-0.745,0.635,-0.27501999999999993,-0.4575199999999999,0.3133600000000001,1742258471.3492138
0.08000000000000007,0.11499999999999999,0.1200000000000001,0.0030599999999998406,-0.05676000000000003,0.39525999999999994,-0.21499999999999997,0.21500000000000008,1.0,-0.01648000000000005,0.10559999999999992,0.42468000000000017,1742258471.468243
-0.38,0.395,0.32000000000000006,-0.19555999999999996,-0.5044,0.19457999999999998,-0.05500000000000005,0.33000000000000007,0.44999999999999996,-0.17224000000000006,0.36119999999999997,-0.022700000000000053,1742258471.587717
-0.595,0.635,0.5150000000000001,0.34716000000000014,-0.17444000000000004,-0.04405999999999999,0.1299999999999999,0.2450000000000001,0.16500000000000004,-0.16552,0.22643999999999997,-0.25036,1742258471.690336
-0.38,0.17999999999999994,0.575,0.1691800000000001,0.09620000000000006,-0.27746000000000004,0.125,0.020000000000000018,0.07000000000000006,-0.03979999999999995,-0.08641999999999994,-0.34412,1742258471.8088791
-0.06000000000000005,-0.10499999999999998,0.41500000000000004,0.04956000000000005,0.3748800000000001,-0.15698,0.10499999999999998,-0.35,0.30499999999999994,-0.03613999999999995,-0.28186,-0.14966000000000002,1742258471.928985
0.11499999999999999,-0.040000000000000036,0.30499999999999994,0.005120000000000013,0.36071999999999993,0.15905999999999998,0.004999999999999893,-0.4099999999999999,0.675,-0.058719999999999994,-0.38073999999999997,0.14647999999999994,1742258472.032001
0.020000000000000018,0.18500000000000005,0.09000000000000008,-0.16198,0.038939999999999975,0.43457999999999997,-0.17500000000000004,-0.06000000000000005,0.8599999999999999,-0.07763999999999993,-0.15025999999999995,0.40405999999999986,1742258472.14941
-0.29000000000000004,0.45999999999999996,0.20999999999999996,0.13598,-0.34742000000000006,0.1800599999999999,-0.20999999999999996,0.33499999999999996,0.655,-0.11596000000000006,0.34802,0.16198,1742258472.2690492
-0.5,0.4950000000000001,0.5049999999999999,0.13842,-0.37354,-0.10046,0.020000000000000018,0.32499999999999996,0.26,-0.07934000000000008,0.35973999999999995,-0.14344,1742258472.3722172
-0.45999999999999996,0.17500000000000004,0.6800000000000002,0.15954000000000002,0.012820000000000054,-0.3140799999999999,0.15500000000000003,0.15999999999999992,0.10000000000000009,-0.16198,-0.011099999999999999,-0.3519200000000001,1742258472.489204
-0.15000000000000002,0.010000000000000009,0.45999999999999996,0.027959999999999985,0.41784,-0.22229999999999994,0.06000000000000005,-0.395,0.1499999999999999,-0.033440000000000025,-0.3414400000000001,-0.21545999999999998,1742258472.6083882
0.23499999999999988,-0.06499999999999995,0.22999999999999998,-0.13184000000000007,0.40076,0.04735999999999985,-0.11499999999999999,-0.31000000000000005,0.69,-0.09301999999999999,-0.50562,0.27088,1742258472.714134
0.03499999999999992,0.24,-0.010000000000000009,-0.027100000000000013,0.06323999999999996,0.43333999999999984,-0.30000000000000004,0.14500000000000002,0.96,-0.040159999999999973,0.07764000000000015,0.3260399999999999,1742258472.8287191
-0.395,0.4950000000000001,0.040000000000000036,0.05298000000000003,-0.38244,0.22473999999999994,-0.18500000000000005,0.2849999999999999,0.5449999999999999,-0.03370000000000006,0.3931800000000001,0.11938000000000004,1742258472.948038
-0.705,0.655,0.51,0.09766000000000008,-0.5652999999999999,-0.062019999999999964,-0.030000000000000027,0.3999999999999999,0.26,0.023679999999999923,0.3944000000000001,-0.20751999999999993,1742258473.056218
-0.45999999999999996,0.3500000000000001,0.6299999999999999,0.20252000000000003,0.18786000000000014,-0.35694000000000004,0.15999999999999992,0.050000000000000044,-0.08999999999999997,-0.07823999999999998,0.17896,-0.4664400000000001,1742258473.170007
-0.06000000000000005,0.04499999999999993,0.3400000000000001,0.09997999999999996,0.45178000000000007,-0.28381999999999996,-0.10499999999999998,-0.705,0.18500000000000005,-0.1850599999999999,-0.25158,-0.23536,1742258473.288501
0.2549999999999999,0.020000000000000018,0.135,-0.18565999999999994,0.17444000000000015,0.03161999999999998,0.020000000000000018,-0.62,0.6600000000000001,0.13476,-0.48632,0.23509999999999986,1742258473.409333
0.15500000000000003,0.14500000000000002,0.1200000000000001,0.24194000000000004,0.08349999999999991,0.37292000000000014,-0.08999999999999997,-0.395,0.9649999999999999,0.059700000000000086,0.05333999999999994,0.4239600000000001,1742258473.510726
-0.31000000000000005,0.5699999999999998,0.345,0.38928000000000007,-0.3152999999999999,0.16748000000000007,0.050000000000000044,0.09499999999999997,0.575,-0.08629999999999993,0.37928000000000006,0.2683199999999999,1742258473.62925
-0.475,0.5249999999999999,0.7650000000000001,0.06359999999999988,-0.27698,-0.20263999999999993,0.19999999999999996,0.21999999999999997,0.11499999999999999,-0.2572000000000001,0.2584200000000001,-0.04394000000000009,1742258473.749433
-0.17500000000000004,0.08499999999999996,0.605,0.024660000000000126,0.27356,-0.34094,0.15999999999999992,0.07499999999999996,-0.040000000000000036,-0.08826,0.04675999999999991,-0.40148000000000006,1742258473.851021
0.1100000000000001,-0.010000000000000009,0.33499999999999996,0.08031999999999995,0.3165199999999999,-0.13746000000000003,0.07000000000000006,-0.59,0.14500000000000002,-0.013299999999999979,-0.38549999999999995,-0.2835599999999999,1742258473.969217
0.26,-0.04500000000000004,0.18500000000000005,-0.058719999999999994,0.1324400000000001,0.13451999999999997,0.020000000000000018,-0.68,0.5550000000000002,0.15954000000000002,-0.3630399999999999,0.15088000000000013,1742258474.088642
0.05499999999999994,0.17500000000000004,0.11499999999999999,-0.14439999999999997,-0.05018,0.31323999999999996,0.004999999999999893,-0.355,1.0,0.012700000000000156,0.027839999999999865,0.29503999999999997,1742258474.1919591
-0.245,0.655,0.21500000000000008,0.02624000000000004,-0.281,0.2498800000000001,0.11499999999999999,-0.07499999999999996,0.41500000000000004,-0.18212000000000006,0.30566000000000004,0.1557599999999999,1742258474.309692
-0.41500000000000004,0.79,0.54,-0.04370000000000007,-0.2229,-0.13012,0.19500000000000006,0.09000000000000008,0.17500000000000004,-0.23229999999999995,0.22120000000000006,-0.07128000000000001,1742258474.429329
-0.20999999999999996,0.20999999999999996,0.6000000000000001,0.22583999999999982,0.1212200000000001,-0.41076,0.14500000000000002,0.09499999999999997,0.010000000000000009,-0.06884000000000001,0.07177999999999995,-0.36438000000000004,1742258474.533043
0.16999999999999993,-0.11499999999999999,0.365,0.14588,0.2813800000000002,-0.1272000000000001,-0.020000000000000018,-0.775,0.15500000000000003,-0.011360000000000037,-0.27025999999999994,-0.17247999999999997,1742258474.648908
0.2250000000000001,0.1200000000000001,0.24,-0.049799999999999955,0.08935999999999988,0.08519999999999994,0.06499999999999995,-0.915,0.4099999999999999,0.30176000000000003,-0.5252600000000001,0.12353999999999998,1742258474.768724
0.1100000000000001,-0.020000000000000018,0.15500000000000003,0.21496000000000004,0.11840000000000006,0.34558,-0.14,-0.565,0.9100000000000001,-0.16052,-0.28064,0.31884,1742258474.8739252
-0.17500000000000004,0.54,0.355,0.2245999999999999,-0.0908199999999999,0.15894000000000008,-0.020000000000000018,-0.07499999999999996,0.4750000000000001,-0.26403999999999994,0.3283600000000002,0.24731999999999998,1742258474.989734
-0.09499999999999997,0.48,0.7050000000000001,0.08850000000000002,-0.13391999999999993,-0.11670000000000003,0.20500000000000007,0.15500000000000003,0.16999999999999993,-0.27246000000000004,0.30518,-0.03161999999999998,1742258475.108924
0.0,0.06000000000000005,0.7050000000000001,0.17028,0.21936000000000022,-0.3258,0.16500000000000004,0.10000000000000009,-0.05500000000000005,-0.09144000000000008,0.09935999999999989,-0.33374000000000004,1742258475.214987
0.30000000000000004,-0.050000000000000044,0.29000000000000004,-0.032480000000000064,0.12683999999999984,-0.10058,0.004999999999999893,-0.72,0.04499999999999993,0.0034199999999999786,-0.33666000000000007,-0.24462000000000006,1742258475.329684
0.19999999999999996,-0.15000000000000002,0.2549999999999999,0.023320000000000007,0.04039999999999999,0.1924999999999999,0.010000000000000009,-1.0,0.52,0.5947200000000001,-0.69996,0.1915199999999999,1742258475.453781
0.1100000000000001,0.19999999999999996,0.07499999999999996,-0.2314400000000001,0.0317400000000001,0.41442,-0.29499999999999993,-0.39,0.8500000000000001,-0.24803999999999993,-0.06434000000000006,0.36840000000000006,1742258475.555837
-0.16000000000000003,0.6000000000000001,0.3700000000000001,-0.01660000000000006,-0.25085999999999997,0.08472000000000013,0.08000000000000007,0.1200000000000001,0.2849999999999999,-0.19446000000000008,0.5258800000000001,0.19457999999999998,1742258475.670079
-0.17000000000000004,0.625,0.635,-0.04515999999999998,-0.26648000000000005,-0.15477999999999992,0.19999999999999996,0.10499999999999998,0.07499999999999996,-0.30372,0.21058,-0.33594,1742258475.7895858
-0.04500000000000004,0.32000000000000006,0.69,-0.03173999999999999,0.051140000000000185,-0.3422799999999999,0.0,-0.39,0.04499999999999993,-0.25916000000000006,-0.13085999999999998,-0.3789,1742258475.9095302
0.19999999999999996,-0.04500000000000004,0.20999999999999996,0.006220000000000114,0.3440000000000001,-0.1224400000000001,0.10000000000000009,-0.875,0.4099999999999999,0.12719999999999998,-0.30896,-0.053100000000000036,1742258476.010991
0.2250000000000001,-0.025000000000000022,0.010000000000000009,-0.07665999999999995,0.14148000000000005,0.28454,0.05499999999999994,-0.685,0.7250000000000001,0.0895999999999999,-0.20214,0.18713999999999986,1742258476.1299598
-0.3400000000000001,0.56,0.03499999999999992,0.33216,-0.23584000000000005,0.4057599999999999,0.020000000000000018,-0.18500000000000005,0.4650000000000001,-0.23839999999999995,0.07788000000000017,0.27368000000000015,1742258476.249542
-0.365,0.605,0.44999999999999996,-0.09105999999999992,-0.46802,0.022820000000000062,0.17999999999999994,0.1299999999999999,0.32000000000000006,-0.27198,0.2756399999999999,-0.07579999999999998,1742258476.352076
-0.275,0.7850000000000001,0.5899999999999999,0.11646000000000001,-0.07299999999999995,-0.23278,0.355,0.05499999999999994,-0.125,-0.03979999999999995,0.22631999999999985,-0.15649999999999997,1742258476.4694872
0.004999999999999893,0.1200000000000001,0.33499999999999996,0.21727999999999992,0.26538000000000017,-0.3639,0.1100000000000001,-0.405,-0.040000000000000036,-0.34326,-0.28344,-0.2527999999999999,1742258476.588753
0.2250000000000001,-0.030000000000000027,0.2749999999999999,0.06994000000000011,0.23583999999999983,-0.07165999999999995,-0.125,-0.785,0.625,0.25416000000000016,-0.27379999999999993,-0.02403999999999995,1742258476.692956
0.26,-0.040000000000000036,0.08499999999999996,-0.22204000000000002,0.17223999999999995,0.29211999999999994,0.05499999999999994,-0.725,0.595,0.18518000000000012,-0.26403999999999994,0.16944000000000004,1742258476.809991
-0.355,0.8199999999999998,-0.030000000000000027,0.41516,-0.09851999999999994,0.5666599999999999,-0.14,-0.355,0.7650000000000001,-0.22375999999999996,-0.02185999999999999,0.27392000000000016,1742258476.929546
-0.385,0.645,0.29000000000000004,-0.18982,-0.4806,-0.05274000000000001,0.2250000000000001,0.05499999999999994,0.20500000000000007,-0.15148000000000006,0.32128,0.14722000000000013,1742258477.035133
-0.41500000000000004,0.75,0.395,0.31104,-0.07165999999999995,-0.15954000000000002,0.28,0.1100000000000001,0.014999999999999902,-0.21058,0.05357999999999996,-0.17712000000000006,1742258477.14996
-0.13,0.020000000000000018,0.4750000000000001,0.23107999999999995,0.19042000000000003,-0.23474000000000006,-0.015000000000000013,-0.19500000000000006,-0.010000000000000009,-0.34362000000000004,-0.3346,-0.23670000000000002,1742258477.270331
0.11499999999999999,0.014999999999999902,0.3599999999999999,0.024900000000000144,0.29078000000000004,-0.10596000000000005,-0.25,-0.625,0.6600000000000001,0.011600000000000055,-0.45629999999999993,0.12231999999999998,1742258477.3895512
0.2650000000000001,-0.040000000000000036,0.135,-0.09777999999999998,0.15638000000000019,0.20972000000000013,-0.21999999999999997,-0.05500000000000005,1.0,0.19775999999999994,0.05152000000000001,0.23902,1742258477.490444
-0.22999999999999998,0.565,0.04499999999999993,0.04516000000000009,-0.12084000000000006,0.39270000000000005,-0.09999999999999998,-0.06000000000000005,0.7,0.04503999999999997,0.3226399999999998,0.1823800000000002,1742258477.609715
-0.5,0.615,0.41500000000000004,0.18506,-0.40576,0.07166000000000006,0.14500000000000002,-0.0050000000000000044,0.32499999999999996,-0.11194000000000004,0.31054000000000004,0.07153999999999994,1742258477.7303958
-0.51,0.5249999999999999,0.625,0.20690000000000008,-0.19091999999999998,-0.2773399999999999,0.2650000000000001,0.1299999999999999,0.020000000000000018,-0.22777999999999998,0.20811999999999986,-0.19140000000000001,1742258477.8320131
-0.10999999999999999,0.04499999999999993,0.405,0.13476,0.4069800000000001,-0.2780799999999999,0.040000000000000036,-0.345,0.06000000000000005,-0.2118,-0.30726,-0.39368000000000003,1742258477.949273
0.28,-0.15000000000000002,0.15500000000000003,0.29821999999999993,0.4704600000000001,0.1457599999999999,-0.29499999999999993,-0.56,0.5249999999999999,0.21692,-0.6615,-0.10803999999999991,1742258478.073826
0.07000000000000006,0.18999999999999995,0.11499999999999999,-0.07701999999999998,-0.09155999999999997,0.29566000000000003,-0.17500000000000004,-0.33000000000000007,0.685,0.2608600000000001,0.13318000000000008,0.3789,1742258478.172993
-0.2849999999999999,0.5049999999999999,0.3900000000000001,0.09729999999999994,-0.3566800000000001,0.15979999999999994,-0.06000000000000005,-0.135,0.73,-0.02415999999999996,0.30786,0.27222000000000013,1742258478.290216
-0.31499999999999995,0.29499999999999993,0.7549999999999999,0.018059999999999965,-0.10914000000000001,-0.11181999999999992,0.25,-0.07499999999999996,0.19500000000000006,-0.25146,0.2809999999999999,0.05003999999999986,1742258478.411295
-0.22499999999999998,0.26,0.625,-0.03515999999999997,0.19957999999999987,-0.21998000000000006,0.23499999999999988,-0.015000000000000013,0.09000000000000008,0.02391999999999994,0.20751999999999993,-0.2804,1742258478.51515
0.040000000000000036,-0.07000000000000006,0.45999999999999996,-0.12573999999999996,0.36206000000000005,-0.21777999999999997,0.004999999999999893,-0.615,-0.08499999999999996,-0.39868000000000003,-0.31128,-0.50866,1742258478.630443
0.32000000000000006,-0.010000000000000009,0.05499999999999994,-0.10863999999999996,0.38270000000000004,0.12524000000000002,-0.41500000000000004,-0.32000000000000006,0.6499999999999999,-0.2045800000000001,-0.28625999999999996,0.20457999999999998,1742258478.750168
0.1499999999999999,0.2450000000000001,-0.025000000000000022,0.15222000000000002,-0.16370000000000007,0.40748000000000006,-0.09999999999999998,-0.255,0.7650000000000001,0.18798000000000004,-0.05676000000000003,0.3807400000000001,1742258478.8699808
-0.49,0.5350000000000001,0.2549999999999999,0.23253999999999997,-0.32886000000000004,0.22706000000000004,0.06000000000000005,-0.32499999999999996,0.635,0.06359999999999988,0.22583999999999982,0.4120999999999999,1742258478.97542
-0.475,0.5150000000000001,0.625,0.14538000000000006,-0.38427999999999995,-0.16771999999999998,0.355,0.1100000000000001,0.08499999999999996,-0.11351999999999995,0.30200000000000005,0.19178000000000006,1742258479.089644
-0.4099999999999999,0.20500000000000007,0.79,0.20716,-0.03515999999999997,-0.24536000000000002,0.27,0.1499999999999999,-0.14,0.08716000000000013,0.014399999999999968,-0.22094000000000003,1742258479.210434
-0.030000000000000027,0.09000000000000008,0.31499999999999995,-0.03173999999999999,0.6091399999999998,-0.16296,-0.025000000000000022,-0.63,-0.09999999999999998,-0.5763,-0.12890000000000001,-0.56176,1742258479.313007
0.31499999999999995,0.030000000000000027,0.1299999999999999,-0.13097999999999999,0.3211600000000001,0.020140000000000047,-0.10499999999999998,-1.0,0.41500000000000004,0.4132,-0.22474000000000005,-0.06896000000000002,1742258479.429943
-0.06000000000000005,0.32499999999999996,0.010000000000000009,-0.14636000000000005,0.01966000000000001,0.40759999999999996,-0.07999999999999996,-0.68,0.73,0.08288000000000006,-0.2581800000000001,0.3777999999999999,1742258479.553686
-0.27,0.56,0.1100000000000001,0.1394000000000002,-0.17479999999999996,0.3436199999999998,-0.015000000000000013,0.08000000000000007,0.665,-0.24229999999999996,0.15710000000000002,0.32397999999999993,1742258479.6539
-0.30499999999999994,0.6600000000000001,0.2250000000000001,-0.06603999999999999,-0.39136000000000004,0.042119999999999935,0.15500000000000003,0.17500000000000004,0.23499999999999988,-0.25988,0.32654000000000005,-0.06494000000000011,1742258479.770657
-0.4650000000000001,0.72,0.43500000000000005,0.16381999999999985,-0.19996000000000003,-0.28613999999999995,0.11499999999999999,0.03499999999999992,-0.030000000000000027,-0.02501999999999993,0.1251199999999999,-0.4252999999999999,1742258479.8904
-0.13,0.2749999999999999,0.30499999999999994,0.12866,0.3306800000000001,-0.4961,0.040000000000000036,-0.87,0.07000000000000006,0.10827999999999993,-0.45118,-0.10339999999999994,1742258479.99589
0.29000000000000004,-0.040000000000000036,0.18500000000000005,0.23840000000000017,0.2462200000000001,-0.22302,0.06499999999999995,-0.72,0.5249999999999999,0.3591399999999998,-0.33814,0.3075000000000001,1742258480.110851
0.1299999999999999,0.09000000000000008,0.20500000000000007,-0.10450000000000004,0.014520000000000088,0.37744,-0.08999999999999997,-0.33499999999999996,0.6400000000000001,-0.29162,-0.09899999999999998,0.07728000000000002,1742258480.231498
-0.09999999999999998,0.6600000000000001,-0.04500000000000004,0.18053999999999992,-0.19068000000000007,0.30786,0.17500000000000004,-0.17000000000000004,0.41999999999999993,-0.05018,0.24853999999999998,0.28857999999999984,1742258480.3504808
-0.2849999999999999,0.585,0.48,0.28381999999999996,-0.49083999999999994,-0.008059999999999956,0.32000000000000006,0.20500000000000007,0.26,-0.19152000000000002,0.15246000000000004,-0.007440000000000002,1742258480.451061
