L-AccX,L-AccY,L-AccZ,L-GyrX,L-GyrY,L-GyrZ,R-AccX,R-AccY,R-AccZ,R-GyrX,R-GyrY,R-GyrZ,timestamp
0.4099999999999999,0.030000000000000027,-0.32000000000000006,-0.06579999999999997,-0.12708000000000008,0.13440000000000007,0.10000000000000009,-0.135,0.405,0.03857999999999984,0.13061999999999996,-0.0030599999999999516,1742249105.2640698
0.77,-0.07999999999999996,0.16999999999999993,0.025640000000000107,-0.01758000000000004,-0.04283999999999999,0.14000000000000012,-0.06499999999999995,0.21500000000000008,-0.057499999999999996,0.13427999999999995,0.040159999999999973,1742249105.3780742
0.43999999999999995,-0.08499999999999996,-0.10999999999999999,-0.07544000000000006,0.06066000000000016,-0.03355999999999992,0.30499999999999994,-0.27,0.31499999999999995,0.04259999999999997,-0.1471,0.0009799999999999809,1742249105.492023
0.1499999999999999,-0.04500000000000004,-0.45999999999999996,-0.11560000000000004,0.010620000000000074,0.07469999999999999,0.48,-0.14,0.575,0.027839999999999865,-0.019399999999999973,-0.07481999999999989,1742249105.606258
0.4099999999999999,0.1100000000000001,-0.19500000000000006,-0.20677999999999996,-0.13648000000000005,0.26892000000000005,0.32499999999999996,-0.13,0.30000000000000004,-0.016240000000000032,0.08216000000000001,-0.08031999999999995,1742249105.720165
0.9100000000000001,0.24,0.32499999999999996,0.06396000000000002,0.025020000000000042,-0.032220000000000026,-0.050000000000000044,-0.405,0.07499999999999996,-0.015859999999999985,-0.13318000000000008,-0.049919999999999964,1742249105.834351
0.45999999999999996,0.03499999999999992,-0.09499999999999997,0.17432000000000003,0.14757999999999982,-0.16186,0.29000000000000004,-0.07000000000000006,0.25,0.07714000000000021,-0.1018,0.07874000000000003,1742249105.948082
0.19500000000000006,-0.08499999999999996,-0.41999999999999993,-0.09826000000000001,0.05371999999999999,-0.07823999999999998,0.53,-0.11499999999999999,0.7149999999999999,0.0012199999999999989,-0.018919999999999937,0.03259999999999996,1742249106.065807
0.2749999999999999,0.050000000000000044,-0.3400000000000001,0.18811999999999984,-0.10363999999999995,0.021120000000000028,0.31000000000000005,-0.07000000000000006,0.5,-0.06946000000000008,0.2354799999999999,-0.03394000000000008,1742249106.176152
0.845,0.11499999999999999,0.09499999999999997,0.015859999999999985,-0.10058,0.0025599999999998957,-0.020000000000000018,-0.24,0.1499999999999999,0.14844000000000013,-0.02391999999999994,-0.04515999999999998,1742249106.290276
0.5,0.08000000000000007,-0.06499999999999995,0.12098000000000009,0.08177999999999996,-0.16381999999999997,0.22999999999999998,-0.07499999999999996,0.31499999999999995,-0.04405999999999999,-0.07874000000000003,0.022820000000000062,1742249106.406005
0.24,-0.11499999999999999,-0.355,-0.15564,0.23863999999999996,-0.08129999999999993,0.44500000000000006,-0.19999999999999996,0.79,-0.06347999999999998,-0.06140000000000001,0.04455999999999993,1742249106.518185
0.17500000000000004,-0.18999999999999995,-0.595,0.07714000000000021,-0.07201999999999997,0.015139999999999931,0.19999999999999996,-0.17999999999999994,0.5550000000000002,-0.10620000000000007,0.048819999999999864,0.0027999999999999137,1742249106.632076
0.42500000000000004,-0.07499999999999996,-0.405,-0.03834000000000004,-0.16858000000000006,0.13636000000000004,0.06000000000000005,-0.050000000000000044,0.385,-0.03808,0.08570000000000011,-0.026859999999999995,1742249106.748638
0.7349999999999999,-0.06499999999999995,0.020000000000000018,0.03698000000000001,-0.009759999999999991,-0.028799999999999937,0.1200000000000001,-0.09499999999999997,0.10499999999999998,-0.05798000000000003,0.03845999999999994,0.06323999999999996,1742249106.860109
0.41500000000000004,-0.025000000000000022,-0.20499999999999996,-0.006960000000000077,0.12047999999999992,-0.09911999999999999,0.21500000000000008,-0.265,0.355,0.06359999999999988,-0.15013999999999994,0.03601999999999994,1742249106.9741051
0.15500000000000003,-0.18500000000000005,-0.4099999999999999,-0.02210000000000001,0.006839999999999957,-0.04259999999999997,0.55,-0.015000000000000013,0.655,-0.036739999999999995,-0.021240000000000037,-0.0043999999999999595,1742249107.088277
0.32000000000000006,0.020000000000000018,-0.33000000000000007,0.16468000000000016,-0.04455999999999993,0.02855999999999992,0.20500000000000007,-0.0050000000000000044,0.55,0.04614000000000007,0.10631999999999997,-0.016720000000000068,1742249107.203043
0.5899999999999999,0.07000000000000006,0.0,-0.006099999999999994,-0.04515999999999998,0.05848000000000009,0.04499999999999993,-0.11499999999999999,0.17500000000000004,0.09851999999999994,-0.0039000000000000146,-0.04418,1742249107.3162398
0.56,-0.025000000000000022,-0.11499999999999999,-0.007940000000000058,0.11268000000000011,-0.06176000000000004,0.21999999999999997,-0.0050000000000000044,0.4099999999999999,-0.03527999999999998,-0.011360000000000037,0.03198000000000012,1742249107.4302888
0.33499999999999996,-0.0050000000000000044,-0.345,0.05235999999999996,0.10070000000000001,-0.04200000000000004,0.2549999999999999,-0.07499999999999996,0.42999999999999994,-0.15760000000000007,-0.029899999999999927,0.028079999999999883,1742249107.547312
0.27,-0.10999999999999999,-0.405,0.10864000000000007,0.02320000000000011,-0.03491999999999995,0.32499999999999996,-0.16500000000000004,0.585,0.09742000000000006,-0.06884000000000001,-0.02734000000000003,1742249107.658069
0.42500000000000004,-0.03500000000000003,-0.19999999999999996,-0.1825,-0.12487999999999999,0.16198,0.24,-0.12,0.4099999999999999,0.012460000000000138,-0.005120000000000013,-0.02734000000000003,1742249107.772031
0.685,0.05499999999999994,0.08499999999999996,0.014780000000000015,-0.09314,-0.007200000000000095,0.040000000000000036,-0.15000000000000002,0.20500000000000007,0.051140000000000185,-0.053100000000000036,-0.0010999999999999899,1742249107.887514
0.5150000000000001,-0.0050000000000000044,-0.15500000000000003,0.028200000000000003,0.10997999999999997,-0.06665999999999994,0.16999999999999993,-0.07000000000000006,0.575,-0.02513999999999994,-0.0022000000000000908,-0.014900000000000024,1742249108.00016
0.29000000000000004,-0.10499999999999998,-0.4,0.00878000000000001,0.033320000000000016,-0.1127999999999999,0.33499999999999996,-0.26,0.6000000000000001,-0.032220000000000026,-0.0014600000000000168,0.006839999999999957,1742249108.114076
0.31000000000000005,-0.14,-0.4,-0.06555999999999995,-0.014639999999999986,0.07922000000000007,0.2749999999999999,-0.09499999999999997,0.5049999999999999,-0.005240000000000022,0.011719999999999953,-0.03076000000000001,1742249108.2300968
0.43999999999999995,0.004999999999999893,-0.28,0.018320000000000114,-0.08105999999999991,0.12292000000000014,0.1299999999999999,-0.08999999999999997,0.3700000000000001,-0.01867999999999992,0.17199999999999993,-0.04601999999999995,1742249108.347084
0.665,0.07000000000000006,-0.015000000000000013,0.020140000000000047,-0.04527999999999999,-0.011600000000000055,0.1499999999999999,-0.125,0.2849999999999999,0.029179999999999984,0.07055999999999996,0.025020000000000042,1742249108.455863
0.44500000000000006,0.004999999999999893,-0.13,0.041380000000000194,0.06494,-0.06981999999999988,0.345,-0.14500000000000002,0.26,0.09606000000000003,-0.0908199999999999,-0.017940000000000067,1742249108.569047
0.2749999999999999,-0.06000000000000005,-0.33000000000000007,0.00770000000000004,0.08216000000000001,-0.05908000000000002,0.43999999999999995,-0.14,0.52,-0.07189999999999996,-0.0018400000000000638,0.01305999999999985,1742249108.688349
0.355,-0.07499999999999996,-0.42500000000000004,0.017220000000000013,-0.07422000000000006,0.03601999999999994,0.18500000000000005,-0.12,0.5249999999999999,0.0042800000000000615,-0.00770000000000004,-0.022580000000000044,1742249108.7970712
0.45500000000000007,-0.07499999999999996,-0.32499999999999996,-0.017080000000000095,-0.18274,0.10253999999999985,0.16500000000000004,-0.16000000000000003,0.3799999999999999,-0.060799999999999965,0.18518000000000012,0.005120000000000013,1742249108.910937
0.635,-0.010000000000000009,0.014999999999999902,0.06666000000000016,-0.036619999999999986,-0.05725999999999998,0.22999999999999998,-0.09999999999999998,0.29000000000000004,0.0013400000000001189,0.03869999999999996,0.03956000000000004,1742249109.028137
0.44999999999999996,0.010000000000000009,-0.14500000000000002,0.02222000000000013,0.07764000000000015,-0.06446000000000007,0.29000000000000004,-0.05500000000000005,0.41999999999999993,-0.06529999999999991,-0.02076,0.0009799999999999809,1742249109.138093
0.33499999999999996,-0.12,-0.235,0.020499999999999963,0.12670000000000003,-0.09655999999999998,0.2849999999999999,-0.22499999999999998,0.55,0.036619999999999875,-0.04479999999999995,-0.010499999999999954,1742249109.2521
0.32000000000000006,-0.07999999999999996,-0.4099999999999999,-0.01660000000000006,-0.008660000000000001,0.044319999999999915,0.29499999999999993,-0.12,0.5550000000000002,-0.016720000000000068,0.031239999999999934,0.00537999999999994,1742249109.36823
0.41999999999999993,0.030000000000000027,-0.20999999999999996,-0.08460000000000001,-0.12341999999999997,0.15124000000000004,0.25,-0.15500000000000003,0.3599999999999999,-0.007200000000000095,0.11292000000000013,-0.036860000000000004,1742249109.4800231
0.72,0.030000000000000027,0.1100000000000001,0.03527999999999998,-0.07250000000000001,-0.0037800000000000056,0.19999999999999996,-0.125,0.21500000000000008,-0.04405999999999999,0.011600000000000055,0.03747999999999996,1742249109.593923
0.53,-0.03500000000000003,-0.08999999999999997,0.029059999999999864,0.056519999999999904,-0.056640000000000024,0.23499999999999988,-0.07999999999999996,0.4099999999999999,0.047599999999999865,-0.06470000000000009,-0.0027999999999999137,1742249109.709762
0.32499999999999996,-0.125,-0.29000000000000004,-0.02210000000000001,0.08983999999999992,-0.026000000000000023,0.3900000000000001,-0.17000000000000004,0.5350000000000001,0.03869999999999996,-0.019399999999999973,0.0037799999999998946,1742249109.828594
0.385,-0.010000000000000009,-0.31000000000000005,0.08814000000000011,-0.04747999999999997,0.00865999999999989,0.2549999999999999,-0.09499999999999997,0.52,0.006340000000000012,0.040039999999999853,-0.054320000000000035,1742249109.935961
0.45999999999999996,-0.07000000000000006,-0.31000000000000005,-0.0075599999999999,-0.20775999999999994,0.09216000000000002,0.18500000000000005,-0.13,0.3400000000000001,-0.042240000000000055,0.11816000000000004,0.041260000000000074,1742249110.049938
0.595,-0.010000000000000009,-0.03500000000000003,0.07214000000000009,0.025880000000000125,-0.0697000000000001,0.19500000000000006,-0.05500000000000005,0.32499999999999996,0.07654000000000005,0.05553999999999992,0.03516000000000008,1742249110.169018
0.47,0.040000000000000036,-0.14500000000000002,0.06640000000000001,0.05235999999999996,-0.08629999999999993,0.31000000000000005,-0.12,0.2849999999999999,0.07642000000000015,-0.05176000000000003,-0.011099999999999999,1742249110.276959
0.2549999999999999,-0.10999999999999999,-0.32000000000000006,0.044440000000000035,0.05505999999999989,-0.059940000000000104,0.395,-0.17000000000000004,0.5550000000000002,-0.08350000000000002,0.07079999999999997,0.022340000000000027,1742249110.390929
0.375,0.010000000000000009,-0.255,-0.006099999999999994,-0.02525999999999995,0.04468000000000005,0.31000000000000005,-0.10999999999999999,0.45999999999999996,0.021120000000000028,0.008539999999999992,-0.020499999999999963,1742249110.5083158
0.54,-0.020000000000000018,-0.09999999999999998,-0.03394000000000008,-0.16064,0.06372,0.20999999999999996,-0.07000000000000006,0.29000000000000004,-0.053100000000000036,0.1324400000000001,0.05285999999999991,1742249110.61885
0.5899999999999999,-0.030000000000000027,-0.025000000000000022,-0.00012000000000000899,0.06420000000000003,-0.028079999999999994,0.26,-0.10499999999999998,0.24,-0.03527999999999998,-0.11987999999999999,-0.0045199999999999685,1742249110.733067
0.365,-0.07000000000000006,-0.2849999999999999,0.020019999999999927,0.19579999999999997,-0.04310000000000003,0.2749999999999999,-0.16000000000000003,0.4750000000000001,-0.18334000000000006,-0.10741999999999996,0.011479999999999935,1742249110.848792
0.2749999999999999,-0.12,-0.43999999999999995,0.04845999999999995,-0.00660000000000005,0.02222000000000013,0.2549999999999999,-0.15000000000000002,0.5249999999999999,0.005740000000000078,-0.009399999999999964,-0.02746000000000004,1742249110.9657931
0.3700000000000001,0.040000000000000036,-0.18999999999999995,0.056400000000000006,-0.11485999999999996,0.07006000000000001,0.20500000000000007,-0.14,0.3999999999999999,0.018320000000000114,0.09388000000000019,0.03723999999999994,1742249111.074767
0.6699999999999999,-0.040000000000000036,0.040000000000000036,0.05468000000000006,-0.025399999999999978,-0.038940000000000086,0.15999999999999992,-0.08499999999999996,0.27,0.026000000000000023,0.03614000000000006,-0.008919999999999928,1742249111.189336
0.44999999999999996,0.014999999999999902,-0.125,0.010739999999999972,0.14746000000000015,-0.05884,0.2849999999999999,-0.08999999999999997,0.30499999999999994,0.08020000000000005,-0.10144000000000009,-0.04027999999999998,1742249111.308994
0.25,-0.08999999999999997,-0.41500000000000004,0.009640000000000093,0.09631999999999996,-0.06115999999999999,0.365,-0.08499999999999996,0.595,-0.0040200000000000236,-0.055179999999999896,-0.010140000000000038,1742249111.416008
0.31000000000000005,-0.06499999999999995,-0.42999999999999994,-0.03394000000000008,-0.08251999999999993,0.10119999999999996,0.15500000000000003,-0.09999999999999998,0.56,-0.06335999999999997,0.07811999999999997,-0.024540000000000006,1742249111.530019
0.5049999999999999,-0.05500000000000005,-0.31000000000000005,-0.0017000000000000348,-0.16613999999999995,0.11009999999999986,0.135,-0.11499999999999999,0.395,0.013299999999999867,0.10888000000000009,0.014639999999999986,1742249111.64889
0.56,-0.020000000000000018,-0.14500000000000002,-0.00036000000000002697,-0.024780000000000024,-0.02648000000000006,0.16999999999999993,-0.14500000000000002,0.33499999999999996,-0.02185999999999999,0.1290199999999999,0.04908000000000001,1742249111.756842
0.5,0.010000000000000009,-0.17000000000000004,-0.0393,0.048819999999999864,-0.10155999999999998,0.2450000000000001,-0.265,0.32499999999999996,-0.0039000000000000146,-0.07713999999999999,0.010140000000000038,1742249111.870931
0.29000000000000004,-0.10499999999999998,-0.355,0.05479999999999996,0.030160000000000187,-0.06725999999999999,0.405,-0.14500000000000002,0.5249999999999999,0.027099999999999902,-0.04577999999999993,-0.015859999999999985,1742249111.990006
0.375,-0.10499999999999998,-0.07000000000000006,-0.08862000000000003,-0.031000000000000028,0.09155999999999986,0.33000000000000007,-0.17000000000000004,0.395,0.056400000000000006,-0.0013400000000000079,-0.0036599999999999966,1742249112.098953
0.605,-0.020000000000000018,0.07499999999999996,-0.0393,-0.1177999999999999,0.0317400000000001,0.21500000000000008,-0.135,0.2849999999999999,0.0578599999999998,0.07264000000000004,0.03601999999999994,1742249112.2127302
0.565,-0.015000000000000013,-0.03500000000000003,0.014399999999999968,0.03527999999999998,-0.03088000000000002,0.2450000000000001,-0.09999999999999998,0.23499999999999988,-0.01427999999999996,-0.07323999999999997,-0.01208000000000009,1742249112.333725
0.375,-0.09999999999999998,-0.235,0.017819999999999947,0.13074000000000008,-0.07116,0.3599999999999999,-0.17000000000000004,0.4750000000000001,-0.07165999999999995,-0.08275999999999994,-0.0040200000000000236,1742249112.440091
0.2749999999999999,-0.13,-0.36,-0.010739999999999972,0.058720000000000105,0.012700000000000156,0.32000000000000006,-0.15000000000000002,0.5049999999999999,-0.02403999999999995,-0.01097999999999999,-0.02294000000000007,1742249112.5542378
0.3999999999999999,-0.040000000000000036,-0.355,-0.14698,-0.09863999999999995,0.18663999999999992,0.25,-0.19500000000000006,0.3700000000000001,0.10364000000000018,0.0307599999999999,0.04078000000000004,1742249112.669129
0.6699999999999999,0.10000000000000009,0.06000000000000005,-0.05053999999999992,-0.05577999999999994,0.09007999999999994,0.18999999999999995,-0.08999999999999997,0.2250000000000001,0.09997999999999996,0.018059999999999965,0.02307999999999999,1742249112.7887611
0.5350000000000001,-0.015000000000000013,-0.05500000000000005,0.01953999999999989,0.09533999999999998,-0.05506,0.28,-0.050000000000000044,0.365,0.01855999999999991,-0.05884,-0.021120000000000028,1742249112.89396
0.3999999999999999,-0.015000000000000013,-0.24,0.011719999999999953,0.09911999999999987,-0.05018,0.30000000000000004,-0.24,0.33000000000000007,-0.16724000000000006,-0.07434000000000007,-0.011600000000000055,1742249113.009554
0.23499999999999988,-0.14500000000000002,-0.43500000000000005,0.023679999999999923,-0.009279999999999955,0.023320000000000007,0.33000000000000007,-0.17500000000000004,0.55,0.010140000000000038,0.015139999999999931,0.00035999999999991594,1742249113.128931
0.3500000000000001,0.0,-0.365,-0.06359999999999999,-0.1596599999999999,0.16736000000000018,0.20500000000000007,-0.16500000000000004,0.3700000000000001,-0.02844000000000002,0.09192,0.04747999999999997,1742249113.234729
0.7450000000000001,-0.010000000000000009,0.2450000000000001,0.07166000000000006,-0.13696000000000008,-0.025760000000000005,0.2250000000000001,-0.08999999999999997,0.14500000000000002,0.030019999999999936,0.05285999999999991,0.03614000000000006,1742249113.3497238
0.3400000000000001,-0.04500000000000004,-0.010000000000000009,0.11229999999999984,0.19213999999999998,-0.12670000000000003,0.23499999999999988,-0.17000000000000004,0.48,-0.03076000000000001,0.04405999999999999,-0.018440000000000012,1742249113.470159
0.2749999999999999,-0.06499999999999995,-0.245,-0.06481999999999999,0.20775999999999994,-0.03503999999999996,0.42999999999999994,-0.18500000000000005,0.44500000000000006,-0.16858000000000006,-0.12109999999999999,-0.04039999999999999,1742249113.575976
0.30000000000000004,-0.06000000000000005,-0.505,0.08472000000000013,-0.10046,0.07031999999999994,0.2549999999999999,-0.16000000000000003,0.5899999999999999,-0.05125999999999997,0.025020000000000042,-0.032480000000000064,1742249113.6903412
0.4099999999999999,0.020000000000000018,-0.33000000000000007,-0.06103999999999998,-0.31396,0.19190000000000018,0.21999999999999997,-0.04500000000000004,0.365,0.00035999999999991594,0.1665000000000001,0.027839999999999865,1742249113.80973
0.6600000000000001,0.06499999999999995,0.08499999999999996,0.05054000000000003,0.04479999999999995,-0.048960000000000004,0.23499999999999988,-0.07499999999999996,0.08000000000000007,-0.01660000000000006,-0.03760000000000008,-0.0009799999999999809,1742249113.91694
0.4650000000000001,-0.04500000000000004,-0.16500000000000004,0.02844000000000002,0.17028,-0.09510000000000007,0.31000000000000005,-0.06000000000000005,0.33000000000000007,0.04357999999999995,-0.026000000000000023,-0.03942000000000001,1742249114.030875
0.2849999999999999,-0.09999999999999998,-0.395,-0.010379999999999945,0.1189,-0.04858000000000007,0.4750000000000001,-0.14500000000000002,0.6600000000000001,0.015859999999999985,0.002080000000000082,-0.009039999999999937,1742249114.150059
0.345,0.004999999999999893,-0.28,-0.010140000000000038,-0.09655999999999998,0.062019999999999964,0.16999999999999993,-0.09499999999999997,0.6000000000000001,-0.017820000000000058,0.10289999999999999,0.02746000000000004,1742249114.257783
0.595,0.08000000000000007,0.22999999999999998,0.048699999999999966,-0.12963999999999998,0.007319999999999993,0.2549999999999999,-0.07499999999999996,0.20500000000000007,0.1482000000000001,0.05078000000000005,0.058339999999999836,1742249114.371774
0.56,0.040000000000000036,0.010000000000000009,0.04833999999999983,0.07335999999999987,-0.06053999999999993,0.2450000000000001,-0.08499999999999996,0.1200000000000001,-0.03870000000000007,-0.09498000000000006,-0.04188000000000003,1742249114.490871
0.4099999999999999,0.030000000000000027,-0.18500000000000005,-0.02501999999999993,0.07006000000000001,-0.05822000000000005,0.20500000000000007,-0.36,0.3400000000000001,0.10681999999999992,-0.18762,-0.027700000000000058,1742249114.600116
0.2749999999999999,-0.14500000000000002,-0.39,0.03857999999999984,0.07397999999999993,-0.05896000000000001,0.385,-0.21999999999999997,0.575,-0.03820000000000001,-0.09374000000000005,-0.002080000000000082,1742249114.714054
0.3400000000000001,-0.10999999999999999,-0.15000000000000002,-0.06286000000000003,-0.11241999999999996,0.10694000000000004,0.2849999999999999,-0.10499999999999998,0.5150000000000001,0.06518000000000002,0.10474000000000006,0.0578599999999998,1742249114.830391
0.74,0.10499999999999998,0.23499999999999988,-0.012820000000000054,-0.08165999999999995,0.006839999999999957,0.19500000000000006,-0.09999999999999998,0.18500000000000005,0.12170000000000014,0.041140000000000176,0.03186,1742249114.940553
0.5249999999999999,0.04499999999999993,0.02499999999999991,0.10938000000000003,0.05688000000000004,-0.10205999999999993,0.21500000000000008,-0.10499999999999998,0.31000000000000005,0.05896000000000012,-0.11499999999999999,-0.029299999999999993,1742249115.0537548
0.365,-0.025000000000000022,-0.24,0.04908000000000001,0.12866,-0.02624000000000004,0.2450000000000001,-0.30000000000000004,0.4099999999999999,-0.22741999999999996,0.033320000000000016,0.025519999999999987,1742249115.1701188
0.375,-0.11499999999999999,-0.33499999999999996,0.07678000000000007,0.019400000000000084,0.012939999999999952,0.44500000000000006,-0.125,0.5350000000000001,0.09644000000000008,-0.049799999999999955,-0.039919999999999956,1742249115.290132
0.44500000000000006,-0.015000000000000013,-0.27,-0.028940000000000077,-0.25134,0.19202000000000008,0.20999999999999996,-0.17000000000000004,0.33499999999999996,0.026739999999999986,0.16809999999999992,0.03320000000000012,1742249115.395885
0.6299999999999999,-0.06000000000000005,0.14000000000000012,0.01195999999999997,0.038819999999999855,-0.03051999999999999,0.2250000000000001,-0.14500000000000002,0.09499999999999997,-0.07153999999999994,-0.006460000000000021,0.021120000000000028,1742249115.510793
0.4650000000000001,-0.025000000000000022,-0.10999999999999999,0.02293999999999996,0.14026000000000005,-0.09631999999999996,0.26,-0.07999999999999996,0.33499999999999996,-0.0032999999999999696,-0.10596000000000005,-0.04077999999999993,1742249115.63082
0.29499999999999993,-0.06000000000000005,-0.355,0.06884000000000001,0.06469999999999998,-0.09326000000000001,0.5550000000000002,-0.030000000000000027,0.6200000000000001,0.04527999999999999,-0.0023200000000000998,0.0009799999999999809,1742249115.737648
0.32000000000000006,-0.07499999999999996,-0.21999999999999997,-0.055299999999999905,-0.21924,0.1203599999999998,0.365,-0.07999999999999996,0.45500000000000007,-0.00036000000000002697,0.17955999999999994,-0.008419999999999983,1742249115.852343
0.6600000000000001,0.1100000000000001,0.2450000000000001,0.0006200000000000649,-0.18664000000000003,0.05908000000000002,0.2849999999999999,-0.07499999999999996,0.15999999999999992,0.14904000000000006,0.16052,-0.016960000000000086,1742249115.970464
0.54,0.08499999999999996,0.1299999999999999,-0.046499999999999986,0.10888000000000009,-0.047719999999999985,0.26,-0.10999999999999999,0.050000000000000044,-0.13049999999999995,-0.07201999999999997,-0.02648000000000006,1742249116.079836
0.43500000000000005,-0.030000000000000027,-0.19500000000000006,-0.1272000000000001,0.1816399999999998,-0.01648000000000005,0.3999999999999999,-0.17500000000000004,0.31499999999999995,-0.15674,-0.10277999999999998,-0.0031799999999999606,1742249116.1939
0.32499999999999996,-0.07499999999999996,-0.385,0.12890000000000001,-0.04283999999999999,0.008059999999999956,0.3599999999999999,-0.28,0.49,0.053099999999999925,0.030999999999999917,-0.01978000000000002,1742249116.3104692
0.48,0.125,-0.21999999999999997,-0.05298000000000003,-0.21644000000000008,0.1263399999999999,0.2650000000000001,-0.21999999999999997,0.24,0.0638399999999999,0.14832,0.006960000000000077,1742249116.430929
0.685,-0.030000000000000027,0.24,-0.020259999999999945,-0.08739999999999992,-0.001960000000000073,0.20999999999999996,-0.16000000000000003,0.08499999999999996,-0.04382000000000008,0.062019999999999964,0.016000000000000014,1742249116.5346618
0.5049999999999999,-0.0050000000000000044,0.06000000000000005,0.09973999999999994,0.12292000000000014,-0.06408000000000003,0.24,-0.21999999999999997,0.14000000000000012,0.007319999999999993,-0.12696000000000007,-0.07787999999999995,1742249116.650582
0.33499999999999996,0.004999999999999893,-0.22499999999999998,0.05164000000000013,0.12475999999999998,-0.03539999999999999,0.53,-0.30000000000000004,0.615,-0.04149999999999998,-0.04932000000000003,0.01305999999999985,1742249116.762809
0.3799999999999999,0.014999999999999902,-0.10499999999999998,0.019160000000000066,-0.0675,0.06359999999999988,0.3900000000000001,-0.22999999999999998,0.3599999999999999,0.023320000000000007,0.05333999999999994,0.011719999999999953,1742249116.876587
0.565,0.135,0.16999999999999993,-0.043340000000000045,-0.18603999999999998,0.07496000000000014,0.30000000000000004,-0.16500000000000004,0.1499999999999999,-0.02954000000000001,0.1447799999999999,0.06140000000000012,1742249116.991218
0.54,0.030000000000000027,0.125,0.03601999999999994,0.07347999999999999,-0.05603999999999998,0.2549999999999999,-0.17500000000000004,0.08499999999999996,-0.04798000000000002,-0.08948,-0.009399999999999964,1742249117.110632
0.42999999999999994,0.06000000000000005,-0.040000000000000036,-0.012700000000000045,0.20886000000000005,-0.11987999999999999,0.27,-0.405,0.31000000000000005,-0.11499999999999999,-0.20704,-0.008539999999999992,1742249117.217837
0.345,-0.030000000000000027,-0.35,0.03747999999999996,0.10742000000000007,-0.07752000000000003,0.365,-0.25,0.45999999999999996,-0.007320000000000104,-0.09008000000000005,0.010140000000000038,1742249117.3317518
0.4099999999999999,-0.010000000000000009,-0.28,-0.03283999999999998,-0.22558,0.10340000000000016,0.26,-0.08999999999999997,0.4750000000000001,-0.012580000000000036,0.16149999999999998,0.022699999999999942,1742249117.451062
0.635,0.17999999999999994,0.2849999999999999,0.0015800000000001369,-0.18908000000000003,0.040039999999999853,0.29499999999999993,-0.07499999999999996,0.19500000000000006,0.11853999999999987,0.14100000000000001,0.02391999999999994,1742249117.559608
0.53,0.0,0.15999999999999992,0.03064,0.10424000000000011,-0.06689999999999996,0.33000000000000007,-0.09499999999999997,0.10000000000000009,0.0043999999999999595,-0.06286000000000003,0.005980000000000096,1742249117.673723
0.42999999999999994,0.030000000000000027,-0.10499999999999998,0.04932000000000003,0.1348800000000001,-0.020499999999999963,0.31000000000000005,-0.14500000000000002,0.3799999999999999,-0.14746000000000004,-0.009039999999999937,0.0027999999999999137,1742249117.789908
0.355,-0.040000000000000036,-0.3400000000000001,0.048579999999999846,-0.021120000000000028,-0.0045199999999999685,0.42999999999999994,-0.21999999999999997,0.48,-0.010000000000000009,0.04956000000000005,-0.006220000000000003,1742249117.910591
0.43999999999999995,0.20500000000000007,0.1100000000000001,-0.20020000000000004,-0.14781999999999995,0.10411999999999999,0.405,-0.20999999999999996,0.135,0.016839999999999966,0.09899999999999998,0.027099999999999902,1742249118.015487
0.7149999999999999,-0.08499999999999996,0.32000000000000006,-0.012580000000000036,-0.06274000000000002,-0.045419999999999905,0.29000000000000004,-0.11499999999999999,-0.040000000000000036,-0.035519999999999996,0.02185999999999999,0.06018000000000012,1742249118.130518
0.4099999999999999,0.004999999999999893,0.125,0.05346000000000006,0.22094000000000014,-0.09887999999999997,0.32499999999999996,-0.03500000000000003,0.30499999999999994,-0.046499999999999986,-0.0916800000000001,-0.053100000000000036,1742249118.242773
0.33499999999999996,-0.08499999999999996,-0.245,0.06445999999999996,0.1656399999999998,-0.10486000000000006,0.52,-0.14,0.49,0.015020000000000033,-0.07238,-0.022340000000000027,1742249118.356708
0.365,-0.025000000000000022,-0.37,-0.060919999999999974,-0.12684000000000006,0.12561999999999984,0.31000000000000005,-0.21499999999999997,0.5550000000000002,-0.07068000000000008,0.1713800000000001,0.012700000000000156,1742249118.470934
0.49,-0.040000000000000036,-0.22999999999999998,-0.03272000000000008,-0.24,0.11938000000000004,0.20999999999999996,-0.18500000000000005,0.26,0.01648000000000005,0.09179999999999988,0.0043999999999999595,1742249118.590945
0.6200000000000001,-0.08499999999999996,0.21999999999999997,0.036619999999999875,-0.005619999999999958,-0.04174,0.31000000000000005,-0.13,0.06499999999999995,-0.08422000000000007,0.0341800000000001,0.021360000000000046,1742249118.697671
0.595,0.010000000000000009,-0.09499999999999997,0.016119999999999912,0.12622,-0.07386000000000004,0.3500000000000001,-0.15500000000000003,0.06499999999999995,0.02966000000000002,-0.16161999999999999,-0.09338000000000002,1742249118.811664
0.2849999999999999,-0.07000000000000006,-0.31000000000000005,0.09959999999999991,0.09179999999999988,-0.07481999999999989,0.5249999999999999,-0.25,0.605,0.0611600000000001,-0.09802,-0.030279999999999974,1742249118.930616
0.43500000000000005,-0.08499999999999996,-0.05500000000000005,-0.07874000000000003,-0.17188000000000003,0.13598,0.32000000000000006,-0.14,0.45999999999999996,0.07531999999999983,0.08129999999999993,-0.005979999999999985,1742249119.03961
0.6800000000000002,0.03499999999999992,0.26,0.053099999999999925,-0.09826000000000001,0.006960000000000077,0.2250000000000001,-0.14,0.07000000000000006,0.046499999999999986,0.016839999999999966,0.04405999999999999,1742249119.153428
0.53,-0.06000000000000005,0.04499999999999993,0.05809999999999982,0.11253999999999986,-0.04712000000000005,0.2549999999999999,-0.15000000000000002,0.26,0.0009799999999999809,-0.08775999999999995,-0.04052,1742249119.2741692
0.43500000000000005,-0.015000000000000013,-0.19999999999999996,0.024780000000000024,0.15233999999999992,-0.03355999999999992,0.29000000000000004,-0.14,0.3999999999999999,-0.22314,0.019039999999999946,0.025640000000000107,1742249119.380495
0.375,-0.07999999999999996,-0.395,-0.014399999999999968,0.0623800000000001,-0.019540000000000002,0.375,-0.275,0.49,-0.05467999999999995,0.04785999999999979,0.0041599999999999415,1742249119.49457
0.41999999999999993,-0.14500000000000002,-0.10499999999999998,-0.13146000000000002,-0.14698,0.13232,0.3700000000000001,-0.17000000000000004,0.33499999999999996,0.10340000000000016,0.04418000000000011,0.0354000000000001,1742249119.61055
0.6699999999999999,0.04499999999999993,0.19500000000000006,0.012939999999999952,-0.14415999999999995,0.023679999999999923,0.23499999999999988,-0.13,0.1499999999999999,0.14403999999999995,0.06494,0.019400000000000084,1742249119.7213812
0.575,0.02499999999999991,0.08499999999999996,0.0650599999999999,0.07044000000000006,-0.04810000000000003,0.29000000000000004,-0.11499999999999999,0.17999999999999994,0.0039000000000000146,-0.046760000000000024,-0.04271999999999998,1742249119.834608
0.44500000000000006,0.02499999999999991,-0.10499999999999998,0.029779999999999918,0.1334200000000001,-0.04491999999999996,0.32499999999999996,-0.18500000000000005,0.32000000000000006,-0.1775,-0.03320000000000001,0.016599999999999948,1742249119.95048
0.345,-0.08499999999999996,-0.39,0.009279999999999955,0.006220000000000114,0.01537999999999995,0.395,-0.21499999999999997,0.43999999999999995,0.014520000000000088,0.05848000000000009,-0.037959999999999994,1742249120.0707269
0.45999999999999996,0.14500000000000002,-0.020000000000000018,-0.2943199999999999,-0.15489999999999993,0.23156,0.345,-0.265,0.22999999999999998,-0.0050000000000000044,0.10816000000000003,-0.02624000000000004,1742249120.176575
0.7349999999999999,0.09499999999999997,0.28,-0.060799999999999965,-0.08679999999999999,0.020380000000000065,0.20500000000000007,-0.16000000000000003,-0.07499999999999996,0.023560000000000025,0.05285999999999991,0.0046399999999999775,1742249120.290553
0.45999999999999996,0.014999999999999902,0.07499999999999996,0.09704000000000002,0.18542000000000014,-0.09326000000000001,0.24,-0.28,0.3700000000000001,-0.02415999999999996,-0.15246000000000004,-0.03846000000000005,1742249120.410882
0.31499999999999995,0.040000000000000036,-0.18500000000000005,0.0674999999999999,0.2657400000000001,-0.15039999999999998,0.4750000000000001,-0.255,0.5800000000000001,0.048699999999999966,-0.1311,0.00011999999999989797,1742249120.518514
0.395,-0.050000000000000044,-0.56,-0.0024400000000001087,-0.011240000000000028,0.06603999999999988,0.28,-0.26,0.5699999999999998,-0.11756,0.052240000000000064,0.0023200000000000998,1742249120.632515
0.4849999999999999,0.15999999999999992,-0.20499999999999996,-0.035760000000000014,-0.27612000000000003,0.12207999999999997,0.2749999999999999,-0.15500000000000003,0.2250000000000001,0.06445999999999996,0.10498000000000007,-0.02198,1742249120.75316
0.7149999999999999,0.020000000000000018,0.31499999999999995,0.035880000000000134,-0.053340000000000054,-0.00024000000000001798,0.2250000000000001,-0.24,0.02499999999999991,-0.0046399999999999775,0.055420000000000025,0.00048000000000003595,1742249120.8605
0.405,0.14500000000000002,0.030000000000000027,0.015020000000000033,0.15355999999999992,-0.058719999999999994,0.2849999999999999,-0.18500000000000005,0.16999999999999993,-0.07934000000000008,-0.04810000000000003,-0.06591999999999998,1742249120.97465
0.385,0.010000000000000009,-0.22499999999999998,0.07481999999999989,0.1200000000000001,-0.15258000000000005,0.4650000000000001,-0.22999999999999998,0.575,0.06225999999999998,-0.10950000000000004,0.03638000000000008,1742249121.0901718
0.41500000000000004,-0.09999999999999998,-0.37,-0.0042799999999999505,-0.11036000000000001,0.018059999999999965,0.3799999999999999,-0.21999999999999997,0.54,-0.09998000000000007,0.12707999999999986,0.08885999999999994,1742249121.201503
0.47,0.08000000000000007,-0.050000000000000044,-0.0686,-0.18225999999999998,0.08288000000000006,0.29499999999999993,-0.135,0.19500000000000006,-0.0046399999999999775,0.10875999999999997,0.00035999999999991594,1742249121.31878
0.6099999999999999,-0.07499999999999996,0.22999999999999998,0.01746000000000003,0.01110000000000011,-0.0343,0.2749999999999999,-0.10499999999999998,0.1200000000000001,-0.08177999999999996,0.029900000000000038,0.02307999999999999,1742249121.43138
0.4750000000000001,-0.010000000000000009,0.004999999999999893,-0.04455999999999993,0.1504000000000001,-0.026120000000000032,0.20500000000000007,-0.385,0.3900000000000001,0.04161999999999999,-0.21558,-0.053340000000000054,1742249121.550999
0.3400000000000001,-0.13,-0.29499999999999993,-0.01415999999999995,0.08325999999999989,-0.02198,0.5550000000000002,-0.18500000000000005,0.565,-0.023679999999999923,-0.011720000000000064,-0.008919999999999928,1742249121.657633
0.395,-0.015000000000000013,-0.14500000000000002,-0.03173999999999999,-0.16601999999999995,0.15026000000000006,0.29499999999999993,-0.12,0.43999999999999995,0.0045200000000000795,0.07850000000000001,-0.006099999999999994,1742249121.7744892
0.5899999999999999,0.06000000000000005,0.18999999999999995,0.01097999999999999,-0.08692,0.07006000000000001,0.24,-0.19500000000000006,0.1299999999999999,0.14490000000000003,0.05152000000000001,0.010000000000000009,1742249121.8910232
0.55,0.020000000000000018,0.1499999999999999,0.09655999999999998,0.08752000000000004,-0.07079999999999997,0.30499999999999994,-0.12,0.1299999999999999,-0.10620000000000007,-0.06701999999999997,0.0024399999999999977,1742249121.999281
0.395,0.09499999999999997,-0.08499999999999996,-0.04920000000000002,0.16333999999999982,-0.03858000000000006,0.26,-0.38,0.54,-0.14454,-0.03760000000000008,0.01953999999999989,1742249122.112544
0.3500000000000001,-0.10999999999999999,-0.41999999999999993,0.05383999999999989,0.024540000000000006,-0.006460000000000021,0.41999999999999993,-0.21999999999999997,0.5,-0.020139999999999936,0.04370000000000007,-0.009279999999999955,1742249122.2331169
0.51,0.1299999999999999,0.125,-0.23253999999999997,-0.16479999999999995,0.11071999999999993,0.20500000000000007,-0.31499999999999995,0.31000000000000005,0.10522000000000009,0.06579999999999986,0.027700000000000058,1742249122.340336
0.6400000000000001,0.040000000000000036,0.16999999999999993,0.014399999999999968,-0.08704,-0.03198000000000001,0.18999999999999995,-0.18999999999999995,0.03499999999999992,0.06359999999999988,0.015020000000000033,0.018920000000000048,1742249122.453276
0.605,0.02499999999999991,0.1499999999999999,0.029059999999999864,0.07835999999999999,-0.04174,0.24,-0.10499999999999998,0.17500000000000004,0.02416000000000018,-0.043340000000000045,-0.060919999999999974,1742249122.5704331
0.3999999999999999,-0.030000000000000027,-0.21499999999999997,0.010000000000000009,0.09007999999999994,0.012939999999999952,0.6400000000000001,-0.020000000000000018,0.5,0.05164000000000013,0.05261999999999989,-0.031000000000000028,1742249122.680352
0.49,0.040000000000000036,-0.12,0.01428000000000007,-0.025639999999999996,0.022580000000000044,0.41999999999999993,-0.22999999999999998,0.3400000000000001,-0.028079999999999994,0.054079999999999906,0.00024000000000001798,1742249122.7933462
0.4650000000000001,0.09000000000000008,0.08000000000000007,-0.09814,-0.17468000000000006,0.06445999999999996,0.2849999999999999,-0.20499999999999996,0.20500000000000007,0.02171999999999996,0.05383999999999989,0.08020000000000005,1742249122.9112809
0.5449999999999999,-0.010000000000000009,0.125,0.10083999999999982,0.027700000000000058,-0.08775999999999995,0.31499999999999995,-0.06499999999999995,0.28,-0.07103999999999999,0.04259999999999997,0.043099999999999916,1742249123.019336
0.4849999999999999,0.02499999999999991,0.050000000000000044,0.055420000000000025,0.24353999999999987,-0.07946000000000009,0.28,-0.06499999999999995,0.3900000000000001,-0.0601799999999999,-0.07677999999999996,-0.06323999999999996,1742249123.13357
0.31499999999999995,-0.06000000000000005,-0.28,0.14061999999999997,0.17090000000000005,-0.16271999999999998,0.45500000000000007,-0.22999999999999998,0.655,0.05030000000000001,-0.07287999999999994,-0.050899999999999945,1742249123.253736
0.385,-0.050000000000000044,-0.36,-0.09350000000000003,-0.14246000000000003,0.1847000000000001,0.31499999999999995,-0.20499999999999996,0.4950000000000001,-0.06603999999999999,0.11499999999999999,0.017940000000000067,1742249123.371068
0.48,-0.04500000000000004,-0.20499999999999996,0.06335999999999986,-0.2717200000000001,0.10364000000000018,0.18500000000000005,-0.20499999999999996,0.28,0.06579999999999986,0.12585999999999986,0.015260000000000051,1742249123.476737
0.635,-0.05500000000000005,0.23499999999999988,0.08118000000000003,0.022699999999999942,-0.03955999999999993,0.32000000000000006,-0.16000000000000003,0.06499999999999995,-0.10265999999999997,0.0343,-0.010000000000000009,1742249123.59117
0.5150000000000001,0.06499999999999995,-0.03500000000000003,-0.0009799999999999809,0.19921999999999995,-0.047719999999999985,0.29000000000000004,-0.22999999999999998,0.27,0.05566000000000004,-0.14561999999999997,-0.0650599999999999,1742249123.711329
0.29000000000000004,0.010000000000000009,-0.3400000000000001,0.02855999999999992,0.10777999999999999,-0.07886000000000004,0.4950000000000001,-0.21499999999999997,0.7050000000000001,0.07299999999999995,-0.10314000000000001,0.0023200000000000998,1742249123.816374
0.365,0.010000000000000009,-0.32000000000000006,-0.016960000000000086,-0.15588000000000002,0.10461999999999994,0.33499999999999996,-0.17999999999999994,0.48,-0.10375999999999996,0.17857999999999996,0.008419999999999872,1742249123.931711
0.5049999999999999,0.18999999999999995,0.1100000000000001,-0.05188000000000004,-0.19874000000000003,0.05261999999999989,0.21500000000000008,-0.135,0.2250000000000001,0.0037799999999998946,0.11083999999999983,0.023560000000000025,1742249124.0508249
0.53,-0.015000000000000013,0.030000000000000027,0.05042000000000013,0.08349999999999991,-0.06981999999999988,0.25,-0.11499999999999999,0.20999999999999996,-0.10875999999999997,0.01953999999999989,0.019279999999999964,1742249124.1573272
0.42999999999999994,0.030000000000000027,-0.09499999999999997,-0.03198000000000001,0.13758000000000004,-0.025880000000000014,0.1499999999999999,-0.405,0.32499999999999996,-0.07386000000000004,-0.11596000000000006,0.0008600000000000829,1742249124.274931
0.32000000000000006,-0.07999999999999996,-0.3400000000000001,0.08776000000000006,0.025880000000000125,-0.08055999999999996,0.42500000000000004,-0.26,0.5350000000000001,0.04944000000000015,-0.020139999999999936,-0.014039999999999941,1742249124.3910751
0.3400000000000001,-0.020000000000000018,-0.31499999999999995,-0.09326000000000001,-0.14513999999999994,0.10644000000000009,0.3700000000000001,-0.19999999999999996,0.48,-0.08751999999999993,0.13403999999999994,0.020999999999999908,1742249124.499358
0.43999999999999995,0.050000000000000044,0.0,-0.06396000000000002,-0.18872,0.09472000000000014,0.11499999999999999,-0.18999999999999995,0.31499999999999995,-0.007940000000000058,0.08240000000000003,0.03833999999999982,1742249124.61334
0.5449999999999999,0.0,0.040000000000000036,0.033320000000000016,0.0942400000000001,-0.06225999999999998,0.19500000000000006,-0.15000000000000002,0.26,-0.07044000000000006,0.018440000000000012,0.027099999999999902,1742249124.733182
0.3999999999999999,0.05499999999999994,-0.15500000000000003,-0.07091999999999998,0.16736000000000018,-0.06335999999999997,0.20999999999999996,-0.365,0.27,0.01097999999999999,-0.18176000000000003,-0.06041999999999992,1742249124.850386
0.23499999999999988,-0.21499999999999997,-0.475,0.08814000000000011,0.029059999999999864,-0.04077999999999993,0.375,-0.32000000000000006,0.625,0.007440000000000113,-0.04271999999999998,-0.02844000000000002,1742249124.955483
0.3799999999999999,0.06499999999999995,-0.10499999999999998,-0.0697000000000001,-0.14085999999999999,0.09057999999999988,0.31499999999999995,-0.16000000000000003,0.42500000000000004,0.08531999999999984,0.04625999999999997,-0.012319999999999998,1742249125.071521
0.75,0.06499999999999995,0.19500000000000006,-0.03515999999999997,-0.11878,0.015740000000000087,0.2450000000000001,-0.15000000000000002,0.1200000000000001,0.12268000000000012,0.02185999999999999,0.0671400000000002,1742249125.1912189
0.5049999999999999,0.07000000000000006,0.03499999999999992,0.08861999999999992,0.12670000000000003,-0.11241999999999996,0.19500000000000006,-0.06499999999999995,0.33499999999999996,-0.09118000000000004,-0.07153999999999994,0.010259999999999936,1742249125.296511
0.405,-0.09499999999999997,-0.21499999999999997,-0.0650599999999999,0.1308600000000002,-0.010739999999999972,0.30000000000000004,-0.18999999999999995,0.345,-0.19434000000000007,-0.022460000000000035,0.0025599999999998957,1742249125.4117131
0.2849999999999999,-0.11499999999999999,-0.37,0.028939999999999966,0.059940000000000104,-0.00012000000000000899,0.43999999999999995,-0.22999999999999998,0.54,0.01537999999999995,-0.014900000000000024,-0.005619999999999958,1742249125.531101
0.41500000000000004,0.02499999999999991,-0.12,-0.02429999999999999,-0.08094000000000001,0.07311999999999985,0.33000000000000007,-0.15500000000000003,0.385,0.03370000000000006,0.015740000000000087,0.00865999999999989,1742249125.638158
0.685,0.040000000000000036,0.19999999999999996,0.02868000000000004,-0.08350000000000002,0.023679999999999923,0.2749999999999999,-0.08999999999999997,0.20999999999999996,0.04090000000000016,0.022699999999999942,0.04723999999999995,1742249125.7541592
0.565,-0.015000000000000013,-0.015000000000000013,0.0343,0.05479999999999996,-0.03858000000000006,0.30000000000000004,-0.12,0.18500000000000005,0.008179999999999854,-0.04077999999999993,-0.04077999999999993,1742249125.871457
0.375,0.0,-0.18999999999999995,-0.023559999999999914,0.14100000000000001,-0.0032999999999999696,0.24,-0.31000000000000005,0.3400000000000001,-0.12291999999999992,-0.09374000000000005,-0.03808,1742249125.978477
0.30000000000000004,-0.07000000000000006,-0.4,0.018059999999999965,0.037719999999999976,0.014639999999999986,0.3400000000000001,-0.24,0.52,-0.007200000000000095,0.006340000000000012,-0.0343,1742249126.092353
0.43999999999999995,-0.025000000000000022,-0.245,-0.10108000000000006,-0.06213999999999997,0.09129999999999994,0.30000000000000004,-0.25,0.385,0.043460000000000054,-0.018440000000000012,0.02635999999999994,1742249126.2120068
0.665,0.014999999999999902,0.04499999999999993,0.007079999999999975,-0.04358000000000006,0.013419999999999987,0.19999999999999996,-0.14,0.22999999999999998,0.03698000000000001,0.013800000000000034,0.03161999999999998,1742249126.319158
0.5449999999999999,-0.0050000000000000044,-0.040000000000000036,0.044440000000000035,0.03394000000000008,-0.018919999999999937,0.24,-0.16000000000000003,0.23499999999999988,0.008419999999999872,-0.08251999999999993,-0.02525999999999995,1742249126.432524
0.345,-0.010000000000000009,-0.28,-0.0601799999999999,0.11865999999999999,0.02222000000000013,0.2849999999999999,-0.31499999999999995,0.4849999999999999,-0.09753999999999996,-0.08911999999999998,0.0008600000000000829,1742249126.550754
0.42999999999999994,0.004999999999999893,-0.2849999999999999,0.12438000000000016,0.008419999999999872,-0.02734000000000003,0.3400000000000001,-0.20499999999999996,0.43500000000000005,0.04821999999999993,-0.008299999999999974,-0.021360000000000046,1742249126.6603851
0.405,0.02499999999999991,-0.27,0.016000000000000014,-0.12048000000000003,0.02442000000000011,0.26,-0.22499999999999998,0.3400000000000001,0.0019599999999999618,0.09985999999999984,0.02075999999999989,1742249126.774517
0.675,0.0,0.1200000000000001,0.017340000000000133,-0.03748000000000007,-0.05152000000000001,0.20999999999999996,-0.15500000000000003,0.1499999999999999,-0.058719999999999994,0.026859999999999884,0.026980000000000004,1742249126.891368
0.5,0.02499999999999991,-0.06499999999999995,-0.0029199999999999227,0.04944000000000015,-0.03503999999999996,0.25,-0.135,0.345,0.11009999999999986,-0.09510000000000007,-0.034540000000000015,1742249127.01
0.345,-0.03500000000000003,-0.29499999999999993,0.040039999999999853,0.04468000000000005,-0.05834000000000006,0.42500000000000004,-0.07999999999999996,0.56,-0.03967999999999994,0.026980000000000004,0.01097999999999999,1742249127.115285
0.4099999999999999,0.040000000000000036,-0.20999999999999996,0.05078000000000005,-0.01855999999999991,0.029059999999999864,0.355,-0.18999999999999995,0.3900000000000001,0.013919999999999932,0.06738000000000022,-0.05298000000000003,1742249127.2331278
0.4650000000000001,0.04499999999999993,-0.15500000000000003,-0.09251999999999994,-0.12072000000000005,0.06567999999999996,0.18999999999999995,-0.19500000000000006,0.375,0.001100000000000101,0.08338000000000001,0.07957999999999998,1742249127.350418
0.5150000000000001,-0.025000000000000022,-0.050000000000000044,0.05018000000000011,0.0029200000000000337,-0.053220000000000045,0.31000000000000005,-0.08499999999999996,0.365,-0.01648000000000005,0.041260000000000074,0.021479999999999944,1742249127.456151
0.48,0.02499999999999991,-0.17500000000000004,0.009640000000000093,0.09361999999999981,-0.07201999999999997,0.26,-0.17999999999999994,0.385,-0.04810000000000003,-0.034540000000000015,-0.03394000000000008,1742249127.570445
0.30000000000000004,-0.11499999999999999,-0.395,0.009879999999999889,-0.03308,0.0014600000000000168,0.3999999999999999,-0.17500000000000004,0.5899999999999999,0.0045200000000000795,0.04051999999999989,-0.023559999999999914,1742249127.690536
0.47,0.09000000000000008,-0.16500000000000004,0.009640000000000093,-0.03820000000000001,0.02611999999999992,0.32000000000000006,-0.22499999999999998,0.385,0.06884000000000001,0.06982,-0.03198000000000001,1742249127.7988842
0.6600000000000001,0.004999999999999893,0.11499999999999999,-0.020019999999999927,-0.05896000000000001,0.03394000000000008,0.2450000000000001,-0.13,0.19999999999999996,-0.03198000000000001,-0.005240000000000022,0.04174000000000011,1742249127.911417
0.5899999999999999,0.02499999999999991,-0.010000000000000009,0.07728000000000002,0.04577999999999993,-0.07153999999999994,0.20500000000000007,-0.17500000000000004,0.20500000000000007,-0.045539999999999914,-0.06591999999999998,0.007319999999999993,1742249128.0317068
0.345,-0.08499999999999996,-0.265,-0.02294000000000007,0.09777999999999998,0.02210000000000001,0.30000000000000004,-0.125,0.575,-0.12329999999999997,0.06274000000000002,0.01953999999999989,1742249128.1391292
0.42500000000000004,-0.03500000000000003,-0.2849999999999999,-0.10351999999999995,0.020999999999999908,0.09802,0.33000000000000007,-0.21499999999999997,0.45500000000000007,-0.08496000000000004,0.03929999999999989,-0.043220000000000036,1742249128.2536268
0.47,-0.04500000000000004,-0.30000000000000004,0.07909999999999995,-0.12573999999999996,0.029059999999999864,0.20999999999999996,-0.19999999999999996,0.395,0.02222000000000013,0.05371999999999999,0.03272000000000008,1742249128.370771
0.5249999999999999,-0.010000000000000009,-0.025000000000000022,0.11743999999999999,-0.018179999999999974,-0.07508000000000004,0.2849999999999999,-0.07999999999999996,0.32000000000000006,0.038819999999999855,-0.005739999999999967,0.09436,1742249128.480188
0.5049999999999999,0.010000000000000009,-0.06000000000000005,-0.03625999999999996,0.07666000000000017,-0.04188000000000003,0.29499999999999993,-0.19999999999999996,0.23499999999999988,-0.08118000000000003,-0.04944000000000004,0.02746000000000004,1742249128.594259
0.31499999999999995,-0.11499999999999999,-0.39,-0.04479999999999995,-0.0036599999999999966,0.04688000000000003,0.32499999999999996,-0.25,0.565,-0.01966000000000001,-0.016240000000000032,-0.03539999999999999,1742249128.711909
0.49,0.14000000000000012,-0.08499999999999996,-0.07141999999999993,-0.011960000000000082,0.04248000000000007,0.2650000000000001,-0.12,0.41999999999999993,0.05711999999999984,0.06128,-0.0034199999999999786,1742249128.8275478
0.7050000000000001,0.010000000000000009,0.1499999999999999,0.11206000000000005,-0.0857,-0.056400000000000006,0.21500000000000008,-0.10999999999999999,0.2450000000000001,0.007940000000000058,0.01648000000000005,0.07044000000000006,1742249128.935093
0.45500000000000007,-0.08499999999999996,-0.07999999999999996,0.08472000000000013,-0.032480000000000064,-0.08763999999999994,0.2450000000000001,-0.15500000000000003,0.345,0.10596000000000005,-0.02525999999999995,-0.02525999999999995,1742249129.051766
0.385,-0.025000000000000022,-0.25,0.056279999999999886,0.01110000000000011,0.0039000000000000146,0.385,-0.135,0.595,0.06909999999999994,0.060920000000000085,-0.015020000000000033,1742249129.175613
0.45500000000000007,-0.030000000000000027,-0.135,-0.04637999999999998,0.06433999999999984,0.051020000000000065,0.355,-0.19500000000000006,0.355,-0.06652000000000002,0.017819999999999947,-0.043220000000000036,1742249129.2763069
0.51,0.010000000000000009,-0.17500000000000004,0.052240000000000064,-0.014519999999999977,-0.03625999999999996,0.32000000000000006,-0.24,0.3900000000000001,0.01648000000000005,-0.0006199999999999539,0.04968000000000017,1742249129.390156
0.6699999999999999,-0.08499999999999996,0.11499999999999999,-0.0026799999999999047,-0.08410000000000006,-0.028200000000000003,0.2749999999999999,-0.12,0.2650000000000001,0.014040000000000052,0.03845999999999994,0.06579999999999986,1742249129.5107489
0.51,-0.015000000000000013,0.020000000000000018,0.0041599999999999415,0.07776000000000005,-0.055179999999999896,0.27,-0.09499999999999997,0.33000000000000007,0.005239999999999911,-0.11803999999999992,-0.01855999999999991,1742249129.6173398
0.385,-0.08499999999999996,-0.18500000000000005,0.048960000000000115,0.10107999999999984,-0.08862000000000003,0.345,-0.10999999999999999,0.45500000000000007,-0.05737999999999999,-0.0502999999999999,0.0012199999999999989,1742249129.732804
0.3799999999999999,-0.11499999999999999,-0.33000000000000007,-0.04455999999999993,-0.01305999999999996,0.09924,0.3799999999999999,-0.13,0.5550000000000002,-0.0343,0.03905999999999987,-0.030019999999999936,1742249129.849959
0.41500000000000004,0.050000000000000044,-0.16500000000000004,-0.04271999999999998,-0.07665999999999995,0.1493,0.3799999999999999,-0.15500000000000003,0.29499999999999993,0.042240000000000055,0.04248000000000007,-0.019399999999999973,1742249129.95923
0.73,0.014999999999999902,0.19500000000000006,0.04638000000000009,-0.0650599999999999,-0.013539999999999996,0.20500000000000007,-0.11499999999999999,0.135,0.06518000000000002,0.033560000000000034,-0.016840000000000077,1742249130.073053
0.48,-0.0050000000000000044,0.004999999999999893,0.020259999999999945,0.11865999999999999,-0.06128,0.3400000000000001,-0.13,0.2749999999999999,-0.00988,-0.08044000000000007,-0.05298000000000003,1742249130.190304
0.31499999999999995,-0.030000000000000027,-0.265,0.05577999999999994,0.09216000000000002,-0.06470000000000009,0.375,-0.13,0.55,-0.0343,-0.02758000000000005,-0.022340000000000027,1742249130.310111
0.395,-0.010000000000000009,-0.36,-0.08044000000000007,-0.04920000000000002,0.09227999999999992,0.355,-0.18500000000000005,0.51,-0.040159999999999973,0.07116000000000011,0.0045200000000000795,1742249130.415057
0.45999999999999996,0.040000000000000036,-0.17000000000000004,-0.07275999999999994,-0.06384000000000001,0.09522000000000008,0.31000000000000005,-0.18999999999999995,0.32000000000000006,0.04723999999999995,0.0043999999999999595,0.013419999999999987,1742249130.5305972
0.685,-0.030000000000000027,0.15500000000000003,0.10509999999999997,-0.07972000000000001,-0.03649999999999998,0.21500000000000008,-0.10499999999999998,0.17999999999999994,0.012820000000000054,0.025760000000000005,0.015260000000000051,1742249130.6499069
0.43999999999999995,0.020000000000000018,-0.0050000000000000044,0.0039000000000000146,0.12207999999999997,-0.03076000000000001,0.22999999999999998,-0.19500000000000006,0.33499999999999996,-0.016840000000000077,-0.06872,-0.05384,1742249130.756268
0.32000000000000006,0.0,-0.255,0.06788000000000016,0.08496000000000015,-0.06701999999999997,0.4750000000000001,-0.11499999999999999,0.5449999999999999,-0.07287999999999994,0.00048000000000003595,-0.03320000000000001,1742249130.870544
0.42500000000000004,-0.010000000000000009,-0.18999999999999995,-0.013299999999999979,-0.10253999999999996,0.046499999999999986,0.355,-0.17500000000000004,0.405,-0.0018400000000000638,0.09570000000000012,-0.008179999999999965,1742249130.991213
0.5899999999999999,0.04499999999999993,0.21500000000000008,0.0007399999999999629,-0.13549999999999995,0.020259999999999945,0.26,-0.14500000000000002,0.2450000000000001,0.031239999999999934,0.10694000000000004,0.046640000000000015,1742249131.097996
0.5350000000000001,-0.015000000000000013,0.08499999999999996,0.04516000000000009,0.06494,-0.04846000000000006,0.27,-0.18500000000000005,0.2450000000000001,-0.0034199999999999786,-0.018440000000000012,-0.020379999999999954,1742249131.2117262
0.405,0.040000000000000036,-0.08499999999999996,0.03614000000000006,0.16503999999999985,-0.031240000000000046,0.21500000000000008,-0.355,0.365,-0.0686,-0.10096000000000005,-0.00048000000000003595,1742249131.3304372
0.33000000000000007,-0.06499999999999995,-0.43500000000000005,0.016839999999999966,0.06788000000000016,-0.032220000000000026,0.3599999999999999,-0.21999999999999997,0.5449999999999999,-0.015020000000000033,-0.05053999999999992,0.0036599999999999966,1742249131.439191
0.44999999999999996,0.040000000000000036,-0.050000000000000044,-0.27906,-0.11512,0.18506,0.33000000000000007,-0.20499999999999996,0.43999999999999995,0.08409999999999984,0.021120000000000028,0.037599999999999856,1742249131.553134
0.7850000000000001,0.10499999999999998,0.22999999999999998,-0.03527999999999998,-0.08544000000000007,0.029179999999999984,0.24,-0.13,0.18500000000000005,0.09899999999999998,0.006839999999999957,0.053099999999999925,1742249131.670099
0.47,-0.050000000000000044,0.0,0.11646000000000001,0.12597999999999998,-0.07103999999999999,0.2450000000000001,-0.04500000000000004,0.3999999999999999,0.020259999999999945,-0.08153999999999995,-0.03308,1742249131.789655
0.4099999999999999,-0.03500000000000003,-0.20999999999999996,-0.008660000000000001,0.1545399999999999,-0.04064000000000001,0.21500000000000008,-0.19999999999999996,0.55,-0.17381999999999997,0.004999999999999893,-0.006099999999999994,1742249131.895182
0.385,-0.020000000000000018,-0.42500000000000004,-0.0048799999999999955,0.019160000000000066,0.028799999999999937,0.32499999999999996,-0.20499999999999996,0.565,-0.03846000000000005,0.04150000000000009,-0.0031799999999999606,1742249132.010371
0.44999999999999996,0.16500000000000004,-0.125,-0.07213999999999998,-0.10974000000000006,0.11402000000000001,0.3700000000000001,-0.18500000000000005,0.29000000000000004,0.054440000000000044,0.013919999999999932,0.015260000000000051,1742249132.1303868
0.7349999999999999,0.050000000000000044,0.24,0.04405999999999999,-0.057740000000000014,-0.027700000000000058,0.18500000000000005,-0.11499999999999999,0.15500000000000003,0.07044000000000006,0.01415999999999995,0.022340000000000027,1742249132.236885
0.565,0.050000000000000044,-0.015000000000000013,0.08153999999999995,0.018440000000000012,-0.053340000000000054,0.28,-0.15500000000000003,0.27,0.030399999999999983,-0.014399999999999968,-0.04271999999999998,1742249132.350205
0.3500000000000001,-0.06000000000000005,-0.22999999999999998,-0.04798000000000002,0.12220000000000009,-0.055299999999999905,0.355,-0.2849999999999999,0.6600000000000001,-0.06555999999999995,0.01097999999999999,0.026619999999999866,1742249132.4697971
0.3900000000000001,0.004999999999999893,-0.405,-0.060799999999999965,-0.06616,0.08507999999999982,0.31499999999999995,-0.19500000000000006,0.52,-0.05676000000000003,0.04968000000000017,0.0025599999999998957,1742249132.578201
0.44500000000000006,-0.010000000000000009,-0.33499999999999996,-0.10108000000000006,-0.1875,0.1165799999999999,0.2749999999999999,-0.17000000000000004,0.31499999999999995,0.02855999999999992,0.06909999999999994,0.054440000000000044,1742249132.6923351
0.6299999999999999,-0.015000000000000013,0.1499999999999999,0.10131999999999985,-0.028320000000000012,-0.045539999999999914,0.19999999999999996,-0.09499999999999997,0.15999999999999992,0.012320000000000109,-0.011480000000000046,0.015260000000000051,1742249132.810156
0.45999999999999996,0.030000000000000027,-0.08499999999999996,0.018320000000000114,0.10681999999999992,-0.00660000000000005,0.25,-0.16500000000000004,0.3900000000000001,0.010620000000000074,-0.05908000000000002,-0.06494000000000011,1742249132.92011
0.31000000000000005,0.014999999999999902,-0.35,0.06298000000000004,0.06103999999999998,-0.08081999999999989,0.43999999999999995,-0.20999999999999996,0.6200000000000001,0.012580000000000036,-0.009039999999999937,-0.006460000000000021,1742249133.034092
0.3999999999999999,0.07000000000000006,-0.355,-0.0043999999999999595,-0.10887999999999998,0.019279999999999964,0.385,-0.16000000000000003,0.4849999999999999,-0.039059999999999984,0.06678000000000006,0.02844000000000002,1742249133.150155
0.405,0.004999999999999893,-0.11499999999999999,-0.011600000000000055,-0.1849400000000001,0.04821999999999993,0.135,-0.15000000000000002,0.365,0.05932000000000004,0.023320000000000007,0.04283999999999999,1742249133.262223
0.575,-0.05500000000000005,0.050000000000000044,0.0671400000000002,0.017079999999999984,-0.057620000000000005,0.24,-0.07999999999999996,0.16500000000000004,-0.054440000000000044,0.06140000000000012,0.030999999999999917,1742249133.376116
0.565,0.07000000000000006,-0.040000000000000036,0.054079999999999906,0.06164000000000014,-0.05467999999999995,0.17500000000000004,-0.19999999999999996,0.3400000000000001,-0.025639999999999996,0.009039999999999937,-0.06603999999999999,1742249133.490651
0.385,-0.09499999999999997,-0.24,0.07800000000000007,0.03186,-0.07165999999999995,0.45999999999999996,-0.21499999999999997,0.48,0.05455999999999994,-0.02501999999999993,-0.032340000000000035,1742249133.609549
0.4099999999999999,0.06000000000000005,-0.27,-0.01427999999999996,-0.05896000000000001,0.03210000000000002,0.345,-0.21499999999999997,0.44500000000000006,-0.053340000000000054,-0.036739999999999995,-0.08177999999999996,1742249133.718095
0.3900000000000001,-0.13,-0.19999999999999996,-0.12463999999999997,-0.1900599999999999,0.04455999999999993,0.18500000000000005,-0.24,0.395,-0.006099999999999994,0.01770000000000005,0.11583999999999994,1742249133.8322718
0.565,-0.050000000000000044,-0.08499999999999996,0.11035999999999979,-0.026000000000000023,-0.03979999999999995,0.20500000000000007,-0.12,0.41500000000000004,0.009879999999999889,0.1642999999999999,0.09227999999999992,1742249133.95052
0.5449999999999999,0.030000000000000027,-0.030000000000000027,0.0307599999999999,0.09985999999999984,-0.030159999999999965,0.2450000000000001,-0.025000000000000022,0.3500000000000001,-0.05834000000000006,0.033440000000000136,-0.026859999999999995,1742249134.060006
0.2849999999999999,-0.10999999999999999,-0.48,-0.013299999999999979,0.034540000000000015,-0.008419999999999983,0.4950000000000001,-0.255,0.6000000000000001,0.036739999999999995,-0.007320000000000104,-0.024419999999999997,1742249134.176458
0.49,0.05499999999999994,0.15999999999999992,-0.22839999999999994,-0.028679999999999928,0.13671999999999995,0.17999999999999994,-0.17000000000000004,0.43999999999999995,-0.008179999999999965,0.05944000000000016,0.01868000000000003,1742249134.2892082
0.7149999999999999,0.030000000000000027,0.2849999999999999,-0.043460000000000054,-0.05188000000000004,-0.005240000000000022,0.19999999999999996,-0.10499999999999998,0.28,0.06140000000000012,0.06773999999999991,0.0578599999999998,1742249134.410493
0.5150000000000001,-0.06000000000000005,0.10499999999999998,0.06420000000000003,0.07508000000000004,-0.01855999999999991,0.30499999999999994,-0.050000000000000044,0.20999999999999996,0.09007999999999994,-0.025519999999999987,-0.043220000000000036,1742249134.516005
0.2650000000000001,0.014999999999999902,-0.44999999999999996,0.05553999999999992,0.05090000000000017,-0.04455999999999993,0.5049999999999999,-0.11499999999999999,0.6949999999999998,-0.16064,0.05577999999999994,0.005859999999999976,1742249134.630582
0.48,0.06000000000000005,0.09000000000000008,-0.1947000000000001,-0.07347999999999999,0.09533999999999998,0.29499999999999993,-0.16500000000000004,0.4950000000000001,0.05003999999999986,0.04174000000000011,0.014040000000000052,1742249134.752934
0.7549999999999999,-0.0050000000000000044,0.33000000000000007,0.07728000000000002,-0.09008000000000005,-0.044440000000000035,0.22999999999999998,-0.13,0.07499999999999996,0.06982,0.04468000000000005,0.04064000000000001,1742249134.858121
0.5350000000000001,0.0,-0.03500000000000003,0.07972000000000001,0.11426000000000003,-0.054440000000000044,0.2650000000000001,-0.08499999999999996,0.43500000000000005,-0.04064000000000001,-0.022220000000000018,-0.042120000000000046,1742249134.972113
0.385,-0.04500000000000004,-0.29000000000000004,0.04932000000000003,-0.0007399999999999629,0.018920000000000048,0.42999999999999994,-0.18500000000000005,0.605,0.04272000000000009,-0.01660000000000006,-0.04491999999999996,1742249135.0904078
0.4950000000000001,0.020000000000000018,-0.19500000000000006,-0.0675,-0.09814,0.03942000000000001,0.375,-0.18999999999999995,0.29000000000000004,0.016119999999999912,0.037839999999999874,0.04272000000000009,1742249135.200086
0.605,-0.06000000000000005,0.11499999999999999,0.033320000000000016,0.0042800000000000615,-0.04149999999999998,0.21500000000000008,-0.09499999999999997,0.11499999999999999,0.006340000000000012,-0.02088000000000001,0.028079999999999883,1742249135.313994
0.54,0.014999999999999902,-0.010000000000000009,0.08484000000000003,0.10340000000000016,-0.054320000000000035,0.365,-0.030000000000000027,0.14500000000000002,-0.031240000000000046,-0.09034000000000009,-0.047599999999999976,1742249135.430423
0.3400000000000001,-0.08499999999999996,-0.345,0.058339999999999836,0.08240000000000003,-0.04394000000000009,0.45999999999999996,-0.20499999999999996,0.5150000000000001,0.026619999999999866,-0.08775999999999995,-0.01966000000000001,1742249135.550258
0.42999999999999994,-0.16000000000000003,-0.12,-0.15979999999999994,-0.09753999999999996,0.08325999999999989,0.21500000000000008,-0.10499999999999998,0.54,-0.06347999999999998,0.11083999999999983,0.019039999999999946,1742249135.6561952
0.71,0.04499999999999993,0.25,0.011600000000000055,-0.08165999999999995,0.02088000000000001,0.21999999999999997,-0.09499999999999997,0.29000000000000004,0.008539999999999992,0.09582000000000002,0.024540000000000006,1742249135.7736828
0.4849999999999999,-0.025000000000000022,0.02499999999999991,0.05566000000000004,0.06407999999999991,-0.04200000000000004,0.30000000000000004,-0.06499999999999995,0.23499999999999988,-0.0075599999999999,-0.04908000000000001,-0.006840000000000068,1742249135.889633
0.3900000000000001,0.010000000000000009,-0.22999999999999998,0.025880000000000125,0.11938000000000004,-0.053340000000000054,0.30000000000000004,-0.20499999999999996,0.52,-0.13514000000000004,-0.041139999999999954,0.01855999999999991,1742249135.998004
0.43500000000000005,-0.020000000000000018,-0.32499999999999996,-0.015619999999999967,-0.04479999999999995,0.043460000000000054,0.33000000000000007,-0.17000000000000004,0.56,-0.013539999999999996,0.018440000000000012,-0.011480000000000046,1742249136.1121762
0.42500000000000004,-0.07000000000000006,-0.405,-0.19018000000000002,-0.19886000000000004,0.1251199999999999,0.355,-0.17000000000000004,0.26,0.03980000000000006,0.02416000000000018,0.023800000000000043,1742249136.232579
0.5550000000000002,-0.07999999999999996,0.040000000000000036,0.047599999999999865,0.019279999999999964,-0.023440000000000016,0.20999999999999996,-0.10499999999999998,0.11499999999999999,0.0684800000000001,-0.04565999999999992,-0.010619999999999963,1742249136.3399732
0.5449999999999999,0.09000000000000008,-0.020000000000000018,0.08349999999999991,0.10107999999999984,-0.04810000000000003,0.24,-0.15000000000000002,0.355,-0.04822000000000004,-0.011099999999999999,-0.06568000000000007,1742249136.4539928
0.345,-0.050000000000000044,-0.31000000000000005,0.11949999999999994,0.08885999999999994,-0.055179999999999896,0.44500000000000006,-0.125,0.595,0.00782000000000016,-0.059700000000000086,-0.012580000000000036,1742249136.569793
0.42999999999999994,-0.05500000000000005,-0.17500000000000004,-0.22094000000000003,-0.11339999999999995,0.09864000000000006,0.345,-0.11499999999999999,0.395,-0.027959999999999985,0.13561999999999985,-0.011840000000000073,1742249136.689711
0.6200000000000001,0.03499999999999992,0.17500000000000004,0.10289999999999999,-0.04955999999999994,0.03723999999999994,0.2250000000000001,-0.08999999999999997,0.30000000000000004,0.03833999999999982,0.04688000000000003,0.007940000000000058,1742249136.795941
0.51,0.07000000000000006,0.02499999999999991,0.05176000000000003,0.08557999999999999,-0.07874000000000003,0.18999999999999995,-0.16500000000000004,0.15500000000000003,0.016599999999999948,-0.11768000000000012,-0.03736000000000006,1742249136.910591
0.405,-0.020000000000000018,-0.245,-0.021120000000000028,0.17028,-0.052120000000000055,0.1200000000000001,-0.375,0.5049999999999999,-0.15954000000000002,-0.00012000000000000899,-0.0034199999999999786,1742249137.030505
0.31000000000000005,-0.05500000000000005,-0.44999999999999996,-0.014519999999999977,0.05078000000000005,0.01635999999999993,0.33000000000000007,-0.25,0.5550000000000002,-0.01317999999999997,-0.006720000000000059,-0.01855999999999991,1742249137.1382778
0.385,0.10499999999999998,-0.12,-0.23131999999999997,-0.12414000000000003,0.19996000000000014,0.27,-0.265,0.45500000000000007,0.07714000000000021,0.05896000000000012,0.03320000000000012,1742249137.253085
0.7650000000000001,0.09000000000000008,0.17999999999999994,-0.05041999999999991,-0.07177999999999995,0.016119999999999912,0.18999999999999995,-0.09999999999999998,0.15500000000000003,0.060920000000000085,0.06872000000000011,0.05126000000000008,1742249137.3696902
0.45500000000000007,0.004999999999999893,-0.06499999999999995,0.14757999999999982,0.13038000000000016,-0.11253999999999997,0.21999999999999997,-0.125,0.32499999999999996,-0.03198000000000001,-0.10108000000000006,-0.04810000000000003,1742249137.494421
0.355,0.014999999999999902,-0.22499999999999998,0.047719999999999985,0.11438000000000015,-0.08299999999999996,0.2749999999999999,-0.16000000000000003,0.44500000000000006,-0.18384,-0.03710000000000002,-0.013919999999999932,1742249137.594141
0.3799999999999999,-0.040000000000000036,-0.42500000000000004,-0.06494000000000011,-0.019159999999999955,0.06872000000000011,0.31000000000000005,-0.21999999999999997,0.565,-0.040899999999999936,0.03479999999999994,-0.023440000000000016,1742249137.710686
0.5049999999999999,0.16999999999999993,-0.11499999999999999,-0.07972000000000001,-0.08189999999999997,0.07299999999999995,0.18500000000000005,-0.20499999999999996,0.41500000000000004,0.13256,0.0317400000000001,-0.0029199999999999227,1742249137.8302562
0.6499999999999999,-0.020000000000000018,0.1499999999999999,0.02733999999999992,-0.09045999999999998,-0.014399999999999968,0.15500000000000003,-0.16000000000000003,0.17500000000000004,0.016599999999999948,0.021600000000000064,0.01550000000000007,1742249137.935954
0.48,0.07000000000000006,-0.07000000000000006,0.09118000000000004,0.0966800000000001,-0.05235999999999996,0.21999999999999997,-0.18500000000000005,0.32000000000000006,0.028200000000000003,-0.10851999999999995,-0.02624000000000004,1742249138.050915
0.345,-0.030000000000000027,-0.245,0.08716000000000013,0.03614000000000006,-0.07568000000000008,0.365,-0.25,0.605,0.017340000000000133,-0.01978000000000002,-0.008179999999999965,1742249138.169766
0.44999999999999996,0.10499999999999998,-0.16000000000000003,-0.06665999999999994,-0.06640000000000001,0.07591999999999999,0.29499999999999993,-0.21499999999999997,0.5,-0.028940000000000077,0.07225999999999999,0.024900000000000144,1742249138.278003
0.43999999999999995,0.014999999999999902,-0.14,-0.0393,-0.1799400000000001,0.06824000000000008,0.22999999999999998,-0.20999999999999996,0.405,-0.01085999999999998,0.08716000000000013,0.05797999999999992,1742249138.391998
0.5449999999999999,-0.0050000000000000044,0.020000000000000018,0.059579999999999966,-0.0008599999999999719,-0.02746000000000004,0.2749999999999999,-0.09999999999999998,0.22999999999999998,0.03381999999999996,0.0034199999999999786,-0.00770000000000004,1742249138.5104582
0.5899999999999999,0.07499999999999996,0.014999999999999902,0.026000000000000023,0.09838000000000013,-0.047719999999999985,0.23499999999999988,-0.17500000000000004,0.3900000000000001,-0.011600000000000055,-0.02061999999999997,-0.06140000000000001,1742249138.619814
0.365,-0.010000000000000009,-0.22499999999999998,0.06884000000000001,0.11206000000000005,-0.05467999999999995,0.4750000000000001,-0.245,0.45500000000000007,0.018320000000000114,-0.08386000000000005,-0.03186,1742249138.733005
0.3500000000000001,0.020000000000000018,-0.36,-0.08629999999999993,-0.1322000000000001,0.10997999999999997,0.30000000000000004,-0.25,0.4950000000000001,-0.007200000000000095,0.07764000000000015,0.05761999999999978,1742249138.850373
0.41999999999999993,0.040000000000000036,-0.21999999999999997,-0.08801999999999999,-0.19886000000000004,0.09522000000000008,0.2549999999999999,-0.18999999999999995,0.31000000000000005,0.03723999999999994,0.024900000000000144,0.045539999999999914,1742249138.9705868
0.5800000000000001,0.030000000000000027,0.06499999999999995,0.020499999999999963,-0.0012199999999999989,-0.023679999999999923,0.22999999999999998,-0.08499999999999996,0.14500000000000002,0.011719999999999953,0.03614000000000006,0.007079999999999975,1742249139.075111
0.345,-0.18999999999999995,-0.19500000000000006,-0.07823999999999998,-0.10265999999999997,0.15442,0.19999999999999996,-0.10499999999999998,0.2849999999999999,-0.0014600000000000168,0.08055999999999996,0.04150000000000009,1742249840.790422
0.885,0.06499999999999995,0.19500000000000006,-0.10521999999999998,-0.05834000000000006,0.027099999999999902,0.16999999999999993,-0.14,0.16500000000000004,-0.06029999999999991,0.023440000000000127,0.016960000000000086,1742249840.9044511
0.43500000000000005,-0.040000000000000036,-0.08999999999999997,0.012580000000000036,0.15623999999999993,-0.10205999999999993,0.2650000000000001,-0.29000000000000004,0.345,-0.13781999999999994,-0.14758000000000004,0.03980000000000006,1742249841.022581
0.15999999999999992,-0.10499999999999998,-0.42999999999999994,0.038939999999999975,-0.03760000000000008,-0.0908199999999999,0.4650000000000001,-0.15500000000000003,0.5899999999999999,0.009519999999999973,-0.03942000000000001,-0.039059999999999984,1742249841.132326
0.3599999999999999,-0.0050000000000000044,-0.31000000000000005,-0.14061999999999997,-0.11878,0.11426000000000003,0.1499999999999999,0.050000000000000044,0.405,0.006960000000000077,0.11146000000000011,0.052119999999999944,1742249841.245976
0.825,-0.15500000000000003,0.345,0.12988000000000022,-0.10387999999999997,-0.06652000000000002,0.16500000000000004,0.02499999999999991,0.04499999999999993,-0.13915999999999995,-0.060919999999999974,0.043220000000000036,1742249841.362991
0.4750000000000001,-0.15500000000000003,-0.22999999999999998,-0.005739999999999967,0.09448000000000012,-0.05553999999999992,0.25,-0.135,0.42500000000000004,-0.19520000000000004,-0.07775999999999994,0.02293999999999996,1742249841.47347
0.16999999999999993,-0.15500000000000003,-0.42500000000000004,0.07835999999999999,-0.04064000000000001,-0.04394000000000009,0.45500000000000007,-0.06000000000000005,0.52,0.023679999999999923,-0.015619999999999967,-0.029179999999999984,1742249841.587268
0.345,-0.255,-0.26,-0.16736000000000006,-0.15686,0.1557599999999999,0.2250000000000001,-0.030000000000000027,0.2849999999999999,0.02442000000000011,0.06529999999999991,0.027099999999999902,1742249841.701119
0.835,-0.03500000000000003,0.29499999999999993,-0.05274000000000001,-0.12220000000000009,-0.00048000000000003595,0.19999999999999996,0.014999999999999902,0.10000000000000009,-0.0650599999999999,0.03869999999999996,0.0045200000000000795,1742249841.8141131
0.42500000000000004,-0.14500000000000002,-0.10499999999999998,-0.012319999999999998,0.16759999999999997,-0.045539999999999914,0.29000000000000004,-0.12,0.2450000000000001,0.06225999999999998,-0.19323999999999997,-0.02648000000000006,1742249841.927266
0.25,-0.15500000000000003,-0.38,0.10206000000000004,0.13573999999999997,-0.12414000000000003,0.47,-0.04500000000000004,0.6600000000000001,0.04039999999999999,-0.06811999999999996,-0.02307999999999999,1742249842.0435572
0.2650000000000001,-0.10999999999999999,-0.42999999999999994,0.01770000000000005,-0.13231999999999988,0.07898000000000005,0.20500000000000007,-0.06499999999999995,0.5049999999999999,0.11292000000000013,0.11402000000000001,-0.01758000000000004,1742249842.155196
0.645,-0.0050000000000000044,0.16500000000000004,-0.033440000000000025,-0.06652000000000002,0.10655999999999999,0.19500000000000006,-0.09999999999999998,0.08499999999999996,0.03222000000000014,-0.0014600000000000168,0.024780000000000024,1742249842.269181
0.47,-0.08499999999999996,0.014999999999999902,-0.016720000000000068,0.23194000000000004,-0.05371999999999999,0.32000000000000006,-0.04500000000000004,0.31000000000000005,0.020140000000000047,-0.08641999999999994,-0.06128,1742249842.383389
0.21500000000000008,-0.10999999999999999,-0.39,0.005619999999999958,0.09045999999999998,-0.11803999999999992,0.48,-0.09999999999999998,0.7050000000000001,0.0032999999999998586,-0.020139999999999936,0.009519999999999973,1742249842.49722
0.3500000000000001,-0.17000000000000004,-0.375,0.02171999999999996,-0.06041999999999992,0.027099999999999902,0.32000000000000006,-0.12,0.4750000000000001,0.04527999999999999,0.11119999999999997,0.015139999999999931,1742249842.6111062
0.45500000000000007,-0.05500000000000005,-0.10499999999999998,-0.0030599999999999516,-0.17149999999999999,0.11083999999999983,0.135,-0.040000000000000036,0.15500000000000003,0.0697000000000001,-0.04039999999999999,0.023320000000000007,1742249842.7241752
0.615,-0.08999999999999997,0.010000000000000009,0.07740000000000014,0.058339999999999836,-0.07446000000000008,0.2849999999999999,-0.0050000000000000044,0.47,-0.04810000000000003,-0.00537999999999994,0.012320000000000109,1742249842.844318
0.33000000000000007,-0.040000000000000036,-0.28,-0.03527999999999998,0.07531999999999983,0.018179999999999863,0.52,0.010000000000000009,0.6699999999999999,-0.03967999999999994,-0.01097999999999999,0.00878000000000001,1742249842.952248
0.25,-0.18999999999999995,-0.36,0.12817999999999996,0.02966000000000002,-0.001960000000000073,0.16999999999999993,-0.030000000000000027,0.51,0.02868000000000004,0.05042000000000013,-0.021360000000000046,1742249843.066188
0.4650000000000001,-0.13,-0.385,0.013800000000000034,-0.15808,0.10352000000000006,0.14500000000000002,-0.010000000000000009,0.31000000000000005,0.04150000000000009,0.09129999999999994,0.03527999999999998,1742249843.180086
0.6299999999999999,-0.17000000000000004,0.08000000000000007,0.06494,-0.08287999999999995,-0.010739999999999972,0.2849999999999999,-0.040000000000000036,0.15500000000000003,-0.033440000000000025,-0.053100000000000036,-0.030159999999999965,1742249843.293354
0.3799999999999999,0.030000000000000027,-0.16500000000000004,0.016720000000000068,0.1177999999999999,-0.07811999999999997,0.49,-0.10499999999999998,0.5699999999999998,-0.005499999999999949,-0.022820000000000062,-0.03272000000000008,1742249843.407378
0.27,-0.18500000000000005,-0.38,0.048699999999999966,0.05468000000000006,-0.028320000000000012,0.395,-0.07000000000000006,0.55,0.010499999999999954,0.05298000000000003,-0.01427999999999996,1742249843.524541
0.375,-0.16500000000000004,-0.18999999999999995,-0.17188000000000003,-0.12585999999999997,0.19384,0.20500000000000007,-0.08999999999999997,0.29499999999999993,0.007319999999999993,0.16174,0.04577999999999993,1742249843.6351209
0.73,-0.07999999999999996,0.22999999999999998,0.07874000000000003,-0.03858000000000006,-0.07591999999999999,0.19500000000000006,0.020000000000000018,0.15999999999999992,-0.11596000000000006,-0.07225999999999999,0.034540000000000015,1742249843.748213
0.48,-0.11499999999999999,-0.17000000000000004,-0.14124000000000003,0.28162,-0.0697000000000001,0.42500000000000004,-0.0050000000000000044,0.4849999999999999,-0.19628,-0.11229999999999996,0.02391999999999994,1742249843.865095
0.20500000000000007,-0.20499999999999996,-0.4650000000000001,0.11131999999999986,-0.01317999999999997,-0.03724000000000005,0.365,-0.14,0.53,0.002080000000000082,-0.05884,-0.054200000000000026,1742249843.976196
0.44999999999999996,-0.22999999999999998,-0.16500000000000004,-0.10950000000000004,-0.17137999999999998,0.2522,0.15500000000000003,-0.11499999999999999,0.20500000000000007,-0.06665999999999994,0.09582000000000002,-0.057499999999999996,1742249844.090301
0.8399999999999999,0.06000000000000005,0.17500000000000004,-0.038940000000000086,-0.0075599999999999,0.010620000000000074,0.11499999999999999,-0.125,0.21999999999999997,-0.10681999999999992,0.02526000000000006,0.018179999999999863,1742249844.2096891
0.5449999999999999,0.050000000000000044,-0.16500000000000004,0.036739999999999995,0.13416000000000006,-0.08739999999999992,0.21500000000000008,-0.21499999999999997,0.43500000000000005,-0.09655999999999998,-0.12878,0.010499999999999954,1742249844.317186
0.17999999999999994,-0.13,-0.515,0.05809999999999982,-0.0075599999999999,-0.0958199999999999,0.3799999999999999,-0.08499999999999996,0.605,0.07740000000000014,-0.02624000000000004,-0.05455999999999994,1742249844.435283
0.29499999999999993,-0.07000000000000006,-0.255,0.02733999999999992,-0.1435599999999999,0.08460000000000001,0.31000000000000005,-0.15000000000000002,0.29499999999999993,0.055299999999999905,0.09411999999999998,-0.030019999999999936,1742249844.5452092
0.885,0.10499999999999998,0.21999999999999997,-0.018919999999999937,-0.07434000000000007,0.011479999999999935,0.09499999999999997,-0.14,0.16500000000000004,-0.0232,-0.019159999999999955,0.00865999999999989,1742249844.6592069
0.375,0.030000000000000027,-0.17000000000000004,0.015020000000000033,0.26368000000000014,-0.09277999999999997,0.2250000000000001,-0.18999999999999995,0.25,0.026980000000000004,-0.22718000000000005,0.031119999999999814,1742249844.773153
0.15500000000000003,-0.12,-0.535,-0.04503999999999997,0.015139999999999931,-0.09129999999999994,0.3900000000000001,-0.05500000000000005,0.6400000000000001,0.060799999999999965,0.01648000000000005,-0.03198000000000001,1742249844.887072
0.2650000000000001,-0.07499999999999996,-0.35,0.08105999999999991,-0.13488,0.058339999999999836,0.29499999999999993,-0.135,0.33499999999999996,0.03956000000000004,0.07385999999999981,-0.03870000000000007,1742249845.0057862
0.8500000000000001,0.10499999999999998,0.17999999999999994,-0.026120000000000032,-0.05396000000000001,0.017220000000000013,0.10499999999999998,-0.15500000000000003,0.14000000000000012,-0.048960000000000004,-0.047599999999999976,-0.00770000000000004,1742249845.115284
0.3999999999999999,0.010000000000000009,-0.10499999999999998,0.023320000000000007,0.18309999999999982,-0.09704000000000002,0.22999999999999998,-0.15500000000000003,0.30499999999999994,0.018320000000000114,-0.18884,0.022699999999999942,1742249845.229111
0.14000000000000012,-0.14500000000000002,-0.515,-0.05041999999999991,0.06529999999999991,-0.1127999999999999,0.44999999999999996,0.010000000000000009,0.72,0.035519999999999996,0.005619999999999958,-0.042240000000000055,1742249845.34507
0.2749999999999999,-0.10499999999999998,-0.41999999999999993,0.006340000000000012,-0.13231999999999988,0.09251999999999994,0.26,-0.12,0.4750000000000001,0.07630000000000003,0.12792000000000003,-0.016840000000000077,1742249845.456141
0.815,0.135,0.17999999999999994,-0.06896000000000002,-0.06823999999999997,0.05797999999999992,0.08000000000000007,-0.20499999999999996,0.18500000000000005,-0.01317999999999997,-0.029779999999999918,0.013539999999999885,1742249845.570109
0.44999999999999996,0.004999999999999893,-0.15000000000000002,0.02624000000000004,0.11718000000000006,-0.12708000000000008,0.2250000000000001,-0.07999999999999996,0.24,0.017819999999999947,-0.11084000000000005,0.012460000000000138,1742249845.689688
0.26,-0.09999999999999998,-0.33499999999999996,-0.06359999999999999,0.028939999999999966,-0.08240000000000003,0.4650000000000001,0.06499999999999995,0.76,0.021120000000000028,0.0012199999999999989,0.019279999999999964,1742249845.797822
0.3400000000000001,-0.135,-0.39,0.015859999999999985,-0.14073999999999998,0.04956000000000005,0.2549999999999999,-0.08499999999999996,0.4950000000000001,0.0895999999999999,0.15551999999999988,-0.005240000000000022,1742249845.910953
0.575,0.04499999999999993,0.050000000000000044,-0.04955999999999994,-0.12024000000000001,0.06678000000000006,0.10499999999999998,-0.16500000000000004,0.09499999999999997,0.045420000000000016,-0.049919999999999964,0.024780000000000024,1742249846.026708
0.4849999999999999,0.020000000000000018,-0.06000000000000005,0.0026800000000000157,0.09959999999999991,-0.04601999999999995,0.2749999999999999,-0.04500000000000004,0.28,0.029779999999999918,-0.031000000000000028,-0.008660000000000001,1742249846.138162
0.31000000000000005,-0.10999999999999999,-0.265,-0.017340000000000022,0.03186,-0.10058,0.5049999999999999,-0.12,0.69,-0.012820000000000054,-0.042360000000000064,-0.010000000000000009,1742249846.2522109
0.3799999999999999,-0.13,-0.32499999999999996,-0.0029199999999999227,-0.06835999999999998,0.05455999999999994,0.32499999999999996,-0.04500000000000004,0.405,-0.013799999999999923,0.09167999999999998,-0.029779999999999918,1742249846.366797
0.48,-0.06499999999999995,-0.20499999999999996,-0.040159999999999973,-0.10033999999999998,0.10155999999999987,0.16500000000000004,-0.08499999999999996,0.22999999999999998,0.02868000000000004,0.017079999999999984,0.009759999999999991,1742249846.486249
0.595,-0.09999999999999998,-0.04500000000000004,0.023679999999999923,0.02404000000000006,-0.024899999999999922,0.20500000000000007,-0.06499999999999995,0.33000000000000007,-0.01636000000000004,-0.06713999999999998,-0.006840000000000068,1742249846.593197
0.33000000000000007,0.004999999999999893,-0.18500000000000005,-0.07823999999999998,0.08630000000000004,-0.015859999999999985,0.41500000000000004,-0.06000000000000005,0.55,-0.07386000000000004,0.025140000000000162,0.024660000000000126,1742249846.711318
0.355,-0.11499999999999999,-0.33499999999999996,-0.0031799999999999606,0.0034199999999999786,-0.006099999999999994,0.355,-0.10999999999999999,0.52,-0.0040200000000000236,0.02416000000000018,-0.04200000000000004,1742249846.826616
0.365,-0.050000000000000044,-0.22499999999999998,-0.06372,-0.05676000000000003,0.08764000000000016,0.26,-0.030000000000000027,0.2749999999999999,-0.019039999999999946,0.11535999999999991,0.019279999999999964,1742249846.935005
0.73,-0.025000000000000022,0.14000000000000012,0.0032999999999998586,-0.006460000000000021,-0.03820000000000001,0.14000000000000012,0.014999999999999902,0.27,-0.11462000000000006,0.027959999999999985,0.03698000000000001,1742249847.048893
0.54,-0.010000000000000009,-0.16500000000000004,0.010860000000000092,0.05346000000000006,-0.09155999999999997,0.19500000000000006,-0.265,0.41500000000000004,-0.14234000000000002,-0.07618000000000003,0.031500000000000083,1742249847.1692958
0.29000000000000004,-0.19500000000000006,-0.345,-0.043460000000000054,0.04577999999999993,-0.047599999999999976,0.48,-0.0050000000000000044,0.625,0.03869999999999996,-0.018919999999999937,-0.04418,1742249847.276132
0.345,-0.09999999999999998,-0.29499999999999993,0.07250000000000001,-0.11572000000000005,0.020259999999999945,0.32000000000000006,-0.16000000000000003,0.4099999999999999,0.06542000000000003,0.09045999999999998,-0.006099999999999994,1742249847.38996
0.7549999999999999,0.06000000000000005,0.16500000000000004,-0.018059999999999965,-0.07079999999999997,0.08299999999999996,0.1499999999999999,-0.09499999999999997,0.06000000000000005,0.04503999999999997,-0.044320000000000026,0.01966000000000001,1742249847.50754
0.5,-0.040000000000000036,0.0,0.020259999999999945,0.10218000000000016,-0.03882000000000008,0.31499999999999995,-0.07499999999999996,0.32499999999999996,0.08031999999999995,-0.1139,-0.011600000000000055,1742249847.616053
0.32000000000000006,-0.10499999999999998,-0.22999999999999998,0.0042800000000000615,0.15686000000000022,-0.07434000000000007,0.5449999999999999,0.020000000000000018,0.6949999999999998,0.015139999999999931,-0.08629999999999993,-0.010739999999999972,1742249847.729982
0.32000000000000006,-0.11499999999999999,-0.45500000000000007,0.05699999999999994,-0.021600000000000064,0.047719999999999985,0.2749999999999999,-0.03500000000000003,0.4750000000000001,0.08790000000000009,0.040159999999999973,-0.041019999999999945,1742249847.848043
0.4750000000000001,-0.08999999999999997,-0.35,0.04064000000000001,-0.20862000000000003,0.09777999999999998,0.14000000000000012,-0.09499999999999997,0.22999999999999998,0.08507999999999982,-0.013679999999999914,0.0007399999999999629,1742249847.9569778
0.5899999999999999,-0.07499999999999996,-0.10499999999999998,0.008059999999999956,0.09105999999999992,-0.042360000000000064,0.2549999999999999,-0.0050000000000000044,0.4750000000000001,-0.13329999999999997,0.0041599999999999415,-0.0024400000000001087,1742249848.071049
0.365,0.004999999999999893,-0.19999999999999996,-0.10387999999999997,0.12952000000000008,0.012320000000000109,0.29000000000000004,-0.07000000000000006,0.5249999999999999,-0.1691800000000001,-0.012580000000000036,0.03492000000000006,1742249848.190401
0.21500000000000008,-0.17500000000000004,-0.5,0.062140000000000084,-0.03710000000000002,-0.012580000000000036,0.29000000000000004,-0.125,0.565,0.0697000000000001,0.014520000000000088,-0.05113999999999996,1742249848.307093
0.47,-0.03500000000000003,-0.19500000000000006,-0.11426000000000003,-0.16027999999999998,0.22266000000000008,0.30000000000000004,-0.10999999999999999,0.28,0.055299999999999905,0.11938000000000004,-0.0046399999999999775,1742249848.412971
0.845,0.135,0.18999999999999995,0.051140000000000185,-0.08410000000000006,-0.023679999999999923,0.17500000000000004,-0.16000000000000003,0.24,-0.034540000000000015,0.07409999999999983,0.04455999999999993,1742249848.527385
0.43999999999999995,0.020000000000000018,-0.15000000000000002,0.01990000000000003,0.09045999999999998,-0.10218000000000005,0.2450000000000001,-0.14,0.23499999999999988,0.07776000000000005,-0.20263999999999993,-0.0014600000000000168,1742249848.648818
0.22999999999999998,-0.07999999999999996,-0.385,0.042240000000000055,0.052119999999999944,-0.09423999999999999,0.47,-0.07499999999999996,0.71,0.04283999999999999,-0.015739999999999976,0.0012199999999999989,1742249848.7549078
0.32000000000000006,-0.025000000000000022,-0.27,0.06298000000000004,-0.0675,-0.012940000000000063,0.23499999999999988,-0.13,0.3999999999999999,0.10364000000000018,0.05908000000000002,0.01110000000000011,1742249848.868772
0.865,0.020000000000000018,0.2450000000000001,0.06994000000000011,-0.05065999999999993,-0.02513999999999994,0.18999999999999995,-0.20999999999999996,0.18500000000000005,-0.013919999999999932,-0.012820000000000054,0.07481999999999989,1742249848.987659
0.45500000000000007,-0.050000000000000044,-0.17999999999999994,0.01648000000000005,0.08129999999999993,-0.09655999999999998,0.18999999999999995,-0.050000000000000044,0.15999999999999992,0.11402000000000001,-0.17224000000000006,0.010739999999999972,1742249849.0959969
0.19999999999999996,-0.10499999999999998,-0.38,0.006720000000000059,0.048579999999999846,-0.06823999999999997,0.5150000000000001,-0.08499999999999996,0.7149999999999999,-0.00024000000000001798,-0.010000000000000009,0.008539999999999992,1742249849.2124958
0.32499999999999996,-0.16500000000000004,-0.38,0.0031799999999999606,-0.058719999999999994,0.09314,0.21999999999999997,-0.010000000000000009,0.4950000000000001,-0.019540000000000002,0.07922000000000007,-0.032480000000000064,1742249849.32811
0.5,-0.13,-0.245,-0.058479999999999976,-0.19922000000000006,0.16369999999999996,0.15500000000000003,-0.07999999999999996,0.31000000000000005,0.05896000000000012,0.03980000000000006,0.010140000000000038,1742249849.437727
0.595,-0.040000000000000036,-0.030000000000000027,0.09620000000000006,0.05884,-0.07031999999999994,0.2549999999999999,-0.04500000000000004,0.3900000000000001,-0.07713999999999999,0.0329600000000001,-0.01427999999999996,1742249849.5509708
0.33499999999999996,-0.09499999999999997,-0.30000000000000004,-0.06579999999999997,0.15088000000000013,-0.05628,0.4750000000000001,-0.04500000000000004,0.605,-0.06568000000000007,-0.009759999999999991,0.036739999999999995,1742249849.670232
0.23499999999999988,-0.14,-0.365,0.08594000000000013,0.06469999999999998,-0.025399999999999978,0.33499999999999996,-0.09499999999999997,0.51,-0.005859999999999976,0.009400000000000075,-0.06323999999999996,1742249849.787932
0.42999999999999994,0.09499999999999997,-0.26,-0.0393,-0.10462000000000005,0.16003999999999996,0.10499999999999998,-0.12,0.375,0.005980000000000096,0.04405999999999999,0.02611999999999992,1742249849.8927622
0.6499999999999999,-0.04500000000000004,0.030000000000000027,0.05333999999999994,0.030999999999999917,-0.060799999999999965,0.16500000000000004,-0.050000000000000044,0.2749999999999999,-0.09399999999999997,0.0577399999999999,0.043460000000000054,1742249850.008548
0.5350000000000001,0.010000000000000009,-0.19999999999999996,0.002080000000000082,0.04699999999999993,-0.05712000000000006,0.19500000000000006,-0.25,0.3700000000000001,-0.07335999999999998,-0.1018,0.04064000000000001,1742249850.119426
0.18999999999999995,-0.18500000000000005,-0.48,0.031380000000000186,0.028939999999999966,-0.06298000000000004,0.375,-0.07999999999999996,0.5800000000000001,0.07116000000000011,-0.06323999999999996,-0.0032999999999999696,1742249850.232953
0.43500000000000005,-0.15000000000000002,-0.29499999999999993,-0.12646000000000002,-0.10521999999999998,0.18847999999999998,0.28,-0.10499999999999998,0.30499999999999994,0.07103999999999999,0.11548000000000003,0.0030599999999998406,1742249850.348302
0.79,-0.050000000000000044,0.19999999999999996,0.08898000000000006,-0.07044000000000006,-0.07201999999999997,0.1200000000000001,0.010000000000000009,0.22999999999999998,-0.07823999999999998,0.023560000000000025,0.05285999999999991,1742249850.460986
0.55,-0.015000000000000013,-0.22499999999999998,-0.05113999999999996,0.15979999999999994,-0.07579999999999998,0.11499999999999999,-0.2849999999999999,0.42500000000000004,-0.10681999999999992,-0.15136000000000005,0.009519999999999973,1742249850.5729542
0.15500000000000003,-0.21999999999999997,-0.57,-0.03283999999999998,0.07264000000000004,-0.052000000000000046,0.3599999999999999,-0.025000000000000022,0.7050000000000001,0.002080000000000082,-0.04527999999999999,-0.015139999999999931,1742249850.6916149
0.345,-0.135,-0.17999999999999994,0.01195999999999997,-0.18238,0.0920399999999999,0.2749999999999999,-0.09999999999999998,0.30499999999999994,0.06542000000000003,0.12597999999999998,0.005740000000000078,1742249850.809358
0.845,-0.025000000000000022,0.135,0.07496000000000014,-0.09704000000000002,-0.04455999999999993,0.135,-0.07499999999999996,0.2450000000000001,-0.029179999999999984,0.06933999999999996,0.04150000000000009,1742249850.913853
0.4650000000000001,-0.08499999999999996,-0.18999999999999995,0.03905999999999987,0.08385999999999982,-0.08775999999999995,0.18500000000000005,-0.125,0.135,0.05518000000000001,-0.12036000000000002,-0.0043999999999999595,1742249851.0312068
0.19500000000000006,-0.125,-0.42999999999999994,0.03320000000000012,0.03233999999999981,-0.08338000000000001,0.44999999999999996,-0.025000000000000022,0.7949999999999999,0.014399999999999968,-0.030279999999999974,-0.013799999999999923,1742249851.151435
0.21999999999999997,-0.06499999999999995,-0.30499999999999994,0.022699999999999942,-0.10192000000000001,0.07397999999999993,0.31000000000000005,-0.09999999999999998,0.4950000000000001,0.10729999999999995,0.12207999999999997,0.021239999999999926,1742249851.255771
0.79,0.17500000000000004,0.11499999999999999,-0.14794000000000007,-0.06128,0.049919999999999964,0.10499999999999998,-0.06499999999999995,0.1200000000000001,0.03992000000000018,-0.07347999999999999,0.002080000000000082,1742249851.369208
0.4650000000000001,0.050000000000000044,-0.07499999999999996,0.10179999999999989,0.1203599999999998,-0.07934000000000008,0.28,-0.010000000000000009,0.45500000000000007,0.16283999999999987,-0.06787999999999994,-0.07055999999999996,1742249851.488689
0.30000000000000004,-0.08999999999999997,-0.35,-0.025639999999999996,0.09644000000000008,-0.06628,0.48,-0.015000000000000013,0.71,-0.002080000000000082,-0.018320000000000003,0.02624000000000004,1742249851.596977
0.3400000000000001,-0.15500000000000003,-0.39,-0.03465999999999991,-0.05712000000000006,0.06640000000000001,0.27,0.02499999999999991,0.5150000000000001,-0.04932000000000003,0.14379999999999993,-0.037839999999999985,1742249851.713619
0.41999999999999993,-0.0050000000000000044,-0.04500000000000004,-0.060799999999999965,-0.20996000000000004,0.11755999999999989,0.16999999999999993,-0.07499999999999996,0.2450000000000001,0.11461999999999994,0.0283199999999999,-0.009759999999999991,1742249851.829485
0.55,-0.050000000000000044,-0.015000000000000013,0.08531999999999984,0.06529999999999991,-0.07153999999999994,0.2250000000000001,0.004999999999999893,0.33000000000000007,-0.05676000000000003,-0.0030599999999999516,-0.0042799999999999505,1742249851.949543
0.3500000000000001,-0.06000000000000005,-0.17500000000000004,-0.02076,0.15539999999999998,-0.016240000000000032,0.395,-0.05500000000000005,0.47,-0.2329199999999999,-0.014519999999999977,0.032480000000000064,1742249852.05283
0.2650000000000001,-0.19999999999999996,-0.44999999999999996,0.05920000000000014,0.024660000000000126,-0.032220000000000026,0.3500000000000001,-0.135,0.56,0.016839999999999966,0.008059999999999956,-0.01746000000000003,1742249852.1709802
0.365,-0.14500000000000002,-0.24,-0.14013999999999993,-0.13978000000000002,0.20178000000000007,0.27,-0.17000000000000004,0.29499999999999993,0.009400000000000075,0.10607999999999995,0.03381999999999996,1742249852.289776
0.77,-0.17000000000000004,0.27,0.07898000000000005,-0.08886000000000005,-0.10046,0.1200000000000001,-0.025000000000000022,0.2450000000000001,-0.13341999999999998,0.04932000000000003,0.07543999999999995,1742249852.3937302
0.405,-0.07999999999999996,-0.25,0.06678000000000006,0.06481999999999988,-0.16601999999999995,0.21500000000000008,-0.05500000000000005,0.14000000000000012,0.1248800000000001,-0.19165999999999994,-0.016960000000000086,1742249852.509884
0.15500000000000003,-0.16500000000000004,-0.44500000000000006,-0.025399999999999978,-0.01525999999999994,-0.04125999999999996,0.42500000000000004,-0.09499999999999997,0.7349999999999999,0.01317999999999997,0.013919999999999932,0.00537999999999994,1742249852.6292338
0.30499999999999994,-0.22499999999999998,-0.09499999999999997,0.026859999999999884,-0.12463999999999997,0.10411999999999999,0.2849999999999999,-0.040000000000000036,0.47,0.07579999999999987,0.12768000000000002,-0.012820000000000054,1742249852.734685
0.78,0.014999999999999902,0.17500000000000004,0.04405999999999999,-0.13012,0.04174000000000011,0.135,-0.14500000000000002,0.10499999999999998,0.054319999999999924,0.020259999999999945,0.020499999999999963,1742249852.849796
0.49,0.0,0.03499999999999992,0.05274000000000001,0.08728000000000002,-0.06420000000000003,0.25,-0.08999999999999997,0.29000000000000004,0.047599999999999865,-0.09948000000000001,-0.04688000000000003,1742249852.9693272
0.2650000000000001,-0.135,-0.29000000000000004,-0.06665999999999994,0.20666000000000007,-0.07823999999999998,0.5350000000000001,-0.10499999999999998,0.665,0.062019999999999964,-0.1079199999999999,0.00878000000000001,1742249853.075786
0.33499999999999996,-0.17000000000000004,-0.42500000000000004,0.05797999999999992,-0.07238,0.11352000000000007,0.32499999999999996,-0.050000000000000044,0.5049999999999999,-0.05577999999999994,0.08716000000000013,-0.04565999999999992,1742249853.1922271
0.5449999999999999,0.2250000000000001,0.25,-0.13024000000000002,-0.14513999999999994,0.10607999999999995,0.135,-0.07499999999999996,0.135,0.19690000000000007,0.01537999999999995,-0.008299999999999974,1742249853.308665
0.5800000000000001,-0.06499999999999995,-0.0050000000000000044,0.058720000000000105,0.13440000000000007,-0.06555999999999995,0.21999999999999997,0.06499999999999995,0.48,-0.05834000000000006,-0.0035399999999999876,-0.05577999999999994,1742249853.428432
0.33000000000000007,-0.09999999999999998,-0.275,-0.11865999999999999,0.16931999999999992,-0.05003999999999997,0.52,-0.10999999999999999,0.6299999999999999,-0.012700000000000045,-0.08153999999999995,-0.0013400000000000079,1742249853.531952
0.2650000000000001,-0.20499999999999996,-0.355,0.04638000000000009,-0.018059999999999965,0.09033999999999986,0.32499999999999996,-0.16500000000000004,0.54,-0.06408000000000003,0.09692000000000012,-0.06262000000000001,1742249853.650157
0.5899999999999999,-0.05500000000000005,-0.21999999999999997,0.06800000000000006,-0.21802,0.13318000000000008,0.05499999999999994,-0.09499999999999997,0.27,-0.02855999999999992,0.020019999999999927,0.043339999999999934,1742249853.769428
0.56,-0.015000000000000013,-0.040000000000000036,-0.055299999999999905,0.15527999999999986,-0.03161999999999998,0.1299999999999999,-0.10999999999999999,0.4750000000000001,-0.07641999999999993,0.05944000000000016,0.02611999999999992,1742249853.872676
0.395,-0.030000000000000027,-0.255,0.049919999999999964,0.08654000000000006,-0.08118000000000003,0.4099999999999999,-0.05500000000000005,0.565,-0.013919999999999932,-0.018320000000000003,-0.007940000000000058,1742249853.988767
0.2549999999999999,-0.15000000000000002,-0.375,-0.014039999999999941,0.030399999999999983,0.04272000000000009,0.3799999999999999,-0.15500000000000003,0.51,-0.05065999999999993,-0.0022000000000000908,-0.045419999999999905,1742249854.108483
0.5899999999999999,0.21500000000000008,-0.020000000000000018,0.0027999999999999137,0.10242000000000018,-0.08129999999999993,0.19999999999999996,-0.13,0.405,-0.012580000000000036,-0.11060000000000003,-0.09144000000000008,1742258836.015478
0.2450000000000001,0.014999999999999902,-0.33499999999999996,-0.04625999999999997,0.05235999999999996,-0.018059999999999965,0.585,0.07000000000000006,0.6299999999999999,-0.11402000000000001,0.03503999999999996,-0.0042799999999999505,1742258836.129837
0.2450000000000001,0.16999999999999993,-0.355,0.014639999999999986,-0.0968,0.07666000000000017,0.2250000000000001,-0.09499999999999997,0.41500000000000004,-0.016000000000000014,0.06811999999999996,0.02635999999999994,1742258836.246947
0.6600000000000001,0.47,0.2450000000000001,0.025760000000000005,0.0026800000000000157,-0.046760000000000024,0.10499999999999998,-0.04500000000000004,0.14500000000000002,0.05140000000000011,-0.024899999999999922,0.04248000000000007,1742258836.35731
0.3400000000000001,0.21500000000000008,-0.18999999999999995,-0.12585999999999997,0.12011999999999978,-0.08105999999999991,0.45500000000000007,0.050000000000000044,0.5150000000000001,-0.04310000000000003,-0.11146,-0.007940000000000058,1742258836.471411
0.2450000000000001,0.0,-0.45500000000000007,0.05455999999999994,-0.008419999999999983,-0.042120000000000046,0.365,-0.025000000000000022,0.51,-0.013539999999999996,0.08838000000000013,0.030160000000000187,1742258836.588959
0.54,0.21999999999999997,-0.05500000000000005,-0.007080000000000086,-0.1420800000000001,0.12817999999999996,0.09000000000000008,0.050000000000000044,0.2849999999999999,-0.02648000000000006,0.06824000000000008,0.03601999999999994,1742258836.69918
0.5899999999999999,0.30000000000000004,-0.04500000000000004,-0.07213999999999998,0.011840000000000073,-0.07116,0.2749999999999999,-0.030000000000000027,0.2749999999999999,0.06396000000000002,-0.05798000000000003,-0.08299999999999996,1742258836.8122969
0.2650000000000001,-0.05500000000000005,-0.30000000000000004,0.0023200000000000998,-0.00024000000000001798,-0.049679999999999946,0.575,-0.020000000000000018,0.5899999999999999,0.006599999999999939,0.0030599999999998406,0.05797999999999992,1742258836.927593
0.29499999999999993,0.125,-0.36,0.09985999999999984,-0.0232,0.10301999999999989,0.26,0.10000000000000009,0.3500000000000001,-0.06140000000000001,0.03942000000000001,0.03370000000000006,1742258837.039135
0.6699999999999999,0.3999999999999999,0.17500000000000004,-0.03173999999999999,0.0018400000000000638,0.03381999999999996,0.1200000000000001,0.010000000000000009,0.21500000000000008,0.06640000000000001,-0.03834000000000004,0.011600000000000055,1742258837.152311
0.42999999999999994,0.15500000000000003,-0.06000000000000005,-0.009159999999999946,0.12597999999999998,-0.07618000000000003,0.31000000000000005,0.04499999999999993,0.5350000000000001,-0.01758000000000004,-0.07934000000000008,0.010259999999999936,1742258837.268045
0.24,0.020000000000000018,-0.45500000000000007,0.029059999999999864,0.05711999999999984,-0.06434000000000006,0.42500000000000004,0.08499999999999996,0.5150000000000001,-0.028679999999999928,-0.029299999999999993,0.00537999999999994,1742258837.380202
0.44500000000000006,0.17500000000000004,-0.28,0.036619999999999875,-0.08814,0.07885999999999993,0.18500000000000005,0.040000000000000036,0.3599999999999999,0.0040199999999999125,0.10289999999999999,0.009519999999999973,1742258837.4942122
0.585,0.21999999999999997,0.03499999999999992,0.051020000000000065,0.009400000000000075,-0.04149999999999998,0.18500000000000005,0.030000000000000027,0.14000000000000012,0.0954600000000001,-0.05176000000000003,-0.00878000000000001,1742258837.609917
0.29499999999999993,0.125,-0.255,-0.06811999999999996,0.05357999999999996,-0.040159999999999973,0.47,0.07499999999999996,0.4849999999999999,0.010620000000000074,-0.07775999999999994,-0.011480000000000046,1742258837.722998
0.29000000000000004,0.06499999999999995,-0.345,0.06481999999999988,-0.03064,0.043339999999999934,0.33000000000000007,-0.030000000000000027,0.47,0.0317400000000001,0.07190000000000007,0.013419999999999987,1742258837.836095
0.54,0.3400000000000001,0.06000000000000005,-0.049919999999999964,-0.11474000000000006,0.09704000000000002,0.14500000000000002,0.07000000000000006,0.23499999999999988,0.023800000000000043,0.04908000000000001,0.020999999999999908,1742258837.949023
0.45999999999999996,0.20500000000000007,-0.025000000000000022,-0.01415999999999995,0.10851999999999995,-0.02844000000000002,0.32000000000000006,-0.06000000000000005,0.385,-0.03417999999999999,-0.07165999999999995,-0.02391999999999994,1742258838.0631611
0.2250000000000001,0.07000000000000006,-0.375,-0.013299999999999979,0.0283199999999999,-0.052000000000000046,0.44500000000000006,0.09000000000000008,0.5550000000000002,-0.02624000000000004,-0.009519999999999973,0.008059999999999956,1742258838.176217
0.3999999999999999,0.17500000000000004,-0.29499999999999993,-0.01636000000000004,-0.06372,0.10864000000000007,0.16999999999999993,0.004999999999999893,0.3900000000000001,-0.023440000000000016,0.06982,0.008299999999999974,1742258838.2901142
0.6200000000000001,0.32000000000000006,0.08000000000000007,0.0954600000000001,0.0008600000000000829,-0.027700000000000058,0.16999999999999993,-0.020000000000000018,0.23499999999999988,0.052119999999999944,-0.005739999999999967,-0.015739999999999976,1742258838.408034
0.3500000000000001,0.19999999999999996,-0.255,-0.13378,0.06884000000000001,-0.054200000000000026,0.4099999999999999,0.06000000000000005,0.48,-0.08618000000000003,-0.06603999999999999,0.007560000000000011,1742258838.517343
0.31499999999999995,0.05499999999999994,-0.36,0.023679999999999923,-0.010000000000000009,0.010739999999999972,0.3400000000000001,0.02499999999999991,0.5150000000000001,-0.03748000000000007,0.04577999999999993,0.0019599999999999618,1742258838.631333
0.385,0.27,-0.12,0.029900000000000038,-0.08814,0.09143999999999997,0.17500000000000004,0.010000000000000009,0.3799999999999999,-0.010259999999999936,0.06225999999999998,0.01746000000000003,1742258838.749175
0.4950000000000001,0.22999999999999998,-0.025000000000000022,0.06824000000000008,0.024540000000000006,-0.00036000000000002697,0.21999999999999997,-0.07499999999999996,0.2450000000000001,0.05518000000000001,-0.019039999999999946,-0.024660000000000015,1742258838.8573
0.345,0.21500000000000008,-0.265,-0.14112000000000002,0.04711999999999983,-0.016240000000000032,0.3400000000000001,-0.09999999999999998,0.645,-0.12084000000000006,-0.05628,0.019400000000000084,1742258838.971348
0.30000000000000004,0.07499999999999996,-0.4099999999999999,0.03161999999999998,-0.03698000000000001,0.0032999999999998586,0.29499999999999993,0.0,0.5150000000000001,-0.03417999999999999,0.06359999999999988,-0.0042799999999999505,1742258839.090028
0.47,0.25,-0.17500000000000004,0.07788000000000017,-0.06640000000000001,0.03747999999999996,0.15500000000000003,0.02499999999999991,0.345,-0.012940000000000063,0.08129999999999993,0.012580000000000036,1742258839.199091
0.49,0.22999999999999998,-0.11499999999999999,0.021600000000000064,0.020499999999999963,-0.01770000000000005,0.2549999999999999,-0.015000000000000013,0.30499999999999994,0.05603999999999987,0.0026800000000000157,-0.012580000000000036,1742258839.312266
0.3400000000000001,0.14000000000000012,-0.30499999999999994,-0.12951999999999997,0.0283199999999999,0.00048000000000003595,0.3500000000000001,0.02499999999999991,0.44500000000000006,0.012320000000000109,0.04455999999999993,0.01648000000000005,1742258839.429225
0.345,0.18500000000000005,-0.235,0.0019599999999999618,-0.008059999999999956,0.01868000000000003,0.345,0.0,0.665,-0.19079999999999997,0.006460000000000132,0.016119999999999912,1742258839.539235
0.3500000000000001,0.16500000000000004,-0.4,0.08543999999999996,-0.0502999999999999,0.00782000000000016,0.18999999999999995,-0.08499999999999996,0.41999999999999993,-0.011600000000000055,0.11646000000000001,0.0008600000000000829,1742258839.653277
0.49,0.27,0.004999999999999893,0.04248000000000007,-0.006720000000000059,-0.021120000000000028,0.21500000000000008,-0.07000000000000006,0.18999999999999995,0.04064000000000001,-0.047860000000000014,-0.028940000000000077,1742258839.768471
0.31499999999999995,0.22999999999999998,-0.20499999999999996,-0.062019999999999964,0.06542000000000003,-0.04283999999999999,0.3900000000000001,0.010000000000000009,0.52,-0.05176000000000003,-0.010739999999999972,0.0307599999999999,1742258839.881233
0.31000000000000005,0.10000000000000009,-0.395,0.009640000000000093,-0.018059999999999965,0.006340000000000012,0.32000000000000006,-0.015000000000000013,0.4950000000000001,-0.04064000000000001,0.05590000000000006,0.006460000000000132,1742258839.995258
0.43999999999999995,0.2450000000000001,-0.17999999999999994,0.08740000000000014,-0.0686,0.020140000000000047,0.16500000000000004,-0.04500000000000004,0.345,-0.0047599999999999865,0.04625999999999997,0.014780000000000015,1742258840.110846
0.51,0.23499999999999988,-0.0050000000000000044,-0.016120000000000023,0.06651999999999991,-0.07972000000000001,0.21999999999999997,-0.135,0.22999999999999998,-0.01085999999999998,-0.03382000000000007,-0.0037800000000000056,1742258840.2297878
0.3500000000000001,0.21500000000000008,-0.35,-0.049799999999999955,0.05078000000000005,-0.03760000000000008,0.365,-0.07499999999999996,0.6800000000000002,-0.1320800000000001,0.0024399999999999977,0.03735999999999984,1742258840.337148
0.33499999999999996,0.10000000000000009,-0.35,0.04735999999999985,-0.06591999999999998,0.025519999999999987,0.385,0.03499999999999992,0.48,-0.0232,0.03614000000000006,-0.005859999999999976,1742258840.45111
0.45999999999999996,0.2549999999999999,-0.05500000000000005,0.10192000000000001,-0.07898000000000005,0.01855999999999991,0.18999999999999995,-0.06499999999999995,0.28,0.08543999999999996,0.025020000000000042,0.01317999999999997,1742258840.56966
0.48,0.2549999999999999,-0.025000000000000022,-0.05152000000000001,0.09498000000000006,-0.02734000000000003,0.24,-0.11499999999999999,0.42999999999999994,-0.14746000000000004,-0.059940000000000104,0.05455999999999994,1742258840.67828
0.42999999999999994,0.2450000000000001,-0.31000000000000005,0.09716000000000014,0.018440000000000012,-0.03724000000000005,0.28,-0.21999999999999997,0.655,0.10485999999999995,-0.11975999999999998,0.028799999999999937,1742258840.792277
0.33499999999999996,0.10000000000000009,-0.3400000000000001,-0.03724000000000005,-0.05479999999999996,0.05298000000000003,0.33000000000000007,0.02499999999999991,0.4950000000000001,-0.054320000000000035,0.04090000000000016,-0.04149999999999998,1742258840.909932
0.42500000000000004,0.345,-0.20499999999999996,-0.0012199999999999989,-0.08923999999999999,0.05188000000000015,0.16500000000000004,-0.05500000000000005,0.385,0.015020000000000033,0.010140000000000038,-0.03295999999999999,1742258841.020291
0.56,0.20999999999999996,0.010000000000000009,0.07579999999999987,0.013299999999999867,-0.06420000000000003,0.19999999999999996,0.030000000000000027,0.24,0.07445999999999997,0.018799999999999928,-0.021240000000000037,1742258841.134015
0.30000000000000004,0.1499999999999999,-0.29499999999999993,-0.04712000000000005,0.08764000000000016,-0.06335999999999997,0.3999999999999999,-0.020000000000000018,0.7549999999999999,0.08177999999999996,0.06640000000000001,-0.028799999999999937,1742258841.249397
0.30000000000000004,0.1499999999999999,-0.255,-0.056640000000000024,-0.08008000000000004,0.08543999999999996,0.32000000000000006,-0.0050000000000000044,0.5,-0.07653999999999994,0.01770000000000005,-0.0007399999999999629,1742258841.361251
0.41500000000000004,0.2749999999999999,-0.14,0.06347999999999998,-0.05725999999999998,0.06957999999999998,0.15999999999999992,-0.06499999999999995,0.3799999999999999,0.007079999999999975,0.03186,0.008539999999999992,1742258841.475103
0.5350000000000001,0.16999999999999993,-0.025000000000000022,0.02868000000000004,0.04394000000000009,-0.06262000000000001,0.2250000000000001,0.020000000000000018,0.25,0.022820000000000062,-0.0029199999999999227,-0.034540000000000015,1742258841.591799
0.32000000000000006,0.125,-0.18500000000000005,-0.08094000000000001,0.10364000000000018,-0.020019999999999927,0.375,-0.020000000000000018,0.6200000000000001,-0.08177999999999996,-0.07323999999999997,-0.0031799999999999606,1742258841.710156
0.345,0.09499999999999997,-0.32000000000000006,-0.023559999999999914,-0.10144000000000009,0.0966800000000001,0.33000000000000007,-0.050000000000000044,0.48,-0.04405999999999999,0.03833999999999982,0.036619999999999875,1742258841.81716
0.47,0.31000000000000005,-0.08999999999999997,0.12158000000000002,-0.04798000000000002,0.0036599999999999966,0.16500000000000004,-0.06499999999999995,0.28,0.018320000000000114,0.030279999999999863,0.023800000000000043,1742258841.931062
0.53,0.21500000000000008,0.06499999999999995,-0.03076000000000001,0.08948,-0.05589999999999995,0.20500000000000007,-0.010000000000000009,0.23499999999999988,-0.05589999999999995,-0.08739999999999992,-0.008419999999999983,1742258842.050058
0.2749999999999999,0.06000000000000005,-0.49,-0.032220000000000026,0.11976000000000009,-0.09265999999999996,0.365,0.020000000000000018,0.5249999999999999,0.021600000000000064,-0.0502999999999999,-0.039059999999999984,1742258842.1591392
0.2650000000000001,0.14500000000000002,-0.43500000000000005,0.02210000000000001,-0.14025999999999994,0.10376000000000007,0.19500000000000006,-0.16000000000000003,0.5699999999999998,0.048699999999999966,0.06788000000000016,0.020999999999999908,1742258842.273171
0.56,0.395,0.125,0.007200000000000095,-0.07996000000000003,0.008299999999999974,0.1499999999999999,-0.040000000000000036,0.2250000000000001,0.02966000000000002,0.00550000000000006,0.011239999999999917,1742258842.3908029
0.43500000000000005,0.22999999999999998,-0.050000000000000044,0.015260000000000051,0.13476,-0.043220000000000036,0.25,-0.040000000000000036,0.43999999999999995,-0.026120000000000032,-0.0907,-0.021480000000000055,1742258842.500383
0.25,0.11499999999999999,-0.41999999999999993,0.03723999999999994,0.08448000000000011,-0.06579999999999997,0.3599999999999999,-0.050000000000000044,0.5550000000000002,-0.02942,-0.08362000000000003,-0.016960000000000086,1742258842.614509
0.385,0.16999999999999993,-0.20999999999999996,-0.0232,-0.10509999999999997,0.08472000000000013,0.19500000000000006,0.014999999999999902,0.4849999999999999,-0.03637999999999997,0.09400000000000008,0.02171999999999996,1742258842.730334
0.575,0.2749999999999999,0.09000000000000008,-0.02061999999999997,-0.03858000000000006,-0.007320000000000104,0.09499999999999997,-0.040000000000000036,0.2849999999999999,0.0343,0.020999999999999908,0.006220000000000114,1742258842.842069
0.43500000000000005,0.2250000000000001,-0.07499999999999996,-0.02966000000000002,0.09935999999999989,-0.018799999999999928,0.2250000000000001,-0.010000000000000009,0.355,0.04908000000000001,-0.0675,-0.022460000000000035,1742258842.956288
0.28,0.06499999999999995,-0.385,0.13647999999999993,0.045539999999999914,-0.10424,0.405,-0.10499999999999998,0.565,0.04845999999999995,-0.044320000000000026,-0.020379999999999954,1742258843.0707068
0.29499999999999993,0.15999999999999992,-0.33000000000000007,-0.03186,-0.11681999999999992,0.06946000000000008,0.18500000000000005,-0.050000000000000044,0.47,-0.06140000000000001,0.09924,0.08094000000000001,1742258843.19046
0.5699999999999998,0.3700000000000001,0.17999999999999994,-0.01966000000000001,-0.09399999999999997,0.036739999999999995,0.08000000000000007,-0.0050000000000000044,0.2849999999999999,0.09411999999999998,0.023679999999999923,0.008299999999999974,1742258843.298004
0.44500000000000006,0.21500000000000008,-0.07499999999999996,-0.08508000000000004,0.07764000000000015,-0.0015800000000000258,0.22999999999999998,-0.07499999999999996,0.29499999999999993,0.035640000000000116,-0.10875999999999997,-0.08692,1742258843.41141
0.2450000000000001,0.07000000000000006,-0.39,0.04357999999999995,0.047599999999999865,-0.06041999999999992,0.3999999999999999,-0.10499999999999998,0.7850000000000001,0.011239999999999917,-0.06677999999999995,-0.052000000000000046,1742258843.530795
0.31499999999999995,0.18999999999999995,-0.13,-0.06115999999999999,-0.1224400000000001,0.11925999999999992,0.21999999999999997,-0.07999999999999996,0.45999999999999996,-0.08263999999999994,0.12890000000000001,-0.007940000000000058,1742258843.639199
0.615,0.31000000000000005,0.040000000000000036,0.007079999999999975,-0.12414000000000003,0.04455999999999993,0.10000000000000009,-0.06499999999999995,0.21999999999999997,0.05944000000000016,0.04235999999999995,0.00782000000000016,1742258843.7530382
0.47,0.20500000000000007,-0.0050000000000000044,-0.015139999999999931,0.12573999999999996,-0.018320000000000003,0.2849999999999999,-0.025000000000000022,0.3599999999999999,0.016240000000000032,-0.13636000000000004,-0.03858000000000006,1742258843.871568
0.28,0.050000000000000044,-0.385,0.06529999999999991,0.08031999999999995,-0.05577999999999994,0.3999999999999999,-0.09999999999999998,0.56,0.007200000000000095,0.010739999999999972,-0.010619999999999963,1742258843.981075
0.30499999999999994,0.22999999999999998,-0.19500000000000006,0.005980000000000096,-0.1224400000000001,0.08594000000000013,0.24,-0.050000000000000044,0.395,-0.0034199999999999786,0.12585999999999986,0.01537999999999995,1742258844.0951018
0.6800000000000002,0.3900000000000001,0.2450000000000001,0.04357999999999995,-0.022340000000000027,-0.008419999999999983,0.16500000000000004,-0.07000000000000006,0.18999999999999995,0.06922000000000006,-0.02100000000000002,0.0041599999999999415,1742258844.211487
0.42500000000000004,0.21999999999999997,-0.17500000000000004,-0.13660000000000005,0.1236600000000001,-0.03272000000000008,0.29499999999999993,-0.13,0.5249999999999999,0.032480000000000064,-0.1372000000000001,-0.02954000000000001,1742258844.3316538
0.2549999999999999,0.040000000000000036,-0.42999999999999994,0.0035399999999998766,0.03381999999999996,-0.024660000000000015,0.375,-0.06000000000000005,0.6200000000000001,-0.011099999999999999,0.016720000000000068,0.010140000000000038,1742258844.437093
0.3799999999999999,0.31499999999999995,-0.0050000000000000044,0.08275999999999994,-0.05384,0.06896000000000013,0.2450000000000001,-0.07499999999999996,0.3799999999999999,0.03381999999999996,0.09570000000000012,0.014040000000000052,1742258844.5516438
0.6000000000000001,0.45999999999999996,0.20999999999999996,-0.018179999999999974,-0.02636000000000005,0.03308,0.18999999999999995,-0.12,0.17500000000000004,0.08826,-0.023679999999999923,-0.00660000000000005,1742258844.671254
0.405,0.23499999999999988,-0.09499999999999997,0.07922000000000007,0.18506,-0.016120000000000023,0.3500000000000001,-0.030000000000000027,0.31499999999999995,0.04968000000000017,-0.11878,-0.04283999999999999,1742258844.779211
0.18999999999999995,0.1100000000000001,-0.475,0.053220000000000045,0.03051999999999988,-0.019399999999999973,0.3900000000000001,-0.13,0.5699999999999998,-0.08228000000000002,0.017819999999999947,0.007319999999999993,1742258844.893079
0.32499999999999996,0.3500000000000001,0.08499999999999996,-0.02942,-0.10608000000000006,0.12256,0.2250000000000001,-0.04500000000000004,0.365,-0.0025599999999998957,0.07068000000000008,0.010620000000000074,1742258845.0112388
0.615,0.3999999999999999,0.18500000000000005,0.12768000000000002,-0.010619999999999963,-0.053220000000000045,0.20500000000000007,-0.05500000000000005,0.17999999999999994,-0.03820000000000001,-0.026980000000000004,0.02526000000000006,1742258845.1212008
0.345,0.32000000000000006,-0.16500000000000004,-0.10620000000000007,0.1461199999999998,-0.1127999999999999,0.405,-0.025000000000000022,0.5550000000000002,0.19520000000000004,-0.11229999999999996,-0.05553999999999992,1742258845.235329
0.2450000000000001,0.05499999999999994,-0.44500000000000006,-0.03283999999999998,0.02416000000000018,-0.012580000000000036,0.3599999999999999,-0.12,0.565,-0.030399999999999983,0.017220000000000013,0.05126000000000008,1742258845.3519711
0.4650000000000001,0.2250000000000001,-0.31000000000000005,0.06678000000000006,-0.10438000000000003,0.04161999999999999,0.16500000000000004,-0.07499999999999996,0.3500000000000001,-0.01305999999999996,0.048819999999999864,0.035880000000000134,1742258845.472277
