L-AccX,L-AccY,L-AccZ,L-GyrX,L-GyrY,L-GyrZ,R-AccX,R-AccY,R-AccZ,R-GyrX,R-GyrY,R-GyrZ,timestamp
-0.040000000000000036,0.4099999999999999,0.6400000000000001,0.005859999999999976,0.06567999999999996,0.20228000000000002,-0.0050000000000000044,-0.235,0.43500000000000005,0.0030599999999998406,-0.26172000000000006,-0.13391999999999993,1742237455.272471
-0.08499999999999996,0.53,0.3799999999999999,-0.12122,0.17931999999999992,0.10997999999999997,-0.17999999999999994,-0.47,0.5550000000000002,-0.0018400000000000638,0.08983999999999992,-0.21936,1742237455.39738
-0.040000000000000036,0.4950000000000001,0.1200000000000001,0.04723999999999995,0.17542000000000013,-0.20240000000000002,-0.22499999999999998,-0.63,0.2450000000000001,0.08288000000000006,0.2965,-0.03736000000000006,1742237455.518018
0.18999999999999995,0.23499999999999988,0.1100000000000001,-0.008539999999999992,-0.015859999999999985,-0.24194000000000004,-0.16000000000000003,-0.56,-0.04500000000000004,0.07177999999999995,0.14318000000000008,0.19763999999999982,1742237455.614395
0.22999999999999998,-0.010000000000000009,0.29000000000000004,-0.14734000000000003,-0.2634200000000001,-0.14439999999999997,0.004999999999999893,-0.375,-0.040000000000000036,-0.12451999999999996,-0.11646000000000001,0.17968000000000006,1742237455.7373812
-0.020000000000000018,0.2450000000000001,0.5699999999999998,-0.021120000000000028,-0.13525999999999994,0.21263999999999994,0.06000000000000005,-0.25,0.21500000000000008,-0.1174400000000001,-0.28576,0.026739999999999986,1742237455.856858
-0.09499999999999997,0.44500000000000006,0.605,0.04503999999999997,0.08570000000000011,0.16076000000000001,-0.03500000000000003,-0.25,0.3799999999999999,0.016839999999999966,-0.19713999999999998,-0.15379999999999994,1742237455.956519
-0.07999999999999996,0.6600000000000001,0.2549999999999999,-0.040899999999999936,0.25207999999999986,0.06800000000000006,-0.26,-0.53,0.54,0.06274000000000002,0.05274000000000001,-0.20653999999999995,1742237456.070399
0.06499999999999995,0.42999999999999994,0.07000000000000006,-0.06568000000000007,0.03833999999999982,-0.27879999999999994,-0.20999999999999996,-0.575,0.2450000000000001,0.1301199999999998,0.28308,0.00011999999999989797,1742237456.188137
0.16999999999999993,0.17999999999999994,0.19500000000000006,-0.0015800000000000258,-0.17503999999999997,-0.19446000000000008,-0.10999999999999999,-0.515,-0.015000000000000013,0.09240000000000004,0.17896,0.19166000000000016,1742237456.3079958
0.08000000000000007,0.14500000000000002,0.4099999999999999,-0.16479999999999995,-0.28857999999999995,-0.005240000000000022,0.04499999999999993,-0.31000000000000005,0.020000000000000018,-0.058719999999999994,-0.06029999999999991,0.2448800000000002,1742237456.428116
-0.07000000000000006,0.31000000000000005,0.5049999999999999,-0.16076000000000001,0.03272000000000008,0.28625999999999996,0.11499999999999999,-0.22999999999999998,0.18999999999999995,-0.04736000000000007,-0.2561,0.021479999999999944,1742237456.5263
-0.15000000000000002,0.5800000000000001,0.41999999999999993,-0.09924,0.2033600000000002,0.22863999999999995,0.0,-0.2849999999999999,0.33499999999999996,0.01868000000000003,-0.21239999999999992,-0.15600000000000003,1742237456.640383
-0.08999999999999997,0.655,0.1299999999999999,-0.11181999999999992,0.23682000000000003,-0.11414000000000002,-0.18500000000000005,-0.43500000000000005,0.49,0.02855999999999992,-0.043460000000000054,-0.22899999999999998,1742237456.7543948
0.07499999999999996,0.4099999999999999,0.04499999999999993,0.048579999999999846,0.03905999999999987,-0.26502000000000003,-0.245,-0.545,0.31499999999999995,0.16822000000000004,0.22436000000000011,-0.08287999999999995,1742237456.8716118
0.18999999999999995,0.20500000000000007,0.18500000000000005,0.06678000000000006,-0.16161999999999999,-0.2153400000000001,-0.22999999999999998,-0.555,0.004999999999999893,0.04090000000000016,0.2805199999999999,0.11119999999999997,1742237456.991585
0.18999999999999995,0.06499999999999995,0.31000000000000005,-0.15649999999999997,-0.22938000000000003,-0.03808,-0.03500000000000003,-0.43500000000000005,-0.07999999999999996,0.011479999999999935,-0.02501999999999993,0.23473999999999995,1742237457.111112
0.014999999999999902,0.18500000000000005,0.48,-0.09105999999999992,-0.0700599999999999,0.2545200000000001,0.07499999999999996,-0.28,0.08000000000000007,-0.11131999999999997,-0.20386000000000004,0.09033999999999986,1742237457.210316
-0.14,0.635,0.395,-0.04736000000000007,0.11146000000000011,0.33142000000000005,0.040000000000000036,-0.26,0.32000000000000006,-0.012580000000000036,-0.29444000000000004,-0.10155999999999998,1742237457.3328068
-0.125,0.6499999999999999,0.11499999999999999,-0.28174,0.19788000000000006,-0.09448000000000001,-0.22499999999999998,-0.44500000000000006,0.3900000000000001,0.09959999999999991,-0.04310000000000003,-0.21948,1742237457.444178
0.010000000000000009,0.5350000000000001,-0.05500000000000005,0.054319999999999924,0.09251999999999994,-0.23827999999999994,-0.275,-0.535,0.3799999999999999,0.2218,0.18713999999999986,-0.06323999999999996,1742237457.565221
0.125,0.30499999999999994,0.07499999999999996,0.21777999999999986,-0.10474000000000006,-0.23815999999999993,-0.27,-0.635,-0.05500000000000005,0.14781999999999984,0.25,0.12011999999999978,1742237457.667991
0.19999999999999996,0.10499999999999998,0.2549999999999999,-0.058719999999999994,-0.29601999999999995,-0.13391999999999993,-0.10999999999999999,-0.485,-0.14,-0.007200000000000095,-0.021240000000000037,0.25317999999999996,1742237457.780514
-0.03500000000000003,0.26,0.41500000000000004,-0.12634,-0.11108000000000007,0.1875,0.08000000000000007,-0.29499999999999993,0.030000000000000027,-0.10644000000000009,-0.2524400000000001,0.12378,1742237457.9073331
-0.125,0.6600000000000001,0.395,-0.028799999999999937,0.19726,0.34826,0.08499999999999996,-0.21999999999999997,0.2849999999999999,-0.07799999999999996,-0.2634200000000001,-0.04418,1742237458.008373
-0.09999999999999998,0.72,0.07499999999999996,-0.33520000000000005,0.21204,-0.054200000000000026,-0.17999999999999994,-0.405,0.3900000000000001,0.018440000000000012,0.006340000000000012,-0.21508000000000005,1742237458.124141
0.050000000000000044,0.5049999999999999,-0.16000000000000003,0.09888000000000008,0.043460000000000054,-0.281,-0.25,-0.585,0.30499999999999994,0.03956000000000004,0.17042000000000002,-0.10729999999999995,1742237458.245468
0.16500000000000004,0.28,0.07000000000000006,0.17724000000000006,-0.11499999999999999,-0.20972000000000002,-0.17500000000000004,-0.56,0.1499999999999999,0.038939999999999975,0.28466000000000014,0.046640000000000015,1742237458.3503191
0.2250000000000001,0.15500000000000003,0.22999999999999998,-0.1583199999999999,-0.25464,0.010620000000000074,-0.0050000000000000044,-0.42500000000000004,0.004999999999999893,0.13770000000000016,0.07433999999999985,0.2448800000000002,1742237458.464187
0.020000000000000018,0.42500000000000004,0.385,-0.14415999999999995,-0.08665999999999996,0.17420000000000013,0.05499999999999994,-0.375,0.08000000000000007,-0.10839999999999994,-0.22120000000000006,0.11426000000000003,1742237458.583285
-0.040000000000000036,0.52,0.19999999999999996,-0.035519999999999996,0.1334200000000001,0.23986000000000018,0.07499999999999996,-0.24,0.2650000000000001,0.07347999999999999,-0.25158,-0.05065999999999993,1742237458.702425
-0.11499999999999999,0.685,0.06499999999999995,0.15477999999999992,0.26892000000000005,0.0836199999999998,-0.19500000000000006,-0.5,0.3500000000000001,0.01990000000000003,0.03735999999999984,-0.23303999999999991,1742237458.809028
0.0,0.56,0.07499999999999996,0.06922000000000006,0.09007999999999994,-0.21020000000000005,-0.255,-0.605,0.33000000000000007,0.09777999999999998,0.2302200000000001,-0.11572000000000005,1742237458.922539
0.125,0.3400000000000001,0.05499999999999994,0.15905999999999998,0.020259999999999945,-0.22448,-0.15000000000000002,-0.585,0.1299999999999999,0.08654000000000006,0.2697799999999999,0.0042800000000000615,1742237459.034177
0.21500000000000008,0.20999999999999996,0.2250000000000001,-0.048820000000000086,-0.21789999999999998,-0.14124000000000003,-0.06499999999999995,-0.5,0.020000000000000018,0.04150000000000009,0.14124000000000003,0.21801999999999988,1742237459.149452
0.1200000000000001,0.18500000000000005,0.30499999999999994,-0.14136000000000004,-0.17247999999999997,0.07690000000000019,0.1100000000000001,-0.36,-0.020000000000000018,0.02075999999999989,-0.0625,0.2192400000000001,1742237459.265373
-0.08999999999999997,0.5249999999999999,0.43999999999999995,0.04283999999999999,0.023679999999999923,0.31714,0.17999999999999994,-0.235,0.17999999999999994,-0.042120000000000046,-0.34362000000000004,0.0023200000000000998,1742237459.376221
-0.06499999999999995,0.585,0.3400000000000001,-0.04382000000000008,0.27674,0.10694000000000004,-0.050000000000000044,-0.36,0.385,-0.017080000000000095,-0.13868000000000003,-0.20799999999999996,1742237459.490404
0.004999999999999893,0.5899999999999999,0.1299999999999999,-0.051019999999999954,0.22668,-0.15870000000000006,-0.12,-0.45999999999999996,0.4750000000000001,-0.008919999999999928,0.12438000000000016,-0.17468000000000006,1742237459.607339
0.14500000000000002,0.385,0.04499999999999993,0.010140000000000038,0.005619999999999958,-0.2681800000000001,-0.09499999999999997,-0.565,0.2749999999999999,0.05750000000000011,0.29346000000000005,-0.06140000000000001,1742237459.7183669
0.2250000000000001,0.18500000000000005,0.21999999999999997,-0.0039000000000000146,-0.22899999999999998,-0.15870000000000006,-0.03500000000000003,-0.55,0.11499999999999999,0.032480000000000064,0.18579999999999997,0.15198,1742237459.8320498
0.135,0.14000000000000012,0.365,0.04248000000000007,-0.22938000000000003,0.06835999999999998,0.10000000000000009,-0.375,0.05499999999999994,0.05235999999999996,-0.06323999999999996,0.19604,1742237459.946108
-0.025000000000000022,0.385,0.47,0.03222000000000014,-0.060659999999999936,0.31909999999999994,0.18500000000000005,-0.275,0.135,0.02442000000000011,-0.28370000000000006,0.018320000000000114,1742237460.0616782
-0.07499999999999996,0.56,0.43999999999999995,-0.03382000000000007,0.24571999999999994,0.14647999999999994,0.10499999999999998,-0.30000000000000004,0.28,0.10777999999999999,-0.12194000000000005,-0.14037999999999995,1742237460.1742349
0.050000000000000044,0.5150000000000001,0.30000000000000004,-0.06835999999999998,0.2513399999999999,-0.07044000000000006,-0.020000000000000018,-0.385,0.5350000000000001,-0.11499999999999999,0.10206000000000004,-0.11658000000000002,1742237460.289369
0.15500000000000003,0.49,0.15999999999999992,-0.09498000000000006,0.15063999999999989,-0.25098,-0.05500000000000005,-0.475,0.2849999999999999,0.01208000000000009,0.31213999999999986,-0.11021999999999998,1742237460.402227
0.2450000000000001,0.24,0.1200000000000001,0.03917999999999999,-0.13781999999999994,-0.19738,-0.030000000000000027,-0.59,0.1100000000000001,0.035880000000000134,0.19457999999999998,0.03503999999999996,1742237460.526696
0.2450000000000001,0.040000000000000036,0.32499999999999996,0.04968000000000017,-0.25573999999999997,-0.013919999999999932,0.08000000000000007,-0.41500000000000004,0.07000000000000006,-0.06872,0.04064000000000001,0.21338000000000013,1742237460.630166
0.10000000000000009,0.14000000000000012,0.365,-0.03295999999999999,-0.31848,0.24146,0.1299999999999999,-0.3400000000000001,0.14500000000000002,0.13061999999999996,-0.31079999999999997,0.15124000000000004,1742237460.747353
-0.17999999999999994,0.4650000000000001,0.6499999999999999,0.06359999999999988,0.17357999999999985,0.38281999999999994,0.07499999999999996,-0.22499999999999998,0.355,0.00024000000000001798,-0.33142000000000005,-0.04858000000000007,1742237460.862568
0.014999999999999902,0.53,0.395,-0.0736,0.2912600000000001,-0.0393,-0.04500000000000004,-0.41500000000000004,0.49,-0.04503999999999997,0.06030000000000002,-0.24268000000000012,1742237460.9840891
0.1299999999999999,0.3999999999999999,0.17500000000000004,-0.16822000000000004,0.15661999999999998,-0.1925,-0.07000000000000006,-0.54,0.395,0.04625999999999997,0.21911999999999998,-0.16224000000000005,1742237461.086242
0.19999999999999996,0.27,0.18500000000000005,-0.04798000000000002,-0.14794000000000007,-0.19055999999999995,-0.015000000000000013,-0.52,0.2250000000000001,0.07275999999999994,0.19190000000000018,0.027839999999999865,1742237461.200154
0.20500000000000007,0.1299999999999999,0.29499999999999993,-0.06541999999999992,-0.2976,-0.07934000000000008,0.050000000000000044,-0.41999999999999993,0.08000000000000007,0.15076,-0.05958000000000008,0.20984000000000003,1742237461.314152
-0.07499999999999996,0.25,0.5350000000000001,-0.028079999999999994,-0.30077999999999994,0.20886000000000005,0.135,-0.29499999999999993,0.17999999999999994,0.0611600000000001,-0.2743,0.11816000000000004,1742237461.428146
-0.06499999999999995,0.3400000000000001,0.45999999999999996,-0.1483199999999999,0.2413399999999999,0.15563999999999978,0.08499999999999996,-0.21999999999999997,0.355,-0.03320000000000001,-0.27403999999999995,-0.09863999999999995,1742237461.544033
0.03499999999999992,0.5249999999999999,0.31000000000000005,-0.14513999999999994,0.27246000000000015,0.010000000000000009,-0.10499999999999998,-0.44999999999999996,0.3799999999999999,0.018059999999999965,0.06567999999999996,-0.24475999999999998,1742237461.662057
0.1200000000000001,0.565,0.08000000000000007,-0.07031999999999994,0.11755999999999989,-0.22486000000000006,-0.125,-0.575,0.2650000000000001,0.07508000000000004,0.18432000000000004,-0.1420800000000001,1742237461.771842
0.20999999999999996,0.2749999999999999,0.11499999999999999,0.016960000000000086,-0.09887999999999997,-0.21984000000000004,-0.11499999999999999,-0.57,0.16999999999999993,0.05383999999999989,0.1716399999999998,0.03161999999999998,1742237461.88406
0.24,0.14000000000000012,0.27,-0.0024400000000001087,-0.2472000000000001,-0.030399999999999983,-0.050000000000000044,-0.5,0.07499999999999996,0.06128,0.11743999999999999,0.17872,1742237462.004769
0.050000000000000044,0.29000000000000004,0.355,0.0611600000000001,-0.3823199999999999,0.23583999999999983,0.10499999999999998,-0.35,0.020000000000000018,0.00011999999999989797,-0.21618000000000004,0.18432000000000004,1742237462.124606
-0.07000000000000006,0.3900000000000001,0.4849999999999999,-0.10986000000000007,0.14392000000000005,0.21911999999999998,0.07499999999999996,-0.2849999999999999,0.25,-0.027220000000000022,-0.35302,0.011840000000000073,1742237462.226151
-0.015000000000000013,0.5800000000000001,0.31000000000000005,-0.29052,0.30188000000000015,-0.04310000000000003,-0.09999999999999998,-0.36,0.3799999999999999,-0.020019999999999927,-0.06701999999999997,-0.24791999999999992,1742237462.344843
0.1200000000000001,0.5699999999999998,0.08000000000000007,-0.09948000000000001,0.21204,-0.21765999999999996,-0.22999999999999998,-0.51,0.41999999999999993,0.05809999999999982,0.17286000000000024,-0.17700000000000005,1742237462.4654138
0.20500000000000007,0.29000000000000004,0.06000000000000005,0.08996000000000004,-0.11339999999999995,-0.23608000000000007,-0.17500000000000004,-0.51,0.2250000000000001,0.16161999999999987,0.2906399999999998,0.03516000000000008,1742237462.570098
0.21999999999999997,0.1100000000000001,0.26,0.056519999999999904,-0.31262,-0.007440000000000002,0.06000000000000005,-0.515,-0.09499999999999997,0.18774000000000002,0.12231999999999998,0.22876000000000007,1742237462.6820748
0.04499999999999993,0.345,0.365,0.017819999999999947,-0.17381999999999997,0.28894,0.14000000000000012,-0.345,-0.0050000000000000044,0.05711999999999984,-0.26246,0.13817999999999997,1742237462.803016
-0.020000000000000018,0.52,0.48,-0.010619999999999963,0.02442000000000011,0.17920000000000003,0.040000000000000036,-0.35,0.23499999999999988,-0.06568000000000007,-0.26624000000000003,-0.06541999999999992,1742237462.923108
-0.025000000000000022,0.47,0.3999999999999999,-0.10777999999999999,0.3711,-0.02403999999999995,-0.11499999999999999,-0.48,0.385,-0.07374000000000003,0.016599999999999948,-0.18786000000000003,1742237463.024267
0.14000000000000012,0.5049999999999999,0.09499999999999997,-0.05712000000000006,0.26550000000000007,-0.14844000000000002,-0.030000000000000027,-0.55,0.2650000000000001,0.054319999999999924,0.23120000000000007,-0.12634,1742237463.147188
0.24,0.26,0.040000000000000036,-0.08472000000000002,-0.16210000000000002,-0.20201999999999998,-0.07999999999999996,-0.655,0.1100000000000001,0.04188000000000014,0.21361999999999992,0.05688000000000004,1742237463.252081
0.19500000000000006,0.2549999999999999,0.23499999999999988,-0.0502999999999999,-0.34046,0.0043999999999999595,0.030000000000000027,-0.43500000000000005,-0.04500000000000004,0.02442000000000011,-0.032220000000000026,0.21679999999999988,1742237463.36616
0.02499999999999991,0.3799999999999999,0.3999999999999999,0.01537999999999995,-0.22718000000000005,0.2657400000000001,0.09499999999999997,-0.32000000000000006,0.05499999999999994,-0.017340000000000022,-0.25122,0.11047999999999991,1742237463.486847
-0.07499999999999996,0.5350000000000001,0.47,-0.05589999999999995,0.20300000000000007,0.2292400000000001,0.09000000000000008,-0.2849999999999999,0.24,-0.07531999999999994,-0.30872,-0.05553999999999992,1742237463.59423
0.004999999999999893,0.5800000000000001,0.26,-0.06372,0.3794000000000002,0.028200000000000003,-0.09999999999999998,-0.4650000000000001,0.43999999999999995,-0.09887999999999997,0.044440000000000035,-0.2279,1742237463.708201
0.09000000000000008,0.5150000000000001,0.09499999999999997,-0.009039999999999937,0.1816399999999998,-0.21765999999999996,-0.13,-0.56,0.3599999999999999,0.04394000000000009,0.21692,-0.08826,1742237463.834608
0.20500000000000007,0.22999999999999998,0.1200000000000001,-0.07910000000000006,-0.1482,-0.23474000000000006,-0.030000000000000027,-0.565,0.17500000000000004,0.07225999999999999,0.26463999999999976,0.054440000000000044,1742237463.9441972
0.23499999999999988,0.18500000000000005,0.25,-0.054200000000000026,-0.31922000000000006,0.013419999999999987,0.08499999999999996,-0.44500000000000006,0.004999999999999893,0.06773999999999991,0.011840000000000073,0.17503999999999986,1742237464.049875
0.050000000000000044,0.33000000000000007,0.405,0.10583999999999993,-0.27966000000000013,0.30003999999999986,0.14000000000000012,-0.33000000000000007,0.08000000000000007,0.05164000000000013,-0.24512,0.11583999999999994,1742237464.1683462
-0.10499999999999998,0.43500000000000005,0.4950000000000001,0.03527999999999998,0.22448,0.29003999999999985,0.1100000000000001,-0.265,0.2450000000000001,0.00770000000000004,-0.26683999999999997,-0.07141999999999993,1742237464.2770822
0.010000000000000009,0.6000000000000001,0.27,-0.21165999999999996,0.37842,-0.10950000000000004,-0.10499999999999998,-0.43999999999999995,0.355,-0.17015999999999998,-0.07629999999999992,-0.29688000000000003,1742237464.391277
0.17500000000000004,0.43999999999999995,0.030000000000000027,-0.20008000000000004,0.043220000000000036,-0.2700199999999999,-0.17000000000000004,-0.405,0.405,0.14257999999999993,0.1411199999999999,-0.09374000000000005,1742237464.511431
0.20999999999999996,0.27,0.14000000000000012,-0.041139999999999954,-0.20153999999999994,-0.16198,-0.14,-0.59,0.1499999999999999,0.05333999999999994,0.2709999999999999,-0.03161999999999998,1742237464.625466
0.25,0.19500000000000006,0.2650000000000001,-0.052120000000000055,-0.21436,-0.0045199999999999685,-0.04500000000000004,-0.52,0.1100000000000001,0.05261999999999989,0.1212200000000001,0.1334200000000001,1742237464.732984
0.17999999999999994,0.3999999999999999,0.21999999999999997,-0.00782000000000005,-0.15894000000000008,0.18701999999999996,0.07499999999999996,-0.37,0.07499999999999996,-0.013799999999999923,-0.13,0.18286000000000002,1742237464.8471
0.010000000000000009,0.5150000000000001,0.395,0.16480000000000006,0.0684800000000001,0.30603999999999987,0.1100000000000001,-0.245,0.21500000000000008,-0.01648000000000005,-0.36548,0.014040000000000052,1742237464.968111
0.040000000000000036,0.5699999999999998,0.29499999999999993,-0.12646000000000002,0.3147,0.01537999999999995,-0.11499999999999999,-0.33499999999999996,0.3400000000000001,-0.04798000000000002,-0.20484000000000002,-0.22436,1742237465.088845
0.14000000000000012,0.4950000000000001,0.14000000000000012,-0.05908000000000002,0.16515999999999997,-0.20716,-0.275,-0.42999999999999994,0.41999999999999993,0.12548000000000004,0.04614000000000007,-0.08275999999999994,1742237465.193822
0.19999999999999996,0.32499999999999996,0.09499999999999997,-0.0039000000000000146,-0.05834000000000006,-0.19946000000000008,-0.245,-0.51,0.2749999999999999,0.04090000000000016,0.2583,-0.052000000000000046,1742237465.309175
0.25,0.18999999999999995,0.19500000000000006,-0.060799999999999965,-0.22584000000000004,-0.04944000000000004,-0.08499999999999996,-0.505,0.10000000000000009,-0.02391999999999994,0.15551999999999988,0.10766000000000009,1742237465.428283
0.21999999999999997,0.3900000000000001,0.20999999999999996,-0.04798000000000002,-0.13305999999999996,0.13294000000000006,0.06000000000000005,-0.355,0.05499999999999994,0.04188000000000014,-0.03479999999999994,0.19190000000000018,1742237465.53347
-0.0050000000000000044,0.44500000000000006,0.45500000000000007,0.11607999999999996,-0.10560000000000003,0.27526000000000006,0.04499999999999993,-0.31499999999999995,0.2250000000000001,-0.08960000000000001,-0.3259200000000001,0.05176000000000003,1742237465.649904
-0.06499999999999995,0.5550000000000002,0.4099999999999999,0.14808,0.3001800000000001,0.28881999999999985,-0.17000000000000004,-0.255,0.405,-0.05041999999999991,-0.30664,-0.11450000000000005,1742237465.7703931
0.07499999999999996,0.47,0.26,-0.07946000000000009,0.25732,-0.11339999999999995,-0.32499999999999996,-0.32499999999999996,0.44999999999999996,0.0638399999999999,0.10070000000000001,-0.17920000000000003,1742237465.8730931
0.18500000000000005,0.3599999999999999,0.1200000000000001,-0.07055999999999996,0.006099999999999994,-0.19544000000000006,-0.22499999999999998,-0.52,0.22999999999999998,0.3306800000000001,0.1691800000000001,0.07933999999999997,1742237465.986972
0.24,0.20500000000000007,0.17999999999999994,-0.12084000000000006,-0.20350000000000001,-0.1373199999999999,-0.07499999999999996,-0.505,0.014999999999999902,0.005120000000000013,0.25538000000000016,0.11803999999999992,1742237466.10638
0.16500000000000004,0.20999999999999996,0.29499999999999993,-0.11729999999999996,-0.21545999999999998,0.06469999999999998,0.02499999999999991,-0.37,0.020000000000000018,-0.05113999999999996,-0.06347999999999998,0.16527999999999987,1742237466.215082
-0.03500000000000003,0.355,0.49,-0.017340000000000022,-0.09239999999999993,0.2561,0.040000000000000036,-0.275,0.20500000000000007,-0.09399999999999997,-0.32933999999999997,-0.0006199999999999539,1742237466.329105
-0.07499999999999996,0.605,0.3500000000000001,-0.018179999999999974,0.3199400000000001,0.1790799999999999,-0.19500000000000006,-0.32000000000000006,0.395,-0.06286000000000003,-0.1799400000000001,-0.21020000000000005,1742237466.4449549
0.08499999999999996,0.51,0.14000000000000012,-0.12475999999999998,0.24170000000000003,-0.2229,-0.29000000000000004,-0.405,0.43500000000000005,0.15002000000000004,0.07996000000000003,-0.053100000000000036,1742237466.566362
0.21999999999999997,0.31499999999999995,0.05499999999999994,-0.03613999999999995,-0.05262,-0.20641999999999994,-0.22499999999999998,-0.57,0.11499999999999999,0.25268,0.38842,0.02624000000000004,1742237466.674593
0.23499999999999988,0.31499999999999995,0.19500000000000006,-0.16186,-0.27636000000000005,-0.10655999999999999,-0.050000000000000044,-0.495,-0.04500000000000004,0.11390000000000011,0.036619999999999875,0.23034,1742237466.790719
0.14000000000000012,0.2749999999999999,0.30000000000000004,0.07347999999999999,-0.28955999999999993,0.1348800000000001,0.05499999999999994,-0.3400000000000001,0.04499999999999993,-0.0042799999999999505,-0.21153999999999995,0.1189,1742237466.9106922
-0.030000000000000027,0.45999999999999996,0.42500000000000004,0.06188000000000016,0.14623999999999993,0.39159999999999995,0.010000000000000009,-0.31000000000000005,0.24,-0.1543,-0.3360599999999999,-0.08826,1742237467.0131142
-0.050000000000000044,0.6400000000000001,0.28,-0.15734000000000004,0.3468,0.07824000000000009,-0.22499999999999998,-0.38,0.42500000000000004,-0.14466,-0.10192000000000001,-0.2826000000000001,1742237467.127153
0.09499999999999997,0.565,0.050000000000000044,-0.12939999999999996,0.10620000000000007,-0.24218000000000006,-0.24,-0.44500000000000006,0.29000000000000004,0.26073999999999997,0.23670000000000013,-0.07446000000000008,1742237467.246243
0.19999999999999996,0.33000000000000007,0.07000000000000006,0.027839999999999865,-0.21326,-0.24170000000000003,-0.20999999999999996,-0.595,-0.03500000000000003,0.3907400000000001,0.32728,0.10046,1742237467.355006
0.2450000000000001,0.135,0.23499999999999988,-0.03491999999999995,-0.3321600000000001,-0.06884000000000001,-0.010000000000000009,-0.525,-0.10499999999999998,0.06884000000000001,-0.08398000000000005,0.20666000000000007,1742237467.469109
0.09000000000000008,0.395,0.3700000000000001,0.08373999999999993,-0.08544000000000007,0.31788000000000016,0.040000000000000036,-0.385,0.08499999999999996,-0.12684000000000006,-0.23694000000000004,0.08716000000000013,1742237467.586238
-0.03500000000000003,0.5049999999999999,0.41999999999999993,-0.03272000000000008,0.12098000000000009,0.1926199999999998,0.050000000000000044,-0.30000000000000004,0.19500000000000006,0.005239999999999911,-0.2581800000000001,-0.057740000000000014,1742237467.706048
0.020000000000000018,0.55,0.27,-0.06053999999999993,0.25122,0.0034199999999999786,-0.18500000000000005,-0.52,0.31499999999999995,-0.18347999999999998,0.03516000000000008,-0.26403999999999994,1742237467.813959
0.14500000000000002,0.44500000000000006,0.1200000000000001,-0.06396000000000002,0.0895999999999999,-0.21263999999999994,-0.21499999999999997,-0.515,0.21999999999999997,0.1457599999999999,0.26722,-0.12927999999999995,1742237467.926528
0.20999999999999996,0.33000000000000007,0.10000000000000009,-0.07068000000000008,-0.11768000000000012,-0.19177999999999995,-0.14500000000000002,-0.555,0.07499999999999996,0.14892000000000016,0.34716000000000014,-0.0050000000000000044,1742237468.046367
0.21999999999999997,0.31000000000000005,0.2450000000000001,-0.08789999999999998,-0.22131999999999996,-0.12658000000000003,0.0,-0.505,-0.040000000000000036,0.04747999999999997,-0.02746000000000004,0.21398000000000006,1742237468.165285
0.15500000000000003,0.16999999999999993,0.32499999999999996,0.03186,-0.17431999999999992,0.21350000000000002,0.050000000000000044,-0.4,0.09499999999999997,-0.06286000000000003,-0.26270000000000004,0.12414000000000014,1742237468.266933
-0.10999999999999999,0.41500000000000004,0.5049999999999999,0.33338,-0.12158000000000002,0.5455399999999999,0.040000000000000036,-0.3400000000000001,0.21999999999999997,-0.07763999999999993,-0.24122,-0.06934000000000007,1742237468.381003
-0.06000000000000005,0.395,0.43999999999999995,-0.23450000000000004,0.40966000000000014,-0.03979999999999995,-0.15500000000000003,-0.44999999999999996,0.33499999999999996,-0.009639999999999982,0.024660000000000126,-0.17236000000000007,1742237468.495092
0.1200000000000001,0.41999999999999993,0.21500000000000008,-0.20665999999999995,0.23205999999999993,-0.18396,-0.17500000000000004,-0.535,0.2549999999999999,-0.03382000000000007,0.24609999999999999,-0.20653999999999995,1742237468.6111228
0.21999999999999997,0.345,0.10000000000000009,-0.21031999999999995,-0.1483199999999999,-0.2670799999999999,-0.10499999999999998,-0.505,0.08000000000000007,0.08704,0.24048000000000003,0.03820000000000001,1742237468.730034
0.21999999999999997,0.19999999999999996,0.2749999999999999,-0.024419999999999997,-0.34620000000000006,-0.0041599999999999415,-0.025000000000000022,-0.485,-0.020000000000000018,0.16283999999999987,-0.09863999999999995,0.21618000000000004,1742237468.852662
0.020000000000000018,0.3400000000000001,0.42999999999999994,0.10107999999999984,-0.2993199999999999,0.29162,0.07000000000000006,-0.3400000000000001,0.1299999999999999,-0.07579999999999998,-0.31579999999999997,0.10792000000000002,1742237468.950954
-0.08999999999999997,0.45999999999999996,0.43500000000000005,-0.042120000000000046,0.31286000000000014,0.20763999999999982,0.010000000000000009,-0.32000000000000006,0.24,-0.15760000000000007,-0.17224000000000006,-0.19055999999999995,1742237469.066342
0.040000000000000036,0.5550000000000002,0.19500000000000006,-0.19823999999999997,0.4042999999999999,-0.0502999999999999,-0.235,-0.45500000000000007,0.385,-0.04515999999999998,0.10546000000000011,-0.23572000000000004,1742237469.1790972
0.16999999999999993,0.47,0.06499999999999995,-0.11194000000000004,0.042240000000000055,-0.23194000000000004,-0.21999999999999997,-0.535,0.25,0.1408600000000002,0.29759999999999986,-0.06481999999999999,1742237469.293008
0.21999999999999997,0.29499999999999993,0.1499999999999999,-0.02942,-0.25903999999999994,-0.15722000000000003,-0.07499999999999996,-0.515,0.010000000000000009,0.2198399999999998,0.09704000000000002,0.22399999999999998,1742237469.40692
0.15999999999999992,0.20500000000000007,0.2849999999999999,0.00011999999999989797,-0.34338,0.030019999999999936,0.06000000000000005,-0.345,0.010000000000000009,0.020999999999999908,-0.21984000000000004,0.18603999999999998,1742237469.533812
-0.040000000000000036,0.3500000000000001,0.4950000000000001,0.006599999999999939,-0.015619999999999967,0.2701399999999998,0.02499999999999991,-0.32000000000000006,0.17500000000000004,-0.10729999999999995,-0.36351999999999995,-0.035640000000000005,1742237469.635034
-0.050000000000000044,0.4849999999999999,0.355,-0.04271999999999998,0.29566000000000003,0.17711999999999994,-0.18500000000000005,-0.32000000000000006,0.43500000000000005,-0.11462000000000006,-0.13366,-0.2976,1742237469.749126
0.06499999999999995,0.565,0.15500000000000003,-0.10411999999999999,0.25146,-0.11120000000000008,-0.275,-0.47,0.32000000000000006,0.2036199999999999,0.24218000000000006,-0.15796,1742237469.873525
0.18500000000000005,0.3900000000000001,0.08499999999999996,-0.06434000000000006,-0.04370000000000007,-0.24134,-0.235,-0.625,0.09499999999999997,0.09373999999999993,0.33763999999999994,-0.021720000000000073,1742237469.9848142
0.21999999999999997,0.21500000000000008,0.21999999999999997,-0.048820000000000086,-0.22718000000000005,-0.135,-0.07000000000000006,-0.485,-0.020000000000000018,0.18103999999999987,0.0013400000000001189,0.31226,1742237470.090952
0.1200000000000001,0.33499999999999996,0.32000000000000006,0.016960000000000086,-0.20922000000000007,0.16881999999999997,0.06000000000000005,-0.33000000000000007,0.08000000000000007,-0.033320000000000016,-0.34753999999999996,0.1299999999999999,1742237470.206353
-0.04500000000000004,0.49,0.43999999999999995,0.046499999999999986,0.06896000000000013,0.2817400000000001,-0.030000000000000027,-0.28,0.3400000000000001,-0.22302,-0.31104,-0.13672000000000006,1742237470.319097
0.02499999999999991,0.635,0.2250000000000001,-0.11303999999999992,0.21031999999999984,-0.03283999999999998,-0.29000000000000004,-0.45999999999999996,0.4099999999999999,-0.06910000000000005,0.059819999999999984,-0.3369200000000001,1742237470.4330082
0.14000000000000012,0.5249999999999999,0.07499999999999996,-0.06872,0.12059999999999982,-0.19835999999999998,-0.37,-0.505,0.4099999999999999,0.014520000000000088,0.34729999999999994,-0.16906,1742237470.5512462
0.21500000000000008,0.29499999999999993,0.09499999999999997,0.019160000000000066,-0.14100000000000001,-0.17346000000000006,-0.04500000000000004,-0.43999999999999995,0.14000000000000012,0.34753999999999996,0.26561999999999997,0.20763999999999982,1742237470.670919
0.20500000000000007,0.135,0.2549999999999999,0.05615999999999999,-0.35462000000000005,0.012580000000000036,0.10000000000000009,-0.38,0.0,0.14159999999999995,-0.09620000000000006,0.19446000000000008,1742237470.774818
0.020000000000000018,0.42500000000000004,0.405,0.08325999999999989,-0.039059999999999984,0.27796,0.09499999999999997,-0.33000000000000007,0.135,-0.019540000000000002,-0.3615799999999999,0.006720000000000059,1742237470.888898
-0.07000000000000006,0.4950000000000001,0.3999999999999999,-0.054200000000000026,0.2801600000000002,0.17003999999999997,-0.17500000000000004,-0.38,0.4099999999999999,-0.14758000000000004,-0.23608000000000007,-0.22253999999999996,1742237471.0064168
0.08499999999999996,0.5150000000000001,0.20500000000000007,-0.11560000000000004,0.32153999999999994,-0.05810000000000004,-0.245,-0.345,0.48,0.09388000000000019,0.19116,-0.17872,1742237471.125414
0.19999999999999996,0.42500000000000004,0.06499999999999995,-0.08311999999999997,0.025140000000000162,-0.19422000000000006,-0.17500000000000004,-0.51,0.20999999999999996,0.13392000000000004,0.3488800000000001,-0.07238,1742237471.231841
0.23499999999999988,0.2250000000000001,0.16500000000000004,-0.07103999999999999,-0.26416000000000006,-0.13231999999999988,-0.07999999999999996,-0.535,0.03499999999999992,0.15173999999999999,0.12414000000000014,0.21618000000000004,1742237471.344727
0.15999999999999992,0.2450000000000001,0.29499999999999993,0.04200000000000004,-0.32422000000000006,0.12940000000000018,0.06000000000000005,-0.4,-0.010000000000000009,0.11474000000000006,-0.24450000000000005,0.20092,1742237471.458859
-0.07499999999999996,0.375,0.4950000000000001,0.12573999999999996,-0.08410000000000006,0.34498000000000006,0.06000000000000005,-0.33000000000000007,0.18500000000000005,-0.06420000000000003,-0.36792,-0.022580000000000044,1742237471.5729122
-0.125,0.395,0.4650000000000001,-0.10718000000000005,0.36461999999999994,0.0968,-0.125,-0.375,0.405,-0.027959999999999985,-0.12902000000000002,-0.17200000000000004,1742237471.689898
0.09000000000000008,0.565,0.14500000000000002,-0.12536000000000003,0.4156399999999998,-0.0736,-0.17999999999999994,-0.52,0.345,0.0007399999999999629,0.22070000000000012,-0.21302,1742237471.810435
0.20999999999999996,0.3599999999999999,0.07499999999999996,-0.11402000000000001,-0.10474000000000006,-0.23851999999999995,-0.10499999999999998,-0.565,0.17500000000000004,0.12585999999999986,0.2832000000000001,0.015139999999999931,1742237471.91483
0.21999999999999997,0.21999999999999997,0.21999999999999997,-0.058599999999999985,-0.31799999999999995,-0.09510000000000007,-0.030000000000000027,-0.57,0.020000000000000018,0.07469999999999999,0.0684800000000001,0.20055999999999985,1742237472.028695
0.03499999999999992,0.27,0.3400000000000001,0.07385999999999981,-0.3553399999999999,0.20263999999999993,0.10000000000000009,-0.2849999999999999,0.06499999999999995,0.016599999999999948,-0.26513999999999993,0.19799999999999995,1742237472.1455538
-0.12,0.30000000000000004,0.54,0.03869999999999996,0.0650599999999999,0.32275999999999994,0.020000000000000018,-0.26,0.27,-0.07898000000000005,-0.3772000000000001,-0.05944000000000005,1742237472.265138
-0.07499999999999996,0.405,0.3999999999999999,-0.28637999999999997,0.41418,0.014899999999999913,-0.21999999999999997,-0.36,0.47,-0.10144000000000009,-0.16613999999999995,-0.2835599999999999,1742237472.37099
0.10000000000000009,0.575,0.050000000000000044,-0.08618000000000003,0.2341399999999998,-0.19274000000000002,-0.25,-0.475,0.41500000000000004,0.16590000000000016,0.27576,-0.13648000000000005,1742237472.49175
0.20999999999999996,0.2849999999999999,0.05499999999999994,-0.0035399999999999876,-0.14624000000000004,-0.2158199999999999,-0.16000000000000003,-0.595,0.14500000000000002,0.13318000000000008,0.42896,0.0006200000000000649,1742237472.611233
0.21500000000000008,0.18999999999999995,0.21500000000000008,-0.016240000000000032,-0.37170000000000003,-0.01085999999999998,0.020000000000000018,-0.48,-0.025000000000000022,0.09899999999999998,0.06285999999999992,0.2515799999999999,1742237472.71277
0.0,0.28,0.45500000000000007,0.06567999999999996,-0.26903999999999995,0.23619999999999997,0.11499999999999999,-0.275,0.06000000000000005,0.06651999999999991,-0.30113999999999996,0.1212200000000001,1742237472.826712
-0.135,0.3799999999999999,0.5350000000000001,-0.06384000000000001,0.16881999999999997,0.22082000000000002,-0.03500000000000003,-0.255,0.31000000000000005,-0.1174400000000001,-0.37732,-0.13403999999999994,1742237472.94694
0.010000000000000009,0.6000000000000001,0.23499999999999988,-0.31018,0.3931800000000001,-0.10803999999999991,-0.17000000000000004,-0.38,0.44999999999999996,0.1290199999999999,0.054319999999999924,-0.20568000000000008,1742237473.066529
0.1299999999999999,0.44999999999999996,0.02499999999999991,-0.03355999999999992,0.05944000000000016,-0.22010000000000007,-0.17999999999999994,-0.59,0.22999999999999998,0.15748000000000006,0.28869999999999996,-0.0968,1742237473.16886
0.21999999999999997,0.23499999999999988,0.08499999999999996,-0.040159999999999973,-0.19165999999999994,-0.12866,-0.08999999999999997,-0.585,0.0,0.13318000000000008,0.21900000000000008,0.11426000000000003,1742237473.282769
0.17500000000000004,0.19500000000000006,0.2549999999999999,-0.0050000000000000044,-0.36962000000000006,0.04394000000000009,0.014999999999999902,-0.41500000000000004,-0.050000000000000044,0.022460000000000147,-0.15161999999999998,0.22058,1742237473.396768
-0.050000000000000044,0.345,0.4750000000000001,0.10572000000000004,-0.07763999999999993,0.3628,0.08000000000000007,-0.27,0.1499999999999999,-0.07275999999999994,-0.30444000000000004,0.05333999999999994,1742237473.511987
-0.13,0.3999999999999999,0.51,-0.035760000000000014,0.29003999999999985,0.17199999999999993,-0.10499999999999998,-0.28,0.33499999999999996,-0.13818000000000008,-0.23009999999999997,-0.28296,1742237473.631767
0.020000000000000018,0.5699999999999998,0.15999999999999992,-0.16712000000000005,0.30821999999999994,-0.11815999999999993,-0.30499999999999994,-0.52,0.395,0.2510999999999999,0.20043999999999995,-0.10155999999999998,1742237473.75184
0.14500000000000002,0.395,0.04499999999999993,-0.10021999999999998,0.05738000000000021,-0.21044000000000007,-0.15500000000000003,-0.595,0.09000000000000008,0.029059999999999864,0.3692599999999999,-0.03834000000000004,1742237473.852866
-0.040000000000000036,0.45999999999999996,0.6000000000000001,-0.03479999999999994,0.21007999999999982,0.14990000000000014,0.05499999999999994,-0.20499999999999996,0.17500000000000004,0.013539999999999885,-0.07665999999999995,0.23438000000000003,1742222063.842508
0.040000000000000036,0.5249999999999999,0.20999999999999996,-0.05018,0.24449999999999994,-0.1224400000000001,0.1100000000000001,-0.10499999999999998,0.355,-0.021600000000000064,-0.28564,0.04370000000000007,1742222063.956592
0.15500000000000003,0.23499999999999988,0.09000000000000008,-0.017340000000000022,0.009160000000000057,-0.2158199999999999,-0.08499999999999996,-0.135,0.5550000000000002,0.035760000000000014,-0.18298000000000003,-0.1596599999999999,1742222064.076689
0.19500000000000006,0.010000000000000009,0.30499999999999994,0.05018000000000011,-0.22192,-0.11512,-0.18500000000000005,-0.35,0.6299999999999999,0.052000000000000046,0.12414000000000014,-0.2429199999999999,1742222064.184523
0.06000000000000005,0.040000000000000036,0.45500000000000007,-0.11462000000000006,-0.23462000000000005,0.11474000000000006,-0.21499999999999997,-0.495,0.355,0.13817999999999997,0.3306800000000001,-0.07591999999999999,1742222064.2985752
-0.05500000000000005,0.32000000000000006,0.73,0.05455999999999994,-0.0030599999999999516,0.22742000000000018,-0.14,-0.485,0.17500000000000004,0.021600000000000064,0.14538000000000006,0.1949400000000001,1742222064.4130602
-0.03500000000000003,0.49,0.51,-0.062019999999999964,0.24547999999999992,0.13232,0.07000000000000006,-0.20999999999999996,0.16999999999999993,-0.02525999999999995,-0.09045999999999998,0.23072000000000004,1742222064.5265
0.010000000000000009,0.5150000000000001,0.2450000000000001,-0.031240000000000046,0.21545999999999998,-0.14891999999999994,0.1200000000000001,-0.125,0.33499999999999996,-0.03465999999999991,-0.30164,0.06884000000000001,1742222064.640552
0.135,0.2450000000000001,0.1200000000000001,0.025140000000000162,-0.021480000000000055,-0.21508000000000005,-0.040000000000000036,-0.14500000000000002,0.49,0.03370000000000006,-0.21094000000000002,-0.15612000000000004,1742222064.7547362
0.19500000000000006,0.050000000000000044,0.25,0.021479999999999944,-0.21739999999999993,-0.08775999999999995,-0.19999999999999996,-0.345,0.665,0.018059999999999965,-0.012580000000000036,-0.23278,1742222064.87297
0.050000000000000044,0.06000000000000005,0.48,-0.08496000000000004,-0.23914000000000002,0.11670000000000003,-0.24,-0.44500000000000006,0.45500000000000007,0.11743999999999999,0.33166000000000007,-0.13488,1742222064.9825191
-0.04500000000000004,0.31499999999999995,0.665,-0.023679999999999923,-0.01990000000000003,0.20031999999999983,-0.16000000000000003,-0.535,0.19500000000000006,0.1038800000000002,0.20276000000000005,0.19653999999999994,1742222065.096729
-0.020000000000000018,0.45999999999999996,0.54,-0.002080000000000082,0.19213999999999998,0.10620000000000007,0.06000000000000005,-0.26,0.1499999999999999,0.00878000000000001,0.011719999999999953,0.23536000000000024,1742222065.213126
0.030000000000000027,0.4950000000000001,0.30000000000000004,-0.035640000000000005,0.25805999999999996,-0.13648000000000005,0.11499999999999999,-0.14,0.19999999999999996,-0.017340000000000022,-0.27368000000000003,0.11376000000000008,1742222065.324713
0.16999999999999993,0.2450000000000001,0.07499999999999996,0.0354000000000001,0.027099999999999902,-0.23694000000000004,-0.040000000000000036,-0.050000000000000044,0.41500000000000004,0.05078000000000005,-0.34424,-0.12684000000000006,1742222065.4383109
0.18500000000000005,0.04499999999999993,0.26,0.006340000000000012,-0.23815999999999993,-0.11084000000000005,-0.19999999999999996,-0.385,0.78,0.013539999999999885,0.058720000000000105,-0.23229999999999995,1742222065.555825
0.06000000000000005,0.030000000000000027,0.42999999999999994,-0.09814,-0.2670799999999999,0.09349999999999992,-0.19500000000000006,-0.49,0.41500000000000004,0.1433199999999999,0.35266,-0.10424,1742222065.673182
-0.07999999999999996,0.2749999999999999,0.615,-0.021720000000000073,-0.06140000000000001,0.23938000000000015,-0.17999999999999994,-0.565,0.135,0.11925999999999992,0.1654,0.18309999999999982,1742222065.779516
-0.07499999999999996,0.4650000000000001,0.6400000000000001,-0.055299999999999905,0.18297999999999992,0.13074000000000008,0.03499999999999992,-0.265,0.08499999999999996,0.020999999999999908,-0.028799999999999937,0.23694000000000015,1742222065.893518
-0.0050000000000000044,0.5449999999999999,0.29499999999999993,-0.06835999999999998,0.30603999999999987,-0.10521999999999998,0.10000000000000009,-0.15500000000000003,0.2450000000000001,-0.019399999999999973,-0.3147000000000001,0.10095999999999994,1742222066.014175
0.15999999999999992,0.2650000000000001,0.08499999999999996,-0.07763999999999993,0.08409999999999984,-0.20811999999999997,-0.025000000000000022,-0.135,0.48,-0.06701999999999997,-0.37646,-0.15148000000000006,1742222066.121442
0.19999999999999996,0.09000000000000008,0.21500000000000008,0.027700000000000058,-0.20129999999999992,-0.13049999999999995,-0.21499999999999997,-0.245,0.71,0.03222000000000014,0.02648000000000006,-0.2735599999999999,1742222066.23539
0.10000000000000009,-0.03500000000000003,0.43500000000000005,-0.05822000000000005,-0.18128,0.022699999999999942,-0.355,-0.5,0.45999999999999996,0.27636000000000016,0.26317999999999997,-0.1691800000000001,1742222066.353298
-0.040000000000000036,0.135,0.6499999999999999,0.03968000000000016,-0.18053999999999992,0.2559800000000001,-0.21999999999999997,-0.595,0.1100000000000001,0.19103999999999988,0.16149999999999998,0.20178000000000007,1742222066.463634
-0.09999999999999998,0.5,0.685,-0.06787999999999994,0.20142000000000015,0.18420000000000014,0.030000000000000027,-0.265,0.09000000000000008,-0.05565999999999993,-0.07775999999999994,0.2746600000000001,1742222066.577556
0.020000000000000018,0.5550000000000002,0.23499999999999988,-0.01758000000000004,0.26526000000000005,-0.1435599999999999,0.07499999999999996,-0.12,0.29499999999999993,-0.09789999999999999,-0.3086,0.08251999999999993,1742222066.693516
0.16500000000000004,0.24,0.08000000000000007,0.009879999999999889,0.037599999999999856,-0.23046,-0.030000000000000027,-0.11499999999999999,0.45999999999999996,-0.03355999999999992,-0.2876000000000001,-0.14172000000000007,1742222066.812809
0.18999999999999995,0.0,0.25,0.018440000000000012,-0.25805999999999996,-0.11402000000000001,-0.405,-0.30499999999999994,0.655,0.07520000000000016,-0.05262,-0.3109200000000001,1742222066.919384
0.02499999999999991,-0.020000000000000018,0.5449999999999999,-0.06115999999999999,-0.29857999999999996,0.10631999999999997,-0.38,-0.62,0.395,0.31811999999999996,0.3111600000000001,-0.03320000000000001,1742222067.035746
-0.09499999999999997,0.2549999999999999,0.7450000000000001,0.016839999999999966,0.013419999999999987,0.2912600000000001,-0.15500000000000003,-0.525,0.07000000000000006,0.1360999999999999,0.13746000000000014,0.27722,1742222067.153568
-0.025000000000000022,0.6200000000000001,0.45999999999999996,-0.11402000000000001,0.3103,0.08153999999999995,0.09000000000000008,-0.21499999999999997,0.09499999999999997,-0.09251999999999994,-0.09741999999999995,0.20775999999999994,1742222067.2615108
0.09000000000000008,0.4750000000000001,0.16999999999999993,-0.06958000000000009,0.13793999999999995,-0.16260000000000008,0.07499999999999996,-0.13,0.33000000000000007,-0.13281999999999994,-0.29700000000000004,-0.0010999999999999899,1742222067.375581
0.15999999999999992,0.24,0.15999999999999992,0.008539999999999992,-0.06665999999999994,-0.22448,-0.13,-0.24,0.45999999999999996,-0.005240000000000022,-0.1925,-0.17381999999999997,1742222067.493278
0.18500000000000005,-0.0050000000000000044,0.32000000000000006,-0.04637999999999998,-0.24926000000000004,-0.07787999999999995,-0.31000000000000005,-0.42999999999999994,0.6299999999999999,0.17798000000000003,0.13978000000000002,-0.17370000000000008,1742222067.603534
0.014999999999999902,0.04499999999999993,0.5150000000000001,-0.09998000000000007,-0.20520000000000005,0.15650000000000008,-0.255,-0.62,0.21999999999999997,0.18359999999999999,0.35778,0.0012199999999999989,1742222067.717331
-0.11499999999999999,0.355,0.7050000000000001,0.09094000000000002,0.02185999999999999,0.2734400000000001,-0.08499999999999996,-0.475,0.040000000000000036,0.01195999999999997,0.10997999999999997,0.2440199999999999,1742222067.8333282
-0.05500000000000005,0.6600000000000001,0.365,-0.11474000000000006,0.36524,0.01770000000000005,0.09499999999999997,-0.17500000000000004,0.15500000000000003,-0.07141999999999993,-0.21594000000000002,0.16759999999999997,1742222067.952974
0.07499999999999996,0.385,0.1499999999999999,-0.011099999999999999,0.11021999999999998,-0.19410000000000005,0.004999999999999893,-0.15500000000000003,0.385,-0.03736000000000006,-0.3457,-0.06835999999999998,1742222068.059296
0.17999999999999994,0.18999999999999995,0.135,-0.04137999999999997,-0.09838000000000002,-0.17089999999999994,-0.18500000000000005,-0.32000000000000006,0.6099999999999999,0.022699999999999942,-0.05506,-0.19946000000000008,1742222068.1735098
0.16999999999999993,0.03499999999999992,0.21500000000000008,-0.25184000000000006,-0.24708000000000008,0.0041599999999999415,-0.22999999999999998,-0.38,0.5,0.19178000000000006,0.20422000000000007,-0.21948,1742222068.293845
-0.08999999999999997,0.355,0.71,0.00865999999999989,-0.04370000000000007,0.22204000000000002,-0.255,-0.68,0.125,0.14916000000000018,0.2712399999999999,0.09118000000000004,1742222068.401509
-0.015000000000000013,0.43500000000000005,0.53,-0.053100000000000036,0.2544000000000002,0.14257999999999993,-0.040000000000000036,-0.35,0.06000000000000005,0.0307599999999999,0.03210000000000002,0.2612399999999999,1742222068.5153332
0.020000000000000018,0.665,0.14500000000000002,-0.03370000000000006,0.20555999999999996,-0.16358000000000006,0.10499999999999998,-0.15500000000000003,0.20999999999999996,-0.08129999999999993,-0.3396,0.10474000000000006,1742222068.633375
0.14000000000000012,0.31000000000000005,0.03499999999999992,0.03833999999999982,-0.05041999999999991,-0.22474000000000005,-0.07999999999999996,-0.14500000000000002,0.51,-0.05589999999999995,-0.24708000000000008,-0.13281999999999994,1742222068.743328
0.17999999999999994,0.1100000000000001,0.25,-0.0037800000000000056,-0.2723399999999999,-0.06225999999999998,-0.25,-0.355,0.6299999999999999,0.0684800000000001,0.11729999999999996,-0.19910000000000005,1742222068.857437
0.08000000000000007,0.18999999999999995,0.31499999999999995,-0.09094000000000002,-0.17028,0.1667400000000001,-0.265,-0.55,0.29000000000000004,0.13573999999999997,0.38817999999999997,-0.08055999999999996,1742222068.973119
-0.10499999999999998,0.5150000000000001,0.8199999999999998,0.13746000000000014,0.0029200000000000337,0.18432000000000004,-0.10999999999999999,-0.5,0.09499999999999997,0.08203999999999989,0.13183999999999996,0.27171999999999996,1742222069.085376
-0.04500000000000004,0.5550000000000002,0.45999999999999996,-0.03370000000000006,0.28723999999999994,0.07238000000000011,0.09499999999999997,-0.235,0.09499999999999997,-0.019279999999999964,-0.14588,0.20311999999999997,1742222069.1994472
0.040000000000000036,0.51,0.135,-0.02415999999999996,0.1433199999999999,-0.19616,0.10000000000000009,-0.135,0.30499999999999994,-0.05896000000000001,-0.35486000000000006,0.033560000000000034,1742222069.313369
0.15500000000000003,0.2250000000000001,0.16500000000000004,0.058599999999999985,-0.09484000000000004,-0.21008000000000004,-0.15000000000000002,-0.22999999999999998,0.6200000000000001,-0.05798000000000003,-0.1643,-0.1925,1742222069.433173
0.21999999999999997,0.014999999999999902,0.2650000000000001,-0.044440000000000035,-0.24658000000000002,-0.07386000000000004,-0.22999999999999998,-0.4,0.6099999999999999,0.08227999999999991,0.14466,-0.22887999999999997,1742222069.541536
0.004999999999999893,0.11499999999999999,0.42500000000000004,-0.09741999999999995,-0.17834000000000005,0.2280199999999999,-0.26,-0.625,0.28,0.14757999999999982,0.35778,-0.03870000000000007,1742222069.655372
-0.135,0.345,0.7450000000000001,0.05003999999999986,0.01953999999999989,0.22986000000000018,-0.07999999999999996,-0.4650000000000001,0.16500000000000004,-0.022700000000000053,0.1308600000000002,0.26757999999999993,1742222069.773376
-0.04500000000000004,0.52,0.43999999999999995,-0.07311999999999996,0.2645200000000001,0.01855999999999991,0.14000000000000012,-0.135,0.17999999999999994,-0.07386000000000004,-0.12670000000000003,0.22828000000000004,1742222069.883386
0.050000000000000044,0.41500000000000004,0.19500000000000006,-0.09155999999999997,0.1679600000000001,-0.22887999999999997,0.11499999999999999,-0.05500000000000005,0.3900000000000001,-0.05455999999999994,-0.33775999999999995,0.03516000000000008,1742222069.997355
0.17999999999999994,0.18500000000000005,0.14500000000000002,0.03186,-0.0686,-0.23278,-0.12,-0.09499999999999997,0.6299999999999999,-0.0343,-0.1541800000000001,-0.2060599999999999,1742222070.116246
0.19999999999999996,0.0,0.32000000000000006,-0.032480000000000064,-0.24584000000000006,-0.025519999999999987,-0.21999999999999997,-0.28,0.6200000000000001,0.03233999999999981,0.21398000000000006,-0.30176000000000003,1742222070.225479
0.03499999999999992,0.14000000000000012,0.45500000000000007,-0.08141999999999994,-0.12854,0.2093600000000002,-0.18999999999999995,-0.52,0.375,0.20067999999999997,0.3177399999999999,-0.034540000000000015,1742222070.3394308
-0.08999999999999997,0.4099999999999999,0.635,0.05333999999999994,-0.018320000000000003,0.25903999999999994,-0.030000000000000027,-0.385,0.18500000000000005,0.13573999999999997,0.09533999999999998,0.18090000000000006,1742222070.45346
-0.06499999999999995,0.5899999999999999,0.44999999999999996,-0.03149999999999997,0.27222000000000013,0.04296000000000011,0.08499999999999996,-0.245,0.20999999999999996,0.08118000000000003,-0.23521999999999998,0.1816399999999998,1742222070.5673652
0.07000000000000006,0.375,0.18999999999999995,-0.03260000000000007,0.17053999999999991,-0.1754199999999999,0.040000000000000036,-0.135,0.3799999999999999,-0.013299999999999979,-0.41492000000000007,-0.00988,1742222070.681545
0.18999999999999995,0.20500000000000007,0.1299999999999999,-0.006720000000000059,-0.07898000000000005,-0.15722000000000003,-0.16500000000000004,-0.245,0.5899999999999999,0.02222000000000013,-0.08775999999999995,-0.22253999999999996,1742222070.795358
0.16999999999999993,0.09499999999999997,0.32000000000000006,0.00550000000000006,-0.26683999999999997,-0.06384000000000001,-0.24,-0.395,0.4950000000000001,0.1494200000000001,0.24890000000000012,-0.18628,1742222070.913283
0.020000000000000018,0.1499999999999999,0.4650000000000001,-0.0650599999999999,-0.15234000000000003,0.1677200000000001,-0.22499999999999998,-0.555,0.20500000000000007,0.20386000000000015,0.3211600000000001,-0.02415999999999996,1742222071.0233028
-0.07999999999999996,0.395,0.6000000000000001,0.058720000000000105,0.02855999999999992,0.19140000000000001,-0.08999999999999997,-0.4650000000000001,0.09000000000000008,-0.009279999999999955,0.07983999999999991,0.21472000000000002,1742222071.1372669
-0.030000000000000027,0.48,0.43999999999999995,-0.010499999999999954,0.23399999999999999,0.0638399999999999,0.07000000000000006,-0.26,0.1499999999999999,-0.029299999999999993,-0.17015999999999998,0.20618000000000003,1742222071.25278
0.05499999999999994,0.45500000000000007,0.24,-0.010259999999999936,0.1654,-0.13624000000000003,0.10000000000000009,-0.13,0.355,-0.07641999999999993,-0.33996000000000004,0.06018000000000012,1742222071.3728058
0.15999999999999992,0.29000000000000004,0.16500000000000004,0.007079999999999975,0.018179999999999863,-0.18458000000000008,-0.08999999999999997,-0.17999999999999994,0.5449999999999999,-0.011240000000000028,-0.17408,-0.17884,1742222071.4793751
0.20999999999999996,0.11499999999999999,0.24,-0.01978000000000002,-0.18847999999999998,-0.08972000000000002,-0.24,-0.35,0.5800000000000001,0.05675999999999992,0.15222000000000002,-0.28076,1742222071.593361
0.11499999999999999,0.05499999999999994,0.3599999999999999,-0.06323999999999996,-0.19335999999999998,0.11376000000000008,-0.275,-0.6,0.32499999999999996,0.16857999999999995,0.30699999999999994,-0.09251999999999994,1742222071.713533
-0.13,0.395,0.6000000000000001,-0.11414000000000002,-0.10986000000000007,0.22938000000000014,-0.14,-0.54,0.23499999999999988,-0.07496000000000003,0.1764000000000001,0.20740000000000003,1742222071.8214889
-0.09999999999999998,0.575,0.5,-0.1018,0.29736000000000007,0.06494,0.08000000000000007,-0.22999999999999998,0.17500000000000004,-0.02076,-0.010739999999999972,0.26672000000000007,1742222071.935413
0.02499999999999991,0.54,0.17500000000000004,0.01537999999999995,0.14916000000000018,-0.17822000000000005,0.1499999999999999,-0.08499999999999996,0.27,0.011360000000000037,-0.3321600000000001,0.11670000000000003,1742222072.055553
0.1299999999999999,0.32000000000000006,0.135,0.07385999999999981,-0.01770000000000005,-0.23646,-0.025000000000000022,-0.050000000000000044,0.55,-0.07728000000000002,-0.29896,-0.14172000000000007,1742222072.1621811
0.20500000000000007,0.08499999999999996,0.24,0.03917999999999999,-0.14954,-0.11853999999999998,-0.18500000000000005,-0.245,0.7050000000000001,-0.0122000000000001,-0.046760000000000024,-0.28674,1742222072.276264
0.1100000000000001,0.07000000000000006,0.3799999999999999,-0.08874000000000004,-0.22460000000000002,0.07788000000000017,-0.21499999999999997,-0.47,0.5249999999999999,0.1606399999999999,0.27770000000000006,-0.12012,1742222072.393494
-0.015000000000000013,0.3400000000000001,0.5249999999999999,-0.02415999999999996,-0.11485999999999996,0.19190000000000018,-0.07999999999999996,-0.45500000000000007,0.2849999999999999,0.13538000000000006,0.18566000000000016,0.15295999999999998,1742222072.504472
-0.04500000000000004,0.4849999999999999,0.5550000000000002,-0.023320000000000007,0.16480000000000006,0.12329999999999997,0.050000000000000044,-0.265,0.15500000000000003,0.07214000000000009,-0.006840000000000068,0.2290000000000001,1742222072.618283
-0.015000000000000013,0.665,0.2749999999999999,0.04956000000000005,0.20886000000000005,-0.15076,0.10000000000000009,-0.135,0.23499999999999988,-0.0018400000000000638,-0.33299999999999996,0.14305999999999996,1742222072.732908
0.125,0.32499999999999996,0.14000000000000012,0.07603999999999989,0.08118000000000003,-0.26073999999999997,-0.06000000000000005,-0.08499999999999996,0.53,-0.03465999999999991,-0.36756,-0.011960000000000082,1742222072.853538
0.21500000000000008,0.014999999999999902,0.22999999999999998,-0.02100000000000002,-0.13196000000000008,-0.11938000000000004,-0.17000000000000004,-0.09999999999999998,0.72,-0.05298000000000003,0.006599999999999939,-0.24084000000000005,1742222072.960267
0.14000000000000012,0.02499999999999991,0.3500000000000001,-0.1482,-0.21655999999999997,0.10009999999999986,-0.21499999999999997,-0.26,0.575,0.08728000000000002,0.31788000000000016,-0.27379999999999993,1742222073.077183
-0.07000000000000006,0.33000000000000007,0.595,-0.07458000000000009,-0.12487999999999999,0.25416000000000016,-0.28,-0.64,0.29000000000000004,0.16125999999999996,0.30616,0.052119999999999944,1742222073.193967
-0.09999999999999998,0.5699999999999998,0.5699999999999998,-0.0012199999999999989,0.14196000000000009,0.18018,0.010000000000000009,-0.2849999999999999,0.19500000000000006,0.09338000000000002,0.05797999999999992,0.2583,1742222073.302222
-0.015000000000000013,0.615,0.25,-0.03967999999999994,0.27502000000000004,-0.0908199999999999,0.10499999999999998,-0.125,0.25,0.014639999999999986,-0.24560000000000004,0.17613999999999996,1742222073.416569
0.09000000000000008,0.3599999999999999,0.14500000000000002,0.058339999999999836,0.0686,-0.21508000000000005,0.020000000000000018,-0.06499999999999995,0.43500000000000005,-0.002080000000000082,-0.36902,-0.037959999999999994,1742222073.5350652
0.18999999999999995,0.135,0.15500000000000003,0.07690000000000019,-0.08374000000000004,-0.15148000000000006,-0.18999999999999995,-0.21499999999999997,0.6000000000000001,-0.01636000000000004,-0.10387999999999997,-0.20484000000000002,1742222073.64326
0.135,0.030000000000000027,0.3400000000000001,-0.09594000000000003,-0.21338000000000001,-0.006960000000000077,-0.22499999999999998,-0.38,0.6099999999999999,0.12390000000000012,0.30113999999999996,-0.1995800000000001,1742222073.757321
-0.040000000000000036,0.20500000000000007,0.54,-0.08094000000000001,-0.12684000000000006,0.19886000000000004,-0.20499999999999996,-0.55,0.30000000000000004,0.12342000000000009,0.31128,0.03649999999999998,1742222073.873539
-0.14,0.45999999999999996,0.665,-0.03295999999999999,0.14159999999999995,0.20531999999999995,-0.040000000000000036,-0.37,0.135,0.06311999999999984,0.09460000000000002,0.22486000000000006,1742222073.985363
-0.030000000000000027,0.615,0.30499999999999994,-0.054200000000000026,0.27368000000000015,-0.08275999999999994,0.1200000000000001,-0.15000000000000002,0.18999999999999995,0.03308,-0.21655999999999997,0.13842,1742222074.099471
0.09000000000000008,0.3999999999999999,0.1100000000000001,-0.01758000000000004,0.1533199999999999,-0.22022000000000008,0.06499999999999995,-0.08499999999999996,0.41500000000000004,-0.01855999999999991,-0.38,-0.07068000000000008,1742222074.213946
0.18999999999999995,0.05499999999999994,0.18500000000000005,-0.0014600000000000168,-0.19775999999999994,-0.1483199999999999,-0.15500000000000003,-0.26,0.76,-0.024540000000000006,0.06666000000000016,-0.25378,1742222074.33383
0.08000000000000007,-0.010000000000000009,0.3900000000000001,-0.1016800000000001,-0.24694000000000005,0.07957999999999998,-0.15500000000000003,-0.505,0.45999999999999996,0.06347999999999998,0.30224000000000006,-0.13537999999999994,1742222074.441348
-0.08999999999999997,0.20999999999999996,0.615,0.006960000000000077,-0.07922000000000007,0.2623199999999999,-0.09999999999999998,-0.485,0.27,0.07128000000000001,0.1373199999999999,0.13050000000000006,1742222074.556386
-0.09999999999999998,0.43999999999999995,0.55,-0.05065999999999993,0.18408000000000002,0.14490000000000003,0.040000000000000036,-0.275,0.15999999999999992,0.04078000000000004,-0.027840000000000087,0.19446000000000008,1742222074.673363
-0.040000000000000036,0.565,0.29499999999999993,-0.05565999999999993,0.24963999999999986,-0.07422000000000006,0.09000000000000008,-0.14500000000000002,0.25,0.00537999999999994,-0.3038399999999999,0.09570000000000012,1742222074.783318
0.10000000000000009,0.2849999999999999,0.1499999999999999,0.012580000000000036,0.06579999999999986,-0.23815999999999993,-0.015000000000000013,-0.09499999999999997,0.5249999999999999,-0.05908000000000002,-0.3342200000000001,-0.12134,1742222074.897193
0.19500000000000006,0.06499999999999995,0.20999999999999996,-0.014399999999999968,-0.12890000000000001,-0.13879999999999992,-0.24,-0.35,0.6800000000000002,0.006220000000000114,0.08557999999999999,-0.24670000000000003,1742222075.015411
0.07000000000000006,-0.040000000000000036,0.3500000000000001,-0.1275599999999999,-0.28662,0.06372,-0.21999999999999997,-0.515,0.42999999999999994,0.11316000000000015,0.32618000000000014,-0.10974000000000006,1742222075.125319
-0.21999999999999997,0.42500000000000004,0.615,-0.011360000000000037,-0.09216000000000002,0.30688000000000004,-0.09499999999999997,-0.45999999999999996,0.22999999999999998,-0.010140000000000038,0.11499999999999999,0.13318000000000008,1742222075.239317
-0.11499999999999999,0.51,0.4950000000000001,-0.09911999999999999,0.23595999999999995,0.0836199999999998,0.020000000000000018,-0.265,0.23499999999999988,-0.020139999999999936,-0.0048799999999999955,0.18457999999999997,1742222075.353916
-0.05500000000000005,0.5449999999999999,0.27,-0.02758000000000005,0.25268,-0.10997999999999997,0.1200000000000001,-0.17500000000000004,0.26,-0.011960000000000082,-0.19641999999999993,0.10792000000000002,1742222075.4735968
0.10000000000000009,0.375,0.09499999999999997,-0.013419999999999987,0.05274000000000001,-0.23521999999999998,-0.04500000000000004,-0.07499999999999996,0.4650000000000001,-0.04577999999999993,-0.38354,-0.09374000000000005,1742222075.581219
0.15500000000000003,0.10499999999999998,0.19500000000000006,0.01953999999999989,-0.24084000000000005,-0.11839999999999995,-0.235,-0.26,0.8,0.0895999999999999,0.09911999999999987,-0.20374000000000003,1742222075.695206
0.004999999999999893,0.050000000000000044,0.43500000000000005,-0.09863999999999995,-0.27270000000000005,0.09692000000000012,-0.20499999999999996,-0.515,0.345,0.1520999999999999,0.3836600000000001,-0.1174400000000001,1742222075.8142211
-0.12,0.33000000000000007,0.645,-0.040899999999999936,-0.0015800000000000258,0.20897999999999994,-0.05500000000000005,-0.45500000000000007,0.17999999999999994,0.037719999999999976,0.12134,0.16016000000000008,1742222075.923308
-0.08499999999999996,0.43500000000000005,0.45999999999999996,-0.03710000000000002,0.21058,0.11743999999999999,0.06499999999999995,-0.2849999999999999,0.16999999999999993,-0.00036000000000002697,-0.052120000000000055,0.18127999999999989,1742222076.0372102
-0.015000000000000013,0.605,0.19500000000000006,-0.06323999999999996,0.29625999999999997,-0.1224400000000001,0.09499999999999997,-0.15000000000000002,0.28,-0.020019999999999927,-0.2798999999999999,0.10253999999999985,1742222076.154156
0.1499999999999999,0.32499999999999996,0.10499999999999998,-0.0031799999999999606,0.023679999999999923,-0.25073999999999996,-0.08999999999999997,-0.08499999999999996,0.56,-0.07811999999999997,-0.31933999999999996,-0.11303999999999992,1742222076.273115
0.17500000000000004,0.08499999999999996,0.2250000000000001,0.04405999999999999,-0.24378,-0.09094000000000002,-0.22499999999999998,-0.22999999999999998,0.6400000000000001,0.10411999999999999,0.05750000000000011,-0.2474400000000001,1742222076.3792052
0.014999999999999902,0.2650000000000001,0.3799999999999999,-0.19848,-0.26978,0.12817999999999996,-0.29499999999999993,-0.53,0.32499999999999996,0.13256,0.38476,-0.1372000000000001,1742222076.494215
-0.10999999999999999,0.4950000000000001,0.7250000000000001,0.05455999999999994,0.08923999999999999,0.20008000000000004,-0.08499999999999996,-0.49,0.18999999999999995,0.09448000000000012,0.06896000000000013,0.16468000000000016,1742222076.6145222
-0.07499999999999996,0.6800000000000002,0.375,-0.12670000000000003,0.39636000000000005,0.04064000000000001,0.04499999999999993,-0.29000000000000004,0.2849999999999999,-0.010000000000000009,-0.09960000000000002,0.21263999999999994,1742222076.721309
0.1299999999999999,0.345,0.1200000000000001,-0.008299999999999974,0.10253999999999985,-0.22229999999999994,0.10499999999999998,-0.125,0.29499999999999993,0.08679999999999999,-0.26294000000000006,-0.005619999999999958,1742222076.835201
0.19999999999999996,0.17999999999999994,0.15999999999999992,0.06982,-0.07689999999999997,-0.12708000000000008,-0.03500000000000003,-0.26,0.5150000000000001,-0.016000000000000014,-0.09192,-0.14855999999999991,1742222076.95366
0.18999999999999995,0.08499999999999996,0.33000000000000007,-0.08629999999999993,-0.19213999999999998,-0.04613999999999996,-0.135,-0.35,0.4650000000000001,0.14344,0.1716399999999998,-0.21911999999999998,1742222077.0632162
0.050000000000000044,0.16500000000000004,0.41500000000000004,-0.12,-0.20641999999999994,0.12805999999999984,-0.21499999999999997,-0.605,0.2250000000000001,0.21667999999999998,0.20716,0.011600000000000055,1742222077.177214
-0.07999999999999996,0.54,0.645,-0.032220000000000026,0.11182000000000003,0.15002000000000004,-0.10999999999999999,-0.47,0.1299999999999999,0.035519999999999996,0.06922000000000006,0.21374000000000004,1742222077.293771
-0.015000000000000013,0.49,0.5049999999999999,0.06542000000000003,0.21667999999999998,0.07591999999999999,0.02499999999999991,-0.345,0.11499999999999999,-0.06725999999999999,-0.12524000000000002,0.18859999999999988,1742222077.413085
0.05499999999999994,0.56,0.17999999999999994,-0.0041599999999999415,0.16736000000000018,-0.17884,0.125,-0.125,0.2250000000000001,-0.07898000000000005,-0.3769600000000001,-0.005499999999999949,1742222077.5182028
0.17999999999999994,0.14500000000000002,0.07000000000000006,-0.03539999999999999,-0.10899999999999999,-0.20201999999999998,-0.11499999999999999,-0.25,0.575,-0.05565999999999993,-0.15186,-0.23596000000000006,1742222077.633875
0.1200000000000001,0.06499999999999995,0.27,-0.16991999999999996,-0.40174,-0.0045199999999999685,-0.255,-0.5,0.5550000000000002,0.08496000000000015,0.2378,-0.1886,1742222077.754036
-0.18999999999999995,0.27,0.685,-0.10986000000000007,-0.13184000000000007,0.33519999999999994,-0.21999999999999997,-0.57,0.21500000000000008,0.10925999999999991,0.27490000000000014,0.09105999999999992,1742222077.860218
-0.17500000000000004,0.565,0.5249999999999999,-0.07398000000000005,0.30455999999999994,0.10925999999999991,-0.010000000000000009,-0.29000000000000004,0.1200000000000001,-0.023440000000000016,0.026980000000000004,0.22424,1742222077.9741492
-0.0050000000000000044,0.5449999999999999,0.16999999999999993,-0.0034199999999999786,0.26990000000000003,-0.15637999999999996,0.07499999999999996,-0.15500000000000003,0.21999999999999997,-0.07946000000000009,-0.26648000000000005,0.09155999999999986,1742222078.088219
0.135,0.23499999999999988,0.11499999999999999,0.0578599999999998,0.02391999999999994,-0.23339999999999994,-0.07999999999999996,-0.135,0.45500000000000007,-0.007080000000000086,-0.26757999999999993,-0.13978000000000002,1742222078.2020512
0.18500000000000005,0.06499999999999995,0.23499999999999988,-0.02746000000000004,-0.24414000000000002,-0.06541999999999992,-0.30499999999999994,-0.355,0.74,0.06909999999999994,0.08288000000000006,-0.2472000000000001,1742222078.315307
0.0,0.040000000000000036,0.4950000000000001,-0.08789999999999998,-0.25378,0.1236600000000001,-0.27,-0.58,0.2849999999999999,0.18077999999999994,0.29211999999999994,-0.08165999999999995,1742222078.4340422
-0.15000000000000002,0.45500000000000007,0.6099999999999999,0.10498000000000007,0.04064000000000001,0.23938000000000015,-0.125,-0.45500000000000007,0.19999999999999996,0.07385999999999981,0.12535999999999992,0.2107000000000001,1742222078.543231
-0.07499999999999996,0.45500000000000007,0.48,-0.03882000000000008,0.21472000000000002,0.07543999999999995,0.03499999999999992,-0.245,0.15500000000000003,-0.0006199999999999539,-0.05125999999999997,0.1949400000000001,1742222078.657137
-0.025000000000000022,0.5800000000000001,0.2549999999999999,-0.020499999999999963,0.2267999999999999,-0.16810000000000003,0.07499999999999996,-0.125,0.32000000000000006,-0.06359999999999999,-0.3001800000000001,0.015020000000000033,1742222078.773966
0.125,0.2450000000000001,0.07499999999999996,-0.020019999999999927,0.0017000000000000348,-0.2427999999999999,-0.125,-0.17000000000000004,0.6400000000000001,-0.010739999999999972,-0.13476,-0.18431999999999993,1742222078.893186
0.15999999999999992,0.09000000000000008,0.25,-0.0017000000000000348,-0.33228,-0.06774000000000002,-0.18500000000000005,-0.42500000000000004,0.5550000000000002,0.1457599999999999,0.26171999999999995,-0.1997000000000001,1742222078.99921
-0.025000000000000022,0.10000000000000009,0.52,0.19042000000000003,-0.34046,0.17833999999999994,-0.21999999999999997,-0.625,0.2250000000000001,0.11218000000000017,0.2780799999999999,0.03479999999999994,1742222079.1137002
-0.21499999999999997,0.09000000000000008,0.7349999999999999,0.06555999999999984,0.02391999999999994,0.18774000000000002,-0.07499999999999996,-0.4099999999999999,0.14000000000000012,0.05553999999999992,0.046640000000000015,0.23950000000000005,1742222079.2341802
-0.10999999999999999,0.365,0.5350000000000001,-0.15686,0.3235999999999999,0.11853999999999987,0.050000000000000044,-0.22499999999999998,0.16999999999999993,-0.007320000000000104,-0.20948,0.17503999999999986,1742222079.341125
-0.41500000000000004,0.73,0.19999999999999996,-0.14013999999999993,0.29759999999999986,-0.036860000000000004,0.135,0.03499999999999992,0.125,0.1927399999999999,-0.35474000000000006,0.05848000000000009,1742258490.469611
-0.19999999999999996,0.4750000000000001,-0.030000000000000027,0.021360000000000046,0.18933999999999984,-0.26978,-0.09999999999999998,-0.26,0.6000000000000001,0.05896000000000012,-0.2951600000000001,-0.25586,1742258490.589088
0.030000000000000027,0.20999999999999996,0.050000000000000044,0.11768,-0.08240000000000003,-0.28001999999999994,-0.14500000000000002,-0.49,0.8599999999999999,-0.009639999999999982,0.07481999999999989,-0.31542000000000003,1742258490.7101388
0.1100000000000001,-0.015000000000000013,0.32499999999999996,0.08861999999999992,-0.3677999999999999,-0.04077999999999993,-0.09999999999999998,-0.815,0.44500000000000006,0.007079999999999975,0.4330999999999998,-0.10753999999999997,1742258490.81077
-0.21499999999999997,0.135,0.575,-0.07689999999999997,-0.17810000000000004,0.2657400000000001,-0.020000000000000018,-0.5,0.1200000000000001,-0.032340000000000035,0.2586600000000001,0.2806399999999998,1742258490.929385
-0.44500000000000006,0.3799999999999999,0.6499999999999999,-0.046760000000000024,0.13573999999999997,0.29688000000000003,0.1299999999999999,-0.03500000000000003,-0.030000000000000027,0.08460000000000001,-0.021240000000000037,0.29786000000000024,1742258491.052845
-0.4650000000000001,0.6299999999999999,0.32499999999999996,-0.11914000000000002,0.27576,-0.04565999999999992,0.1200000000000001,0.1100000000000001,0.17500000000000004,0.15748000000000006,-0.46716000000000013,-0.012700000000000045,1742258491.15263
-0.13,0.3700000000000001,0.07499999999999996,-0.021240000000000037,0.21557999999999988,-0.25048000000000004,-0.16500000000000004,-0.17000000000000004,0.625,0.08311999999999986,-0.23851999999999995,-0.2943199999999999,1742258491.2703009
0.07499999999999996,0.125,0.14500000000000002,-0.021720000000000073,-0.19165999999999994,-0.26990000000000003,-0.17000000000000004,-0.565,0.8799999999999999,-0.022580000000000044,0.30494,-0.2735599999999999,1742258491.389246
-0.06000000000000005,0.09499999999999997,0.44999999999999996,-0.08287999999999995,-0.42735999999999996,0.05235999999999996,-0.08499999999999996,-0.765,0.28,0.0032999999999998586,0.41846000000000005,0.06407999999999991,1742258491.494698
-0.32499999999999996,0.11499999999999999,0.7650000000000001,0.02429999999999999,-0.008179999999999965,0.34729999999999994,0.030000000000000027,-0.32499999999999996,0.08499999999999996,-0.05786000000000002,0.21900000000000008,0.29968000000000017,1742258491.609312
-0.49,0.5449999999999999,0.5249999999999999,0.11340000000000017,0.34277999999999986,0.30066000000000015,0.1299999999999999,0.05499999999999994,-0.015000000000000013,0.15013999999999994,-0.08641999999999994,0.24658000000000002,1742258491.7302248
-0.33000000000000007,0.4849999999999999,0.41500000000000004,-0.18541999999999992,0.21106000000000003,-0.10084000000000004,0.050000000000000044,0.10499999999999998,0.2650000000000001,0.18579999999999997,-0.48205999999999993,-0.07128000000000001,1742258491.849447
-0.050000000000000044,0.26,0.16999999999999993,-0.028200000000000003,0.13146000000000013,-0.30810000000000004,-0.135,-0.38,0.7850000000000001,-0.04736000000000007,-0.19764000000000004,-0.26148000000000005,1742258491.950926
0.1299999999999999,-0.020000000000000018,0.19999999999999996,-0.10339999999999994,-0.17858000000000007,-0.2475599999999999,-0.11499999999999999,-0.245,0.94,-0.31335999999999997,0.22106000000000003,-0.2833199999999999,1742258492.073318
-0.025000000000000022,-0.050000000000000044,0.42500000000000004,-0.14100000000000001,-0.41333999999999993,0.14538000000000006,-0.04500000000000004,-0.30499999999999994,0.55,-0.022220000000000018,0.46740000000000004,-0.14636000000000005,1742258492.1899378
-0.45999999999999996,0.15500000000000003,0.8050000000000002,-0.04052,-0.016960000000000086,0.3724400000000001,0.1299999999999999,-0.235,0.040000000000000036,0.22424,0.27844,0.20629999999999993,1742258492.295522
-0.4650000000000001,0.6099999999999999,0.48,-0.15796,0.3077399999999999,0.11229999999999984,0.2250000000000001,0.09000000000000008,-0.03500000000000003,0.3529,-0.20775999999999994,0.22106000000000003,1742258492.410069
-0.20999999999999996,0.44999999999999996,0.125,-0.13427999999999995,0.21667999999999998,-0.24072000000000005,-0.07999999999999996,-0.010000000000000009,0.5150000000000001,0.17149999999999999,-0.40198,-0.13061999999999996,1742258492.531464
0.07000000000000006,0.15500000000000003,0.07000000000000006,0.0035399999999998766,-0.11218000000000006,-0.32836,-0.15500000000000003,-0.42999999999999994,1.0,0.07225999999999999,0.04492000000000007,-0.36622,1742258492.633713
0.08000000000000007,-0.03500000000000003,0.31499999999999995,-0.057499999999999996,-0.36327999999999994,-0.01648000000000005,-0.040000000000000036,-0.805,0.5150000000000001,0.007079999999999975,0.4337200000000001,-0.16260000000000008,1742258492.750904
-0.30499999999999994,0.18500000000000005,0.5550000000000002,-0.18553999999999993,-0.2158199999999999,0.32752000000000003,0.07000000000000006,-0.47,0.09499999999999997,-0.08484000000000003,0.27281999999999984,0.2535399999999999,1742258492.870002
-0.545,0.6400000000000001,0.4849999999999999,-0.059820000000000095,0.17566000000000015,0.2782,0.15999999999999992,0.004999999999999893,-0.06499999999999995,0.16503999999999985,-0.0907,0.3079799999999999,1742258492.975539
-0.405,0.5800000000000001,0.125,-0.0625,0.32922000000000007,-0.20362000000000002,-0.06499999999999995,0.14000000000000012,0.33499999999999996,0.26490000000000014,-0.6356200000000001,0.03198000000000012,1742258493.089531
-0.05500000000000005,0.22999999999999998,0.020000000000000018,-0.0037800000000000056,0.10364000000000018,-0.3514400000000001,-0.18999999999999995,-0.21499999999999997,0.8799999999999999,0.05750000000000011,-0.11241999999999996,-0.31152,1742258493.2093272
0.1299999999999999,0.03499999999999992,0.21500000000000008,0.04577999999999993,-0.22608000000000006,-0.13073999999999997,-0.15500000000000003,-0.575,0.69,0.10206000000000004,0.36718000000000006,-0.33594,1742258493.329851
-0.135,0.14000000000000012,0.405,-0.11718000000000006,-0.31323999999999996,0.21727999999999992,-0.025000000000000022,-0.565,0.2250000000000001,-0.17625999999999997,0.32958,0.20276000000000005,1742258493.431639
-0.47,0.4950000000000001,0.5049999999999999,-0.18847999999999998,-0.07604,0.3087200000000001,0.09499999999999997,-0.15500000000000003,0.03499999999999992,0.01990000000000003,0.0611600000000001,0.2844200000000001,1742258493.552438
-0.58,0.7050000000000001,0.27,-0.14013999999999993,0.2661199999999999,0.07824000000000009,0.09499999999999997,0.09000000000000008,0.18500000000000005,0.1275599999999999,-0.3639,0.18077999999999994,1742258493.669881
-0.33499999999999996,0.5249999999999999,-0.030000000000000027,0.1520999999999999,0.39892000000000016,-0.32386000000000004,-0.13,-0.08999999999999997,0.44999999999999996,0.40148000000000006,-0.24256,-0.12072000000000005,1742258493.772745
0.030000000000000027,0.15500000000000003,0.040000000000000036,0.059700000000000086,0.02307999999999999,-0.44274,-0.08499999999999996,-0.42999999999999994,0.76,0.08826,0.08972000000000002,-0.24791999999999992,1742258493.8899782
0.09000000000000008,0.02499999999999991,0.30499999999999994,-0.25939999999999996,-0.6163400000000001,-0.07740000000000002,-0.16500000000000004,-0.79,0.54,-0.04027999999999998,0.3961199999999998,-0.1079199999999999,1742258494.010995
-0.37,0.2450000000000001,0.49,0.0034199999999999786,-0.03846000000000005,0.40296,-0.0050000000000000044,-0.35,0.19500000000000006,-0.46656,0.28503999999999996,0.37426000000000004,1742258494.114639
-0.495,0.43999999999999995,0.5350000000000001,-0.07910000000000006,0.17321999999999993,0.36170000000000013,0.15999999999999992,-0.025000000000000022,-0.020000000000000018,0.05809999999999982,0.035519999999999996,0.26966,1742258494.22962
-0.41999999999999993,0.7,0.21500000000000008,-0.23462000000000005,0.35009999999999986,-0.15527999999999997,0.06499999999999995,0.19999999999999996,0.2250000000000001,0.27783999999999986,-0.38244,-0.0026799999999999047,1742258494.349639
-0.07499999999999996,0.32499999999999996,0.004999999999999893,0.009160000000000057,0.05711999999999984,-0.42298,-0.19999999999999996,0.014999999999999902,0.6000000000000001,0.15942000000000012,-0.3971,-0.26014000000000004,1742258494.46913
0.1100000000000001,0.020000000000000018,0.21500000000000008,0.07020000000000004,-0.22644000000000009,-0.25098,-0.29000000000000004,-0.255,0.9100000000000001,0.0030599999999998406,0.15588000000000002,-0.25,1742258494.5735512
0.04499999999999993,0.020000000000000018,0.31000000000000005,-0.18274,-0.3373999999999999,0.18701999999999996,-0.135,-0.475,0.56,-0.13024000000000002,0.45276000000000005,-0.07591999999999999,1742258494.689966
-0.44500000000000006,0.31000000000000005,0.595,0.06579999999999986,0.02855999999999992,0.4217599999999999,0.03499999999999992,-0.30499999999999994,0.11499999999999999,-0.0035399999999999876,0.4056399999999998,0.23375999999999997,1742258494.809618
-0.665,0.585,0.6800000000000002,0.18018,0.37866,0.3628,0.125,0.18500000000000005,0.004999999999999893,0.17408,-0.26844,0.32898000000000005,1742258494.9125729
-0.27,0.44999999999999996,0.29499999999999993,-0.25268,0.44116,-0.13341999999999998,-0.13,0.16999999999999993,0.5699999999999998,0.27368000000000015,-0.37683999999999995,-0.14891999999999994,1742258495.031425
0.15999999999999992,0.15500000000000003,0.02499999999999991,-0.19799999999999995,0.03820000000000001,-0.38672000000000006,-0.265,-0.29499999999999993,0.8700000000000001,0.2084999999999999,-0.14196000000000009,-0.51342,1742258495.14974
0.19500000000000006,-0.040000000000000036,0.17500000000000004,-0.11048000000000002,-0.44152,0.00782000000000016,-0.44999999999999996,-0.735,0.6800000000000002,0.01428000000000007,0.5258800000000001,-0.19579999999999997,1742258495.254643
-0.29499999999999993,-0.0050000000000000044,0.5249999999999999,0.01428000000000007,-0.32775999999999994,0.30372,-0.125,-0.47,0.19999999999999996,-0.025760000000000005,0.37476,0.27136000000000005,1742258495.3698618
-0.505,0.41500000000000004,0.6400000000000001,-0.12329999999999997,0.09448000000000012,0.2544000000000002,0.10499999999999998,-0.05500000000000005,0.020000000000000018,0.01097999999999999,0.12342000000000009,0.45544000000000007,1742258495.490179
-0.405,0.585,0.31499999999999995,-0.05274000000000001,0.32642000000000015,-0.15013999999999994,0.1100000000000001,0.26,0.135,0.3225,-0.4928,0.11304000000000003,1742258495.595343
-0.125,0.375,0.050000000000000044,-0.0041599999999999415,0.17149999999999999,-0.35242000000000007,-0.22999999999999998,-0.06499999999999995,0.73,0.1297600000000001,-0.21826,-0.23450000000000004,1742258495.710521
0.125,0.03499999999999992,0.1299999999999999,0.010140000000000038,-0.17101999999999995,-0.3049400000000001,-0.22999999999999998,-0.355,0.8050000000000002,-0.10253999999999996,0.07496000000000014,-0.44628,1742258495.8308349
0.04499999999999993,0.0,0.33499999999999996,-0.14513999999999994,-0.39686,0.1224400000000001,-0.275,-0.66,0.595,0.06896000000000013,0.49583999999999984,-0.1583199999999999,1742258495.9499571
-0.395,0.31499999999999995,0.6949999999999998,0.031239999999999934,-0.0030599999999999516,0.34838000000000013,-0.07000000000000006,-0.405,0.1499999999999999,0.11827999999999994,0.3552200000000001,0.30444000000000004,1742258496.052701
-0.53,0.5800000000000001,0.49,-0.17810000000000004,0.24461999999999984,0.24072000000000005,0.1100000000000001,0.08499999999999996,0.014999999999999902,0.23595999999999995,-0.08936,0.43957999999999986,1742258496.169706
-0.2849999999999999,0.56,0.16999999999999993,-0.19311999999999996,0.16931999999999992,-0.2634200000000001,0.05499999999999994,0.23499999999999988,0.3500000000000001,0.20690000000000008,-0.49048,-0.05786000000000002,1742258496.289462
0.020000000000000018,0.2450000000000001,0.030000000000000027,0.04723999999999995,0.07861999999999991,-0.35339999999999994,-0.21499999999999997,-0.33499999999999996,0.71,0.0032999999999998586,-0.11291999999999991,-0.40368000000000004,1742258496.392681
0.14500000000000002,0.02499999999999991,0.20500000000000007,0.09240000000000004,-0.29064,-0.13781999999999994,-0.19999999999999996,-0.52,0.77,-0.0041599999999999415,0.40623999999999993,-0.32972,1742258496.5113978
-0.08499999999999996,0.050000000000000044,0.405,-0.12146000000000001,-0.36292,0.24511999999999978,-0.15500000000000003,-0.63,0.27,0.02391999999999994,0.39904000000000006,0.1751800000000001,1742258496.630026
-0.475,0.24,0.73,0.05285999999999991,-0.00770000000000004,0.4193199999999999,0.020000000000000018,-0.255,0.004999999999999893,0.11158000000000001,0.06738000000000022,0.33898000000000006,1742258496.734476
-0.49,0.665,0.3999999999999999,-0.23278,0.23631999999999986,0.016599999999999948,0.14000000000000012,0.09000000000000008,0.1299999999999999,0.1533199999999999,-0.3518,0.2204600000000001,1742258496.85027
-0.22499999999999998,0.44500000000000006,0.1100000000000001,-0.11181999999999992,0.24646000000000012,-0.2924800000000001,-0.11499999999999999,-0.05500000000000005,0.52,0.30113999999999996,-0.3422799999999999,-0.2876000000000001,1742258496.970204
0.07499999999999996,0.1499999999999999,0.07000000000000006,-0.018179999999999974,-0.11426000000000003,-0.30396,-0.19999999999999996,-0.32499999999999996,0.925,0.014780000000000015,0.10119999999999996,-0.4080799999999999,1742258497.090564
-0.0050000000000000044,0.10499999999999998,0.3599999999999999,-0.011360000000000037,-0.41625999999999996,-0.036619999999999986,-0.24,-0.875,0.29000000000000004,0.07728000000000002,0.4572799999999999,-0.009759999999999991,1742258497.190664
-0.18500000000000005,0.21500000000000008,0.565,0.04723999999999995,0.04711999999999983,0.30333999999999994,-0.015000000000000013,-0.35,0.10499999999999998,0.037599999999999856,0.1642999999999999,0.3393600000000001,1742258497.309749
-0.35,0.43500000000000005,0.54,-0.09838000000000002,0.08007999999999993,0.28613999999999984,0.15999999999999992,-0.03500000000000003,0.030000000000000027,0.0317400000000001,-0.1521,0.31982,1742258497.429634
-0.245,0.645,0.19999999999999996,-0.2622000000000001,0.23646000000000011,-0.21751999999999994,0.050000000000000044,0.07499999999999996,0.29000000000000004,0.11304000000000003,-0.5013399999999999,0.025640000000000107,1742258497.5325172
0.050000000000000044,0.2849999999999999,0.030000000000000027,0.026859999999999884,-0.009639999999999982,-0.2782,-0.13,-0.20499999999999996,0.565,0.037599999999999856,-0.15870000000000006,-0.22974000000000006,1742258497.6499782
0.06000000000000005,0.1499999999999999,0.24,0.12426000000000004,-0.2477999999999999,-0.09387999999999996,-0.18999999999999995,-0.395,0.855,0.03516000000000008,0.22828000000000004,-0.25646,1742258497.769978
-0.09999999999999998,0.15999999999999992,0.43500000000000005,-0.00878000000000001,-0.24926000000000004,0.15808,-0.15500000000000003,-0.77,0.4750000000000001,-0.1543,0.42077999999999993,-0.04248000000000007,1742258497.874579
-0.32000000000000006,0.21999999999999997,0.5249999999999999,0.03929999999999989,-0.04846000000000006,0.36170000000000013,0.014999999999999902,-0.235,0.15999999999999992,-0.13829999999999998,0.3385,0.32630000000000003,1742258497.990697
-0.49,0.5449999999999999,0.5150000000000001,-0.09448000000000001,0.15966000000000014,0.17700000000000005,0.17999999999999994,0.1100000000000001,0.020000000000000018,0.13378,-0.08728000000000002,0.3023600000000002,1742258498.1096342
-0.30000000000000004,0.47,0.19500000000000006,-0.1361,0.36792,-0.1902999999999999,0.020000000000000018,0.09000000000000008,0.2549999999999999,0.22192000000000012,-0.4867,-0.08629999999999993,1742258498.2303329
-0.03500000000000003,0.30499999999999994,0.07499999999999996,-0.0034199999999999786,0.041140000000000176,-0.3335,-0.19500000000000006,-0.0050000000000000044,0.8199999999999998,0.022580000000000044,-0.29406,-0.21263999999999994,1742258498.330549
0.1299999999999999,0.04499999999999993,0.2549999999999999,-0.016240000000000032,-0.23729999999999996,-0.17553999999999992,-0.125,-0.17999999999999994,0.8399999999999999,-0.01636000000000004,0.22718000000000016,-0.31214,1742258498.45004
-0.030000000000000027,0.07000000000000006,0.45999999999999996,-0.04688000000000003,-0.276,0.1775,-0.06000000000000005,-0.525,0.565,-0.03405999999999998,0.42090000000000005,-0.0024400000000001087,1742258498.55857
-0.4,0.20500000000000007,0.595,0.023679999999999923,-0.05798000000000003,0.4476399999999998,0.05499999999999994,-0.28,0.10000000000000009,0.0329600000000001,0.35192,0.2547600000000001,1742258498.672296
-0.645,0.7149999999999999,0.395,-0.17884,0.18309999999999982,0.25561999999999996,0.11499999999999999,0.14000000000000012,0.014999999999999902,0.15161999999999987,-0.2379199999999999,0.3067599999999999,1742258498.78925
-0.35,0.5350000000000001,0.15999999999999992,-0.07091999999999998,0.2292400000000001,-0.27222,-0.09499999999999997,0.19999999999999996,0.42999999999999994,0.27990000000000004,-0.5295399999999999,-0.07835999999999999,1742258498.9092438
-0.07999999999999996,0.19999999999999996,0.07499999999999996,0.04577999999999993,0.08385999999999982,-0.40674,-0.16000000000000003,-0.025000000000000022,1.0,-0.02100000000000002,-0.07374000000000003,-0.23021999999999998,1742258499.0127108
0.08499999999999996,0.0,0.2849999999999999,0.06666000000000016,-0.32323999999999997,-0.1373199999999999,-0.14500000000000002,-0.33000000000000007,0.71,0.09655999999999998,0.20130000000000003,-0.3777999999999999,1742258499.130402
-0.13,-0.04500000000000004,0.5350000000000001,-0.10450000000000004,-0.26246,0.22375999999999996,-0.050000000000000044,-0.565,0.32499999999999996,0.08055999999999996,0.4305399999999999,0.01648000000000005,1742258499.2501912
-0.39,0.17500000000000004,0.665,0.015619999999999967,0.028079999999999883,0.41442,0.08499999999999996,-0.26,0.040000000000000036,0.06994000000000011,0.13061999999999996,0.30274,1742258499.354269
-0.61,0.6699999999999999,0.33000000000000007,-0.42786,0.2413399999999999,0.04283999999999999,0.1200000000000001,0.135,0.135,0.07728000000000002,-0.32520000000000004,0.25770000000000004,1742258499.469727
-0.27,0.45999999999999996,0.10000000000000009,-0.07862000000000002,0.1656399999999998,-0.33362,-0.08999999999999997,0.14500000000000002,0.43500000000000005,0.24425999999999992,-0.4509200000000001,-0.11146,1742258499.589021
0.014999999999999902,0.14500000000000002,0.10000000000000009,0.10328000000000004,-0.03088000000000002,-0.36839999999999995,-0.245,-0.345,1.0,-0.14061999999999997,-0.12341999999999997,-0.30188000000000004,1742258499.694769
0.125,0.0,0.2450000000000001,0.010380000000000056,-0.38868,-0.07677999999999996,-0.18999999999999995,-0.48,0.7650000000000001,0.20472,0.46106,-0.3784200000000001,1742258499.810001
-0.275,-0.030000000000000027,0.6000000000000001,0.3457000000000001,-0.22950000000000004,0.26073999999999997,-0.09499999999999997,-0.625,0.2650000000000001,-0.10803999999999991,0.4253,0.35816000000000003,1742258499.931116
-0.4650000000000001,0.07000000000000006,0.8050000000000002,-0.1127999999999999,0.033320000000000016,0.43701999999999996,0.10000000000000009,-0.03500000000000003,-0.030000000000000027,0.17566000000000015,-0.0035399999999999876,0.37207999999999997,1742258500.053156
-0.45500000000000007,0.55,0.44500000000000006,-0.2168,0.3233600000000001,-0.01636000000000004,0.08499999999999996,0.2450000000000001,0.23499999999999988,0.21801999999999988,-0.38354,0.1667400000000001,1742258500.1543
-0.07000000000000006,0.26,0.17999999999999994,-0.011720000000000064,0.17809999999999993,-0.29346000000000005,-0.10999999999999999,0.08000000000000007,0.665,-0.09570000000000001,-0.23985999999999996,-0.14794000000000007,1742258500.270571
0.07499999999999996,0.010000000000000009,0.2250000000000001,-0.010619999999999963,-0.11474000000000006,-0.24963999999999997,-0.06499999999999995,-0.18500000000000005,0.8599999999999999,0.06640000000000001,0.13623999999999992,-0.39013999999999993,1742258500.390392
0.02499999999999991,-0.030000000000000027,0.32499999999999996,-0.18946000000000007,-0.4359200000000001,0.0295399999999999,0.050000000000000044,-0.64,0.6200000000000001,-0.0393,0.40198,-0.08068000000000008,1742258500.511735
-0.44999999999999996,-0.030000000000000027,0.7850000000000001,0.09606000000000003,-0.16712000000000005,0.39208,0.11499999999999999,-0.32000000000000006,0.16999999999999993,0.035880000000000134,0.3135999999999999,0.2594000000000001,1742258500.610549
-0.605,0.51,0.69,-0.22498000000000007,0.38427999999999995,0.17408,0.1100000000000001,0.14500000000000002,0.010000000000000009,0.14647999999999994,-0.14855999999999991,0.30322000000000005,1742258500.731206
-0.21499999999999997,0.4099999999999999,0.19500000000000006,-0.14344,0.3025,-0.2529199999999999,0.0,0.2549999999999999,0.32000000000000006,0.20653999999999995,-0.4939,0.023560000000000025,1742258500.850842
0.04499999999999993,0.1299999999999999,0.08499999999999996,0.005120000000000013,0.011719999999999953,-0.31372,-0.24,-0.04500000000000004,1.0,0.09777999999999998,-0.34204,-0.2669600000000001,1742258500.952518
0.10000000000000009,-0.05500000000000005,0.2749999999999999,0.008920000000000039,-0.38403999999999994,-0.05908000000000002,-0.22499999999999998,-0.31499999999999995,0.815,0.24377999999999989,0.35095999999999994,-0.36839999999999995,1742258501.074406
-0.25,0.03499999999999992,0.565,-0.10694000000000004,-0.27662,0.2923600000000002,-0.015000000000000013,-0.495,0.31499999999999995,-0.0232,0.4398199999999999,0.0954600000000001,1742258501.1910532
-0.535,0.33499999999999996,0.6699999999999999,0.029059999999999864,0.11572000000000005,0.3872,0.09000000000000008,-0.17000000000000004,0.06499999999999995,0.047599999999999865,0.1408600000000002,0.3208,1742258501.294228
-0.495,0.575,0.3700000000000001,-0.3358199999999999,0.29333999999999993,-0.019540000000000002,0.10499999999999998,0.21999999999999997,0.14000000000000012,0.09558,-0.28698,0.2783199999999999,1742258501.4110458
-0.18999999999999995,0.41999999999999993,0.10000000000000009,-0.09411999999999998,0.18530000000000002,-0.28736000000000006,-0.12,0.10000000000000009,0.385,0.2809999999999999,-0.44311999999999996,-0.11878,1742258501.532757
0.03499999999999992,0.16500000000000004,0.11499999999999999,0.12059999999999982,-0.05358000000000007,-0.31164000000000003,-0.30000000000000004,-0.19500000000000006,1.0,-0.06481999999999999,-0.18896000000000002,-0.23863999999999996,1742258501.6347651
0.1200000000000001,-0.010000000000000009,0.30499999999999994,0.020380000000000065,-0.33996000000000004,-0.09436,-0.125,-0.47,0.6499999999999999,0.29968000000000017,0.36827999999999994,-0.2773399999999999,1742258501.751553
-0.30000000000000004,0.1299999999999999,0.4750000000000001,-0.06286000000000003,-0.34278,0.24438000000000004,-0.040000000000000036,-0.57,0.27,0.1277999999999999,0.3350799999999998,0.15588000000000002,1742258501.87112
-0.51,0.135,0.7349999999999999,0.009160000000000057,0.10985999999999985,0.3529,0.014999999999999902,-0.09499999999999997,0.04499999999999993,0.04590000000000005,0.005859999999999976,0.3808600000000002,1742258501.991998
-0.575,0.595,0.21500000000000008,-0.5861799999999999,0.21801999999999988,0.025880000000000125,0.010000000000000009,0.29499999999999993,0.17500000000000004,0.0954600000000001,-0.46362000000000003,0.1827399999999999,1742258502.090635
-0.245,0.5,-0.10499999999999998,-0.03820000000000001,0.11158000000000001,-0.28662,-0.395,-0.08499999999999996,0.76,0.21350000000000002,-0.29577999999999993,-0.19201999999999997,1742258502.2117078
0.010000000000000009,0.14500000000000002,0.05499999999999994,0.18701999999999996,-0.14368000000000003,-0.3618199999999999,-0.30499999999999994,-0.20499999999999996,0.71,0.03709999999999991,0.2797799999999999,-0.3677999999999999,1742258502.331035
0.05499999999999994,-0.025000000000000022,0.385,0.22546,-0.42724000000000006,0.0031799999999999606,-0.235,-0.765,0.625,0.052240000000000064,0.5052399999999999,-0.11815999999999993,1742258502.432436
-0.22499999999999998,-0.0050000000000000044,0.49,-0.11327999999999994,-0.02501999999999993,0.3226399999999998,0.010000000000000009,-0.43999999999999995,0.17999999999999994,-0.03198000000000001,0.35620000000000007,0.21888000000000019,1742258502.553878
-0.365,0.09499999999999997,0.7149999999999999,0.33740000000000014,0.22655999999999987,0.4032,0.09499999999999997,-0.020000000000000018,0.06499999999999995,-0.10253999999999996,-0.027840000000000087,0.32776000000000005,1742258502.671908
-0.585,0.56,0.5699999999999998,-0.16491999999999996,0.24842000000000009,0.06030000000000002,0.09499999999999997,0.2549999999999999,0.1499999999999999,0.14892000000000016,-0.34838,0.2145999999999999,1742258502.774389
-0.25,0.3700000000000001,0.29499999999999993,-0.15198,0.24461999999999984,-0.26781999999999995,-0.22499999999999998,0.1200000000000001,0.4099999999999999,0.2033600000000002,-0.4249200000000001,-0.13781999999999994,1742258502.891052
0.08499999999999996,0.06499999999999995,0.07000000000000006,-0.04125999999999996,0.05249999999999999,-0.35863999999999996,-0.48,-0.09499999999999997,1.0,-0.027220000000000022,-0.07752000000000003,-0.3206800000000001,1742258503.011799
0.15999999999999992,-0.07000000000000006,0.1499999999999999,0.14196000000000009,-0.37292000000000003,-0.10899999999999999,-0.21999999999999997,-0.4099999999999999,0.6099999999999999,0.20142000000000015,0.4120999999999999,-0.32520000000000004,1742258503.131111
-0.41999999999999993,-0.30499999999999994,0.7,0.21240000000000014,-0.5286799999999999,0.28332,-0.05500000000000005,-0.44500000000000006,0.21500000000000008,-0.00878000000000001,0.29078000000000004,0.05333999999999994,1742258503.2316558
-0.595,0.010000000000000009,0.74,-0.22620000000000007,0.11194000000000015,0.36194000000000015,0.04499999999999993,-0.125,0.05499999999999994,0.11925999999999992,0.013919999999999932,0.4193199999999999,1742258503.350916
-0.43500000000000005,0.2549999999999999,0.5150000000000001,0.010259999999999936,0.24658000000000002,0.14061999999999997,-0.05500000000000005,0.32000000000000006,0.18999999999999995,0.14832,-0.43322000000000005,0.17846000000000006,1742258503.471243
-0.17999999999999994,0.20500000000000007,0.25,-0.044440000000000035,0.29723999999999995,-0.17834000000000005,-0.42999999999999994,-0.07999999999999996,1.0,0.09105999999999992,-0.30506,-0.25476,1742258503.574786
0.15999999999999992,-0.025000000000000022,0.16999999999999993,-0.17334000000000005,-0.03858000000000006,-0.3346,-0.28,-0.26,0.72,0.36949999999999994,0.35986000000000007,-0.34412,1742258503.691282
-0.050000000000000044,-0.040000000000000036,0.42500000000000004,-0.09301999999999999,-0.49572000000000005,-0.028679999999999928,-0.14500000000000002,-0.51,0.48,-0.12829999999999997,0.44666000000000006,-0.15637999999999996,1742258503.811288
-0.28,-0.07999999999999996,0.605,0.05566000000000004,-0.12597999999999998,0.16223999999999994,-0.12,-0.535,0.18999999999999995,0.044319999999999915,0.3064,0.2770999999999999,1742258503.91327
-0.45999999999999996,0.1100000000000001,0.69,-0.11170000000000002,0.17113999999999985,0.18592000000000009,0.09499999999999997,-0.025000000000000022,0.010000000000000009,0.07496000000000014,-0.006720000000000059,0.6063200000000002,1742258504.032908
-0.31000000000000005,0.2749999999999999,0.42999999999999994,-0.17358000000000007,0.35816000000000003,-0.06494000000000011,-0.04500000000000004,0.33000000000000007,0.18500000000000005,0.3337399999999999,-0.6177999999999999,0.14246000000000003,1742258504.151712
-0.05500000000000005,0.2849999999999999,0.16500000000000004,-0.1532,0.15013999999999994,-0.28552,-0.385,0.2849999999999999,0.98,-0.29736000000000007,-0.36976,-0.3002999999999999,1742258504.255816
0.19999999999999996,-0.010000000000000009,0.20999999999999996,-0.02966000000000002,-0.15686,-0.2329199999999999,-0.41999999999999993,-0.27,0.95,0.02746000000000004,0.26624000000000003,-0.53564,1742258504.37297
-0.0050000000000000044,-0.04500000000000004,0.4099999999999999,-0.16174,-0.40870000000000006,0.04039999999999999,-0.07000000000000006,-0.375,0.56,-0.020499999999999963,0.5153800000000002,-0.08263999999999994,1742258504.491752
-0.4099999999999999,0.15500000000000003,0.79,0.08776000000000006,-0.026980000000000004,0.36340000000000017,0.07000000000000006,-0.18500000000000005,0.07499999999999996,0.11218000000000017,0.3701199999999998,0.29968000000000017,1742258504.610812
-0.62,0.615,0.6499999999999999,-0.06434000000000006,0.40748000000000006,0.15527999999999986,0.08499999999999996,0.22999999999999998,0.1100000000000001,0.48974000000000006,-0.26844,0.30494,1742258504.711682
-0.20999999999999996,0.4650000000000001,0.21999999999999997,-0.20948,0.30566000000000004,-0.22950000000000004,-0.025000000000000022,0.22999999999999998,0.42500000000000004,0.3984400000000001,-0.5139199999999999,-0.017820000000000058,1742258504.83146
0.1299999999999999,0.17500000000000004,0.040000000000000036,-0.014399999999999968,-0.011360000000000037,-0.33763999999999994,-0.235,-0.20499999999999996,0.7850000000000001,-0.02061999999999997,-0.041139999999999954,-0.3516800000000001,1742258504.951404
0.16500000000000004,-0.07999999999999996,0.31499999999999995,0.022340000000000027,-0.37598,-0.049919999999999964,-0.20499999999999996,-0.525,0.7850000000000001,0.06884000000000001,0.3714600000000001,-0.29322000000000004,1742258505.0551958
-0.17000000000000004,-0.010000000000000009,0.6099999999999999,0.010000000000000009,-0.30896,0.30286000000000013,-0.03500000000000003,-0.49,0.29499999999999993,-0.14868000000000003,0.37866,0.19018000000000002,1742258505.17213
-0.475,0.2450000000000001,0.76,-0.04296,-0.01746000000000003,0.3931800000000001,0.08499999999999996,-0.07499999999999996,0.040000000000000036,0.06396000000000002,0.12292000000000014,0.3169000000000002,1742258505.290726
-0.4650000000000001,0.5449999999999999,0.41999999999999993,-0.20520000000000005,0.29078000000000004,-0.020259999999999945,0.09000000000000008,0.16500000000000004,0.1299999999999999,0.3322799999999999,-0.35753999999999997,0.1927399999999999,1742258505.3921258
-0.13,0.2849999999999999,0.16999999999999993,-0.04064000000000001,0.23486000000000007,-0.2522000000000001,-0.16500000000000004,0.03499999999999992,0.5699999999999998,0.2548800000000002,-0.3469200000000001,-0.1775,1742258505.512793
0.10499999999999998,0.08499999999999996,0.15500000000000003,-0.015139999999999931,-0.09179999999999999,-0.27246000000000004,-0.3400000000000001,-0.16500000000000004,1.0,-0.036739999999999995,0.04188000000000014,-0.3982,1742258505.630949
0.07000000000000006,-0.07000000000000006,0.30499999999999994,0.035760000000000014,-0.391,0.024780000000000024,-0.19999999999999996,-0.475,0.7650000000000001,-0.46520000000000006,0.41833999999999993,-0.14561999999999997,1742258505.733544
-0.44999999999999996,-0.17999999999999994,0.76,0.13476,-0.26916000000000007,0.43482,0.004999999999999893,-0.20499999999999996,0.14500000000000002,0.03233999999999981,0.45079999999999987,0.14246000000000003,1742258505.851743
-0.67,0.3700000000000001,0.7050000000000001,-0.3211600000000001,0.21313999999999989,0.25366,0.1299999999999999,0.16500000000000004,-0.03500000000000003,0.19238000000000022,-0.03967999999999994,0.37622,1742258505.970934
-0.30499999999999994,0.385,0.24,-0.11694000000000004,0.34033999999999986,-0.20886000000000005,-0.09499999999999997,0.2650000000000001,0.2549999999999999,0.2913800000000002,-0.5962000000000001,-0.030279999999999974,1742258506.075385
-0.04500000000000004,0.1299999999999999,0.1299999999999999,-0.03503999999999996,0.06542000000000003,-0.39427999999999996,-0.355,0.020000000000000018,0.96,-0.47974000000000006,-0.28186,0.011360000000000037,1742258506.191499
0.14500000000000002,-0.10999999999999999,0.2250000000000001,0.08557999999999999,-0.2525599999999999,-0.19799999999999995,-0.18500000000000005,0.10499999999999998,0.7450000000000001,0.08740000000000014,0.23961999999999994,-0.3466800000000001,1742258506.311383
-0.19500000000000006,-0.18500000000000005,0.565,0.08105999999999991,-0.43957999999999997,0.23863999999999996,-0.09999999999999998,-0.41500000000000004,0.5899999999999999,0.12378,0.5660399999999999,-0.22596000000000005,1742258506.4311838
-0.48,-0.10999999999999999,0.7549999999999999,-0.03198000000000001,-0.08020000000000005,0.4280999999999999,0.10499999999999998,-0.21499999999999997,0.040000000000000036,0.1212200000000001,0.22326000000000001,0.2951600000000001,1742258506.5332448
-0.6,0.42999999999999994,0.6099999999999999,-0.2168,0.2612399999999999,0.12609999999999988,0.07499999999999996,0.28,0.1499999999999999,0.053099999999999925,-0.28186,0.39002000000000003,1742258506.651564
-0.25,0.2849999999999999,0.31499999999999995,-0.12208000000000008,0.33606,-0.28112000000000004,-0.10499999999999998,0.25,0.33000000000000007,0.33409999999999984,-0.51478,-0.1751800000000001,1742258506.771606
0.10000000000000009,0.03499999999999992,0.15500000000000003,-0.05700000000000005,0.09033999999999986,-0.35450000000000004,-0.31000000000000005,0.14000000000000012,0.8399999999999999,-0.10718000000000005,-0.15796,-0.2619600000000001,1742258506.873377
0.1499999999999999,-0.17999999999999994,0.16999999999999993,-0.13085999999999998,-0.36036,-0.11218000000000006,-0.255,-0.345,0.8500000000000001,-0.0697000000000001,0.37158,-0.17431999999999992,1742258506.992217
-0.33000000000000007,-0.07000000000000006,0.635,0.1788399999999999,-0.39136000000000004,0.2522,-0.04500000000000004,-0.21499999999999997,0.3400000000000001,-0.08641999999999994,0.47448,0.0611600000000001,1742258507.111073
-0.58,0.31499999999999995,0.815,-0.12915999999999994,0.03320000000000012,0.38427999999999995,0.16999999999999993,0.06000000000000005,0.020000000000000018,0.11718000000000006,0.2302200000000001,0.26526000000000005,1742258507.215164
-0.36,0.4099999999999999,0.5550000000000002,-0.20323999999999998,0.31884,-0.06762000000000001,0.10000000000000009,0.26,0.10000000000000009,0.26624000000000003,-0.40722,0.15772000000000008,1742258507.331529
-0.07499999999999996,0.20500000000000007,0.19999999999999996,-0.15148000000000006,0.21398000000000006,-0.28137999999999996,-0.29499999999999993,0.21999999999999997,0.625,0.10631999999999997,-0.3457,-0.06176000000000004,1742258507.451216
0.14000000000000012,-0.04500000000000004,0.16500000000000004,-0.08287999999999995,-0.08984000000000003,-0.23131999999999997,-0.355,0.03499999999999992,1.0,-0.04455999999999993,0.06066000000000016,-0.3967200000000001,1742258507.557298
0.06000000000000005,-0.10499999999999998,0.345,-0.22131999999999996,-0.52332,0.08570000000000011,-0.10999999999999999,-0.355,0.6600000000000001,-0.12390000000000001,0.4774200000000002,-0.1902999999999999,1742258507.6715891
-0.495,0.030000000000000027,0.655,-0.01085999999999998,-0.1224400000000001,0.43432000000000004,0.030000000000000027,-0.16500000000000004,0.2749999999999999,0.0343,0.34033999999999986,0.13378,1742258507.791015
-0.575,0.44999999999999996,0.5699999999999998,-0.22253999999999996,0.23706000000000005,0.17700000000000005,0.10000000000000009,0.05499999999999994,0.04499999999999993,0.12316000000000016,0.005239999999999911,0.33153999999999995,1742258507.911427
-0.29499999999999993,0.45500000000000007,0.21999999999999997,-0.08153999999999995,0.26136000000000004,-0.21765999999999996,-0.040000000000000036,0.21500000000000008,0.15999999999999992,0.25195999999999996,-0.47094,0.1573399999999998,1742258508.012467
-0.050000000000000044,0.1499999999999999,0.18999999999999995,0.03308,0.04809999999999981,-0.34814,-0.4,0.41999999999999993,1.0,-0.2118,-0.2993199999999999,-0.036739999999999995,1742258508.131326
0.125,-0.015000000000000013,0.20999999999999996,-0.03917999999999999,-0.32433999999999996,-0.10608000000000006,-0.25,-0.09499999999999997,0.78,0.29346000000000005,0.13707999999999987,-0.5841000000000001,1742258508.251544
-0.28,0.08000000000000007,0.53,-0.04027999999999998,-0.30310000000000004,0.18676000000000004,-0.05500000000000005,-0.405,0.44500000000000006,0.045660000000000034,0.45079999999999987,-0.0625,1742258508.354322
-0.4650000000000001,0.040000000000000036,0.79,0.08972000000000002,0.08826,0.4042999999999999,0.08499999999999996,-0.15000000000000002,0.050000000000000044,0.10985999999999985,0.2732000000000001,0.2983399999999998,1742258508.4715168
-0.57,0.635,0.33499999999999996,-0.4240799999999999,0.3050599999999999,-0.055419999999999914,0.06499999999999995,0.23499999999999988,0.10499999999999998,0.12194000000000016,-0.28466000000000014,0.33654000000000006,1742258508.590461
-0.16500000000000004,0.3400000000000001,0.10499999999999998,0.002080000000000082,0.22326000000000001,-0.32020000000000004,-0.19500000000000006,0.2849999999999999,0.5350000000000001,0.17321999999999993,-0.50732,0.013919999999999932,1742258508.6952288
0.125,0.06499999999999995,0.125,0.018059999999999965,-0.10681999999999992,-0.27662,-0.31000000000000005,0.355,0.9300000000000002,0.08948,-0.09129999999999994,-0.4865799999999999,1742258508.811556
0.14500000000000002,-0.040000000000000036,0.21999999999999997,0.07764000000000015,-0.359,0.05298000000000003,-0.17000000000000004,-0.6,0.7450000000000001,0.043460000000000054,0.4329799999999999,-0.25939999999999996,1742258508.931367
-0.3400000000000001,-0.30000000000000004,0.8599999999999999,0.35131999999999985,-0.2633,0.27147999999999994,0.03499999999999992,-0.385,0.18500000000000005,0.10596000000000005,0.29381999999999997,0.1790799999999999,1742258509.037118
-0.535,0.385,0.645,-0.35107999999999995,0.2389000000000001,0.1790799999999999,0.050000000000000044,0.06499999999999995,0.06000000000000005,0.07397999999999993,-0.14415999999999995,0.38659999999999983,1742258509.1511638
-0.24,0.4650000000000001,0.16500000000000004,-0.17652,0.2673399999999999,-0.21655999999999997,-0.07000000000000006,0.355,0.2849999999999999,0.21448,-0.48278,0.17724000000000006,1742258509.273288
0.014999999999999902,0.19999999999999996,0.06499999999999995,0.04932000000000003,0.04090000000000016,-0.31542000000000003,-0.345,0.2749999999999999,1.0,-0.030279999999999974,-0.2943199999999999,-0.23584000000000005,1742258509.394167
0.125,-0.040000000000000036,0.28,0.06616,-0.3501000000000001,-0.12890000000000001,-0.275,-0.33000000000000007,0.7349999999999999,0.3819600000000001,0.48009999999999997,-0.4375,1742258509.494205
-0.26,0.014999999999999902,0.6800000000000002,0.10864000000000007,-0.22436,0.20763999999999982,0.03499999999999992,-0.5,0.20500000000000007,-0.011600000000000055,0.42613999999999996,0.09436,1742258509.61173
-0.31499999999999995,-0.030000000000000027,0.7549999999999999,-0.06774000000000002,0.08409999999999984,0.37170000000000014,0.1200000000000001,-0.15500000000000003,-0.0050000000000000044,0.06640000000000001,0.06407999999999991,0.36229999999999984,1742258509.733133
-0.38,0.44999999999999996,0.54,-0.21314,0.30908,0.0577399999999999,0.014999999999999902,0.2849999999999999,0.1499999999999999,0.01110000000000011,-0.39074,0.36583999999999994,1742258509.835287
-0.06499999999999995,0.355,0.125,-0.11084000000000005,0.23059999999999992,-0.28296,-0.30499999999999994,0.29000000000000004,0.585,0.19933999999999985,-0.4293199999999999,-0.10363999999999995,1742258509.956592
0.17999999999999994,0.05499999999999994,0.1499999999999999,0.012700000000000156,-0.17700000000000005,-0.28001999999999994,-0.31000000000000005,-0.135,1.0,0.23327999999999993,0.11035999999999979,-0.43348,1742258510.072564
0.04499999999999993,-0.12,0.42999999999999994,-0.04920000000000002,-0.47498000000000007,0.011719999999999953,-0.16000000000000003,-0.725,0.5,-0.11548000000000003,0.5910599999999999,-0.10411999999999999,1742258510.191902
-0.33499999999999996,0.07499999999999996,0.7149999999999999,0.033560000000000034,-0.1224400000000001,0.2819800000000001,0.004999999999999893,-0.22999999999999998,0.16500000000000004,-0.03917999999999999,0.44666000000000006,0.27746000000000004,1742258510.29213
-0.45999999999999996,0.2749999999999999,0.665,-0.12208000000000008,0.20666000000000007,0.2695399999999999,0.20999999999999996,0.07000000000000006,-0.10999999999999999,0.033560000000000034,-0.012940000000000063,0.25916000000000006,1742258510.4123552
-0.29499999999999993,0.49,0.33000000000000007,-0.21192,0.3116399999999999,-0.14100000000000001,0.02499999999999991,0.15500000000000003,0.15999999999999992,0.21423999999999999,-0.53162,0.11694000000000004,1742258510.533293
0.030000000000000027,0.21500000000000008,0.07000000000000006,-0.03870000000000007,0.13416000000000006,-0.3206800000000001,-0.355,0.595,0.885,-0.26172000000000006,-0.63086,-0.19396000000000002,1742258510.632448
0.15999999999999992,-0.025000000000000022,0.20999999999999996,0.022699999999999942,-0.29688000000000003,-0.18065999999999993,-0.32000000000000006,-0.17500000000000004,0.9199999999999999,0.25366,0.3614600000000001,-0.5033000000000001,1742258510.752106
-0.14500000000000002,-0.15500000000000003,0.52,0.005239999999999911,-0.38464,0.20288000000000017,0.020000000000000018,-0.645,0.28,0.19202000000000008,0.5565199999999999,-0.04455999999999993,1742258510.872828
-0.515,0.15500000000000003,0.845,-0.11351999999999995,0.02855999999999992,0.44433999999999996,0.1100000000000001,-0.22999999999999998,-0.04500000000000004,0.12805999999999984,0.13050000000000006,0.3135999999999999,1742258510.97424
-0.53,0.7850000000000001,0.355,-0.43164,0.27502000000000004,0.04821999999999993,0.050000000000000044,0.16999999999999993,0.09000000000000008,0.06494,-0.4035599999999999,0.38549999999999995,1742258511.088046
-0.18500000000000005,0.30499999999999994,0.19999999999999996,-0.020379999999999954,0.20496000000000003,-0.30224000000000006,-0.255,0.33499999999999996,0.47,0.27404000000000006,-0.708,0.018059999999999965,1742258511.2122009
0.10000000000000009,0.1100000000000001,0.09499999999999997,0.0017000000000000348,-0.03149999999999997,-0.27844,-0.45999999999999996,-0.0050000000000000044,1.0,-0.00770000000000004,-0.11853999999999998,-0.45228,1742258511.31547
0.20500000000000007,-0.19999999999999996,0.15999999999999992,-0.12158000000000002,-0.45775999999999994,-0.03051999999999999,-0.20999999999999996,-0.47,0.7349999999999999,-0.036619999999999986,0.41906,-0.32898000000000005,1742258511.433674
-0.535,0.09499999999999997,0.7850000000000001,0.2561,-0.22741999999999996,0.375,0.0,-0.42999999999999994,0.24,0.05711999999999984,0.4765599999999999,0.14159999999999995,1742258511.5545542
-0.62,0.355,0.6699999999999999,-0.32677999999999996,0.20263999999999993,0.24816000000000016,0.09000000000000008,0.09499999999999997,0.0,0.15429999999999988,0.0046399999999999775,0.39549999999999996,1742258511.67225
-0.345,0.5049999999999999,0.19999999999999996,-0.13488,0.32386000000000004,-0.20811999999999997,-0.030000000000000027,0.45999999999999996,0.21999999999999997,0.23694000000000015,-0.49095999999999995,0.16198,1742258511.772424
-0.015000000000000013,0.19500000000000006,0.1100000000000001,-0.0014600000000000168,0.07190000000000007,-0.35753999999999997,-0.3400000000000001,0.16999999999999993,0.875,-0.06347999999999998,-0.41688000000000003,-0.14427999999999996,1742258511.892149
0.09000000000000008,0.020000000000000018,0.25,-0.044440000000000035,-0.29052,-0.1802999999999999,-0.395,-0.20499999999999996,1.0,-0.026739999999999986,0.14440000000000008,-0.5035400000000001,1742258512.012806
-0.025000000000000022,0.010000000000000009,0.56,0.07397999999999993,-0.31372,0.20618000000000003,-0.010000000000000009,-0.31499999999999995,0.32499999999999996,-0.005499999999999949,0.5703200000000002,-0.0968,1742258512.113248
-0.405,0.09499999999999997,0.825,0.24682000000000004,0.07714000000000021,0.38281999999999994,0.15500000000000003,-0.09999999999999998,0.014999999999999902,0.15881999999999996,0.20984000000000003,0.23340000000000005,1742258512.226188
-0.345,0.47,0.52,-0.16137999999999997,0.29747999999999997,0.03503999999999996,0.08000000000000007,0.19500000000000006,0.135,0.32642000000000015,-0.42138,0.33531999999999984,1742258512.352553
-0.10999999999999999,0.2849999999999999,0.23499999999999988,-0.09838000000000002,0.24780000000000002,-0.23060000000000003,-0.22499999999999998,0.24,0.585,0.19166000000000016,-0.3419200000000001,-0.15698,1742258512.454346
0.1200000000000001,0.09499999999999997,0.16500000000000004,-0.03198000000000001,-0.03601999999999994,-0.23509999999999998,-0.4,-0.04500000000000004,1.0,0.0008600000000000829,0.07788000000000017,-0.56214,1742258512.575614
0.1100000000000001,-0.07999999999999996,0.3500000000000001,-0.039919999999999956,-0.36048,0.006839999999999957,-0.135,-0.69,0.595,0.08948,0.5876399999999999,-0.16955999999999993,1742258512.695307
-0.22999999999999998,-0.030000000000000027,0.6400000000000001,-0.025639999999999996,-0.24597999999999998,0.3517999999999999,0.07499999999999996,-0.265,0.08499999999999996,0.05455999999999994,0.4018600000000001,0.3103,1742258512.79618
-0.675,0.53,0.7749999999999999,-0.07275999999999994,0.06872000000000011,0.32508000000000004,0.09499999999999997,0.1499999999999999,-0.05500000000000005,0.20276000000000005,-0.11791999999999991,0.41784,1742258512.914161
-0.28,0.30000000000000004,0.355,-0.11621999999999999,0.34875999999999996,-0.16381999999999997,-0.125,0.33499999999999996,0.3799999999999999,0.3687799999999999,-0.5725,0.008419999999999872,1742258513.034555
-0.04500000000000004,0.22999999999999998,0.14000000000000012,-0.006460000000000021,0.20092,-0.25708,-0.15000000000000002,-0.26,1.0,0.41394,-0.19055999999999995,-0.44823999999999997,1742258513.1526022
0.1200000000000001,0.030000000000000027,0.22999999999999998,-0.12988,-0.17652,-0.28296,-0.18999999999999995,-0.485,0.675,0.25892000000000004,0.5138,-0.34129999999999994,1742258513.2560692
-0.015000000000000013,-0.0050000000000000044,0.4950000000000001,-0.24731999999999998,-0.26368,0.09864000000000006,-0.03500000000000003,-0.4099999999999999,0.27,0.05726000000000009,0.45520000000000005,0.1663800000000002,1742258513.373302
-0.265,0.25,0.7349999999999999,0.11976000000000009,0.0623800000000001,0.36426000000000003,0.1299999999999999,-0.41500000000000004,-0.05500000000000005,0.009400000000000075,0.19921999999999995,0.22876000000000007,1742258513.49362
-0.4099999999999999,0.665,0.605,-0.09338000000000002,0.24327999999999994,0.10352000000000006,0.17999999999999994,-0.06499999999999995,-0.030000000000000027,-0.04577999999999993,-0.30188000000000004,0.42003999999999997,1742258513.594351
-0.16500000000000004,0.33499999999999996,0.32499999999999996,-0.009639999999999982,0.32713999999999976,-0.2208199999999999,0.030000000000000027,0.31499999999999995,0.3900000000000001,0.008920000000000039,-0.5136799999999999,0.26844,1742258513.712285
0.07000000000000006,0.20500000000000007,0.1299999999999999,0.024660000000000126,0.17432000000000003,-0.2586600000000001,-0.125,0.49,0.75,-0.10289999999999999,-0.29882,-0.1372000000000001,1742258513.834943
0.18500000000000005,0.020000000000000018,0.14000000000000012,-0.03088000000000002,-0.23218000000000005,-0.11815999999999993,-0.125,-0.19999999999999996,0.9950000000000001,0.26794000000000007,0.14368000000000003,-0.50208,1742258513.936298
0.030000000000000027,-0.09999999999999998,0.43500000000000005,-0.042240000000000055,-0.4608199999999999,0.16857999999999995,0.06499999999999995,-0.41500000000000004,0.3900000000000001,-0.057740000000000014,0.4032,0.022460000000000147,1742258514.055018
-0.4650000000000001,0.10499999999999998,0.7850000000000001,0.016960000000000086,-0.14454,0.4317599999999999,0.1200000000000001,-0.09999999999999998,0.07000000000000006,0.06103999999999998,0.16198,0.2741600000000002,1742258514.172574
-0.545,0.675,0.6299999999999999,-0.35302,0.21629999999999994,0.058599999999999985,0.1100000000000001,0.16999999999999993,0.10499999999999998,0.12853999999999988,-0.25683999999999996,0.27698,1742258514.277146
-0.22999999999999998,0.45500000000000007,0.21999999999999997,-0.1799400000000001,0.2870999999999999,-0.29064,-0.11499999999999999,0.2849999999999999,0.42500000000000004,0.26844,-0.4782799999999999,-0.053340000000000054,1742258514.395642
0.06000000000000005,0.20999999999999996,0.03499999999999992,-0.20689999999999997,-0.11815999999999993,-0.34033999999999986,-0.29000000000000004,0.020000000000000018,1.0,-0.03479999999999994,-0.16637999999999997,-0.25892000000000004,1742258514.513591
0.07499999999999996,-0.10499999999999998,0.27,0.044440000000000035,-0.46802,-0.025519999999999987,-0.125,-0.32499999999999996,0.825,-0.04052,0.32555999999999985,-0.35583999999999993,1742258514.632061
-0.2849999999999999,-0.020000000000000018,0.6099999999999999,0.05078000000000005,-0.34448,0.3807400000000001,-0.010000000000000009,-0.33499999999999996,0.19999999999999996,0.1606399999999999,0.48131999999999997,0.055299999999999905,1742258514.73496
-0.615,0.43500000000000005,0.69,0.028939999999999966,0.22411999999999987,0.36792,0.125,0.030000000000000027,-0.020000000000000018,0.10242000000000018,-0.011240000000000028,0.34094,1742258514.8559291
-0.42500000000000004,0.5449999999999999,0.33000000000000007,-0.2279,0.26966,-0.16027999999999998,0.05499999999999994,0.28,0.1499999999999999,0.18309999999999982,-0.48107999999999995,0.1557599999999999,1742258514.973259
-0.14500000000000002,0.27,0.1299999999999999,-0.09753999999999996,0.24583999999999984,-0.3668199999999999,-0.345,0.14000000000000012,0.655,0.06773999999999991,-0.49095999999999995,-0.11402000000000001,1742258515.075316
0.1200000000000001,0.020000000000000018,0.10499999999999998,-0.012319999999999998,-0.18212000000000006,-0.2207,-0.31499999999999995,0.04499999999999993,0.8999999999999999,0.11035999999999979,0.17503999999999986,-0.4388399999999999,1742258515.192348
0.004999999999999893,-0.025000000000000022,0.41999999999999993,0.14246000000000003,-0.2878399999999999,0.09388000000000019,-0.14500000000000002,-0.345,0.645,0.01537999999999995,0.39050000000000007,-0.15734000000000004,1742258515.313463
-0.29000000000000004,0.040000000000000036,0.845,0.1665000000000001,-0.0907,0.3422799999999999,0.004999999999999893,-0.30000000000000004,0.20999999999999996,0.09045999999999998,0.4120999999999999,0.13598,1742258515.433108
-0.4650000000000001,0.47,0.7250000000000001,-0.33055999999999996,0.1975,0.1751800000000001,0.10499999999999998,0.07499999999999996,0.04499999999999993,0.1494200000000001,-0.022220000000000018,0.39222,1742258515.531116
-0.22499999999999998,0.45500000000000007,0.2250000000000001,-0.18188000000000004,0.31176000000000004,-0.14612000000000003,-0.09499999999999997,0.3599999999999999,0.43999999999999995,0.23072000000000004,-0.54162,0.14196000000000009,1742258515.652706
-0.0050000000000000044,0.23499999999999988,0.06000000000000005,-0.10096000000000005,0.08031999999999995,-0.30896,-0.19999999999999996,0.3599999999999999,0.98,0.10328000000000004,0.08397999999999994,-0.48851999999999995,1742258515.774011
