L-AccX,L-AccY,L-AccZ,L-GyrX,L-GyrY,L-GyrZ,R-AccX,R-AccY,R-AccZ,R-GyrX,R-GyrY,R-GyrZ,timestamp
0.06000000000000005,0.2650000000000001,0.41500000000000004,0.009759999999999991,-0.01648000000000005,-0.02088000000000001,0.21500000000000008,-0.12,-0.42999999999999994,0.0039000000000000146,0.03161999999999998,0.029900000000000038,1742256950.554716
0.06499999999999995,0.23499999999999988,0.41999999999999993,0.0006200000000000649,-0.009399999999999964,-0.021480000000000055,0.21999999999999997,-0.09499999999999997,-0.44500000000000006,-0.0007399999999999629,0.02733999999999992,0.03222000000000014,1742256950.668601
0.06000000000000005,0.2549999999999999,0.42500000000000004,0.007560000000000011,0.0019599999999999618,-0.005739999999999967,0.19999999999999996,-0.08999999999999997,-0.44500000000000006,-0.0006199999999999539,0.0041599999999999415,0.008419999999999872,1742256950.782706
0.06000000000000005,0.2549999999999999,0.41999999999999993,-0.0008599999999999719,-0.0045199999999999685,0.001100000000000101,0.20999999999999996,-0.09499999999999997,-0.43999999999999995,0.007560000000000011,0.015859999999999985,0.001100000000000101,1742256950.8965492
0.06000000000000005,0.2650000000000001,0.42500000000000004,0.0030599999999998406,-0.0023200000000000998,0.00878000000000001,0.20999999999999996,-0.09999999999999998,-0.44500000000000006,0.00011999999999989797,0.00770000000000004,-0.008179999999999965,1742256951.014866
0.06000000000000005,0.2749999999999999,0.41500000000000004,-0.00036000000000002697,0.00048000000000003595,-0.00036000000000002697,0.20500000000000007,-0.10999999999999999,-0.44999999999999996,0.0018400000000000638,0.009279999999999955,0.0012199999999999989,1742256951.123615
0.06000000000000005,0.2650000000000001,0.41999999999999993,0.002080000000000082,-0.0027999999999999137,-0.007080000000000086,0.19999999999999996,-0.09499999999999997,-0.44999999999999996,0.009400000000000075,0.014639999999999986,0.013919999999999932,1742256951.237563
0.06000000000000005,0.2549999999999999,0.42500000000000004,0.0042800000000000615,-0.0041599999999999415,-0.0022000000000000908,0.19500000000000006,-0.08499999999999996,-0.45500000000000007,0.002080000000000082,0.008920000000000039,0.007560000000000011,1742256951.356024
0.06000000000000005,0.26,0.42500000000000004,0.0025599999999998957,0.0021999999999999797,0.005619999999999958,0.19500000000000006,-0.08499999999999996,-0.45500000000000007,-0.00036000000000002697,0.0032999999999998586,-0.008919999999999928,1742256951.46544
0.06000000000000005,0.2650000000000001,0.42500000000000004,0.0030599999999998406,-0.00048000000000003595,0.0014600000000000168,0.18500000000000005,-0.09999999999999998,-0.45999999999999996,0.0023200000000000998,0.005980000000000096,-0.0041599999999999415,1742256951.57852
0.06000000000000005,0.2650000000000001,0.41999999999999993,0.006340000000000012,-0.006460000000000021,-0.00012000000000000899,0.17999999999999994,-0.09999999999999998,-0.44999999999999996,0.008920000000000039,0.012700000000000156,-0.005240000000000022,1742256951.6944818
0.05499999999999994,0.26,0.42500000000000004,-0.0024400000000001087,-0.005739999999999967,-0.005859999999999976,0.16999999999999993,-0.08499999999999996,-0.4650000000000001,0.007560000000000011,0.006839999999999957,-0.002080000000000082,1742256951.805692
0.06000000000000005,0.2549999999999999,0.42999999999999994,-0.010000000000000009,-0.007940000000000058,-0.00024000000000001798,0.17999999999999994,-0.09499999999999997,-0.47,-0.0024400000000001087,0.0043999999999999595,0.00024000000000001798,1742256951.919629
0.04499999999999993,0.26,0.42500000000000004,-0.008660000000000001,-0.0034199999999999786,-0.0009799999999999809,0.17500000000000004,-0.08499999999999996,-0.4650000000000001,0.0014600000000000168,-0.0012199999999999989,0.0017000000000000348,1742256952.034254
0.050000000000000044,0.26,0.41999999999999993,0.0013400000000001189,-0.009159999999999946,0.0026800000000000157,0.17500000000000004,-0.08499999999999996,-0.45999999999999996,0.0031799999999999606,0.00878000000000001,-0.0032999999999999696,1742256952.147415
0.04499999999999993,0.2650000000000001,0.41999999999999993,-0.00660000000000005,-0.005859999999999976,0.0012199999999999989,0.16999999999999993,-0.08999999999999997,-0.4650000000000001,-0.00012000000000000899,0.007079999999999975,-0.0013400000000000079,1742256952.260502
0.04499999999999993,0.27,0.41999999999999993,-0.0043999999999999595,0.0019599999999999618,-0.0022000000000000908,0.17500000000000004,-0.08999999999999997,-0.4650000000000001,-0.0008599999999999719,-0.0040200000000000236,0.0019599999999999618,1742256952.376223
0.040000000000000036,0.26,0.41999999999999993,0.0008600000000000829,0.0032999999999998586,0.0015800000000001369,0.16999999999999993,-0.07999999999999996,-0.4650000000000001,-0.0006199999999999539,-0.0047599999999999865,-0.0026799999999999047,1742256952.4875898
0.04499999999999993,0.2650000000000001,0.41999999999999993,0.0021999999999999797,0.005619999999999958,0.0021999999999999797,0.17500000000000004,-0.09499999999999997,-0.4650000000000001,0.0008600000000000829,-0.001960000000000073,-0.006340000000000012,1742256952.601513
0.05499999999999994,0.26,0.42500000000000004,0.0040199999999999125,0.007560000000000011,-0.0026799999999999047,0.17500000000000004,-0.09499999999999997,-0.4650000000000001,0.0030599999999998406,-0.0037800000000000056,-0.0018400000000000638,1742256952.71552
0.05499999999999994,0.26,0.41999999999999993,0.0007399999999999629,0.005980000000000096,-0.0041599999999999415,0.17500000000000004,-0.08999999999999997,-0.45999999999999996,0.0023200000000000998,-0.0023200000000000998,0.0006200000000000649,1742256952.833042
0.05499999999999994,0.26,0.42500000000000004,0.0006200000000000649,0.0014600000000000168,-0.005499999999999949,0.17500000000000004,-0.08499999999999996,-0.4650000000000001,0.0034199999999999786,0.0034199999999999786,0.0048799999999999955,1742256952.943344
0.05499999999999994,0.2549999999999999,0.42999999999999994,-0.002080000000000082,-0.0006199999999999539,-0.0032999999999999696,0.17500000000000004,-0.07499999999999996,-0.4650000000000001,-0.00048000000000003595,0.0031799999999999606,0.0040199999999999125,1742256953.057442
0.06000000000000005,0.25,0.42500000000000004,0.0034199999999999786,0.00024000000000001798,0.010140000000000038,0.16999999999999993,-0.06499999999999995,-0.45999999999999996,-0.0026799999999999047,0.008539999999999992,-0.01305999999999996,1742256953.174668
0.04499999999999993,0.28,0.41999999999999993,-0.0018400000000000638,0.0009799999999999809,0.006460000000000132,0.16500000000000004,-0.09999999999999998,-0.47,-0.0007399999999999629,0.00550000000000006,-0.00782000000000005,1742256953.28553
0.06000000000000005,0.2650000000000001,0.41999999999999993,0.0014600000000000168,0.0012199999999999989,-0.0027999999999999137,0.16999999999999993,-0.08999999999999997,-0.45999999999999996,0.0031799999999999606,0.0032999999999998586,0.0012199999999999989,1742256953.399292
0.06000000000000005,0.26,0.42500000000000004,-0.00012000000000000899,-0.0024400000000001087,-0.005240000000000022,0.16500000000000004,-0.08499999999999996,-0.4650000000000001,0.0019599999999999618,0.009640000000000093,0.005619999999999958,1742256953.513554
0.05499999999999994,0.26,0.42999999999999994,0.00024000000000001798,-0.0031799999999999606,-0.0046399999999999775,0.16500000000000004,-0.07999999999999996,-0.47,0.002080000000000082,0.0023200000000000998,0.0040199999999999125,1742256953.627305
0.05499999999999994,0.2549999999999999,0.42500000000000004,-0.0009799999999999809,0.0006200000000000649,-0.001960000000000073,0.15999999999999992,-0.07499999999999996,-0.4650000000000001,0.0007399999999999629,0.0015800000000001369,0.0,1742256953.741284
0.05499999999999994,0.2650000000000001,0.42500000000000004,-0.0030599999999999516,0.0023200000000000998,0.002080000000000082,0.15999999999999992,-0.08499999999999996,-0.47,-0.0007399999999999629,0.0025599999999998957,-0.0041599999999999415,1742256953.8555148
0.05499999999999994,0.2650000000000001,0.42500000000000004,0.0009799999999999809,0.0026800000000000157,-0.0007399999999999629,0.15500000000000003,-0.08999999999999997,-0.475,0.0006200000000000649,0.006220000000000114,0.0007399999999999629,1742256953.9693491
0.06499999999999995,0.26,0.42500000000000004,0.0026800000000000157,0.001100000000000101,-0.0046399999999999775,0.15999999999999992,-0.08499999999999996,-0.47,0.0021999999999999797,0.0030599999999998406,0.0023200000000000998,1742256954.083363
0.05499999999999994,0.26,0.42999999999999994,0.007200000000000095,0.00035999999999991594,-0.00537999999999994,0.1499999999999999,-0.07999999999999996,-0.475,0.005120000000000013,0.0008600000000000829,0.0014600000000000168,1742256954.197439
0.06000000000000005,0.25,0.42999999999999994,0.007940000000000058,0.0039000000000000146,-0.0035399999999999876,0.15500000000000003,-0.06499999999999995,-0.475,0.0048799999999999955,-0.0018400000000000638,-0.0025599999999998957,1742256954.3141692
0.06000000000000005,0.2549999999999999,0.42500000000000004,0.0025599999999998957,0.0045200000000000795,0.0047600000000000975,0.1499999999999999,-0.08499999999999996,-0.47,-0.00012000000000000899,-0.006720000000000059,-0.00878000000000001,1742256954.425524
0.06499999999999995,0.2549999999999999,0.42500000000000004,0.0019599999999999618,0.0015800000000001369,-0.0012199999999999989,0.15999999999999992,-0.07999999999999996,-0.47,0.0018400000000000638,-0.0008599999999999719,0.0018400000000000638,1742256954.539445
0.06499999999999995,0.25,0.42500000000000004,0.0036599999999999966,-0.00024000000000001798,-0.0013400000000000079,0.15500000000000003,-0.07999999999999996,-0.4650000000000001,0.0017000000000000348,0.0036599999999999966,0.0019599999999999618,1742256954.65424
0.06499999999999995,0.2450000000000001,0.42999999999999994,0.007319999999999993,-0.0047599999999999865,-0.0008599999999999719,0.15500000000000003,-0.07499999999999996,-0.475,0.001100000000000101,0.010259999999999936,0.0030599999999998406,1742256954.767295
0.06499999999999995,0.2450000000000001,0.42999999999999994,0.0037799999999998946,-0.0029199999999999227,0.0026800000000000157,0.15500000000000003,-0.07499999999999996,-0.475,-0.00012000000000000899,0.0029200000000000337,-0.0027999999999999137,1742256954.881541
0.06000000000000005,0.2450000000000001,0.42999999999999994,0.0021999999999999797,-0.0014600000000000168,0.0007399999999999629,0.14500000000000002,-0.07999999999999996,-0.475,0.0014600000000000168,0.005239999999999911,-0.0007399999999999629,1742256954.995426
0.06000000000000005,0.2450000000000001,0.42999999999999994,0.0040199999999999125,-0.0022000000000000908,0.00024000000000001798,0.14500000000000002,-0.07999999999999996,-0.475,0.00024000000000001798,0.014639999999999986,-0.0007399999999999629,1742256955.109452
0.06000000000000005,0.2450000000000001,0.43500000000000005,-0.0018400000000000638,-0.001960000000000073,0.0006200000000000649,0.14000000000000012,-0.07999999999999996,-0.475,-0.0031799999999999606,0.006099999999999994,0.0009799999999999809,1742256955.223347
0.05499999999999994,0.2450000000000001,0.43500000000000005,-0.0015800000000000258,-0.0025599999999998957,-0.0008599999999999719,0.14500000000000002,-0.07999999999999996,-0.485,-0.0043999999999999595,-0.0024400000000001087,0.0035399999999998766,1742256955.3374348
0.06000000000000005,0.2450000000000001,0.42999999999999994,0.0034199999999999786,-0.0018400000000000638,-0.0024400000000001087,0.14000000000000012,-0.07999999999999996,-0.475,0.0008600000000000829,0.0036599999999999966,0.0035399999999998766,1742256955.4531462
0.06000000000000005,0.24,0.43500000000000005,0.00035999999999991594,-0.0029199999999999227,-0.00024000000000001798,0.14500000000000002,-0.08499999999999996,-0.495,-0.0023200000000000998,0.0006200000000000649,0.0037799999999998946,1742256955.5653691
0.05499999999999994,0.2450000000000001,0.42999999999999994,0.007940000000000058,-0.0030599999999999516,0.0021999999999999797,0.14000000000000012,-0.08999999999999997,-0.47,-0.0024400000000001087,0.005619999999999958,0.0024399999999999977,1742256955.6793668
0.06000000000000005,0.24,0.43500000000000005,0.0019599999999999618,0.0,-0.00048000000000003595,0.14000000000000012,-0.08499999999999996,-0.475,-0.00036000000000002697,0.0021999999999999797,0.00048000000000003595,1742256955.793886
0.05499999999999994,0.2450000000000001,0.43500000000000005,-0.00048000000000003595,-0.0010999999999999899,0.0008600000000000829,0.135,-0.07999999999999996,-0.48,0.00048000000000003595,0.0048799999999999955,-0.0012199999999999989,1742256955.9075148
0.05499999999999994,0.2450000000000001,0.43500000000000005,-0.00048000000000003595,-0.00012000000000000899,-0.00024000000000001798,0.1299999999999999,-0.08499999999999996,-0.475,-0.0006199999999999539,0.0009799999999999809,0.0008600000000000829,1742256956.0213592
0.05499999999999994,0.2450000000000001,0.43500000000000005,-0.0009799999999999809,-0.00024000000000001798,-0.0006199999999999539,0.1299999999999999,-0.08499999999999996,-0.475,0.00048000000000003595,0.0031799999999999606,-0.00036000000000002697,1742256956.135453
0.05499999999999994,0.2450000000000001,0.43500000000000005,0.00035999999999991594,-0.0009799999999999809,0.001100000000000101,0.1299999999999999,-0.08999999999999997,-0.48,-0.0007399999999999629,0.0042800000000000615,-0.0017000000000000348,1742256956.2501729
0.05499999999999994,0.2450000000000001,0.43500000000000005,0.0006200000000000649,-0.00024000000000001798,-0.00036000000000002697,0.1299999999999999,-0.08499999999999996,-0.475,0.0,0.0025599999999998957,0.00011999999999989797,1742256956.363369
0.05499999999999994,0.2450000000000001,0.43500000000000005,0.0009799999999999809,-0.0010999999999999899,-0.0009799999999999809,0.1299999999999999,-0.08499999999999996,-0.48,0.001100000000000101,0.0019599999999999618,0.00048000000000003595,1742256956.477334
0.05499999999999994,0.2450000000000001,0.43500000000000005,0.0012199999999999989,-0.0010999999999999899,-0.0009799999999999809,0.1299999999999999,-0.08499999999999996,-0.48,0.0024399999999999977,0.0017000000000000348,0.001100000000000101,1742256956.593916
0.05499999999999994,0.2450000000000001,0.43500000000000005,-0.0040200000000000236,0.0023200000000000998,-0.0015800000000000258,0.125,-0.08499999999999996,-0.475,0.0024399999999999977,0.0017000000000000348,0.0008600000000000829,1742256956.7052438
0.05499999999999994,0.2450000000000001,0.43500000000000005,0.0013400000000001189,-0.0007399999999999629,-0.001960000000000073,0.1299999999999999,-0.08499999999999996,-0.48,0.0018400000000000638,0.0013400000000001189,0.0040199999999999125,1742256956.819371
0.05499999999999994,0.2450000000000001,0.43500000000000005,0.00024000000000001798,-0.001960000000000073,-0.00036000000000002697,0.135,-0.07999999999999996,-0.48,0.0034199999999999786,0.005239999999999911,-0.0007399999999999629,1742256956.933355
0.05499999999999994,0.2450000000000001,0.43500000000000005,0.002080000000000082,-0.0017000000000000348,0.0008600000000000829,0.125,-0.08499999999999996,-0.48,0.0007399999999999629,0.0040199999999999125,0.0006200000000000649,1742256957.047342
0.05499999999999994,0.24,0.43500000000000005,0.0006200000000000649,-0.0014600000000000168,-0.00012000000000000899,0.125,-0.08499999999999996,-0.48,0.001100000000000101,0.0031799999999999606,-0.00012000000000000899,1742256957.161348
0.050000000000000044,0.23499999999999988,0.43500000000000005,0.001100000000000101,-0.0010999999999999899,0.0006200000000000649,0.1200000000000001,-0.07999999999999996,-0.48,-0.00036000000000002697,0.0014600000000000168,0.00024000000000001798,1742256957.275362
0.05499999999999994,0.24,0.43999999999999995,0.0025599999999998957,-0.0025599999999998957,-0.00012000000000000899,0.1200000000000001,-0.07999999999999996,-0.48,0.0007399999999999629,0.002080000000000082,0.00011999999999989797,1742256957.3894532
0.050000000000000044,0.23499999999999988,0.43500000000000005,0.0013400000000001189,-0.0009799999999999809,-0.0010999999999999899,0.1200000000000001,-0.07999999999999996,-0.48,0.0006200000000000649,-0.002080000000000082,0.0019599999999999618,1742256957.503318
0.050000000000000044,0.23499999999999988,0.43999999999999995,-0.0014600000000000168,-0.0007399999999999629,0.0006200000000000649,0.1299999999999999,-0.08499999999999996,-0.485,0.00011999999999989797,-0.005739999999999967,0.0015800000000001369,1742256957.617264
0.050000000000000044,0.23499999999999988,0.43999999999999995,0.0035399999999998766,0.0017000000000000348,0.0015800000000001369,0.125,-0.07999999999999996,-0.485,0.0024399999999999977,-0.0018400000000000638,-0.00024000000000001798,1742256957.734256
0.06000000000000005,0.23499999999999988,0.43500000000000005,-0.001960000000000073,0.0030599999999998406,0.00048000000000003595,0.125,-0.07999999999999996,-0.48,0.0026800000000000157,-0.006220000000000003,-0.00012000000000000899,1742256957.8454568
0.05499999999999994,0.2450000000000001,0.44500000000000006,-0.0027999999999999137,-0.0018400000000000638,0.0007399999999999629,0.1299999999999999,-0.07999999999999996,-0.475,0.0017000000000000348,-0.0050000000000000044,0.0006200000000000649,1742256957.95928
0.050000000000000044,0.24,0.43999999999999995,0.0019599999999999618,0.0009799999999999809,-0.0025599999999998957,0.1299999999999999,-0.07999999999999996,-0.475,0.0035399999999998766,-0.00036000000000002697,0.00048000000000003595,1742256958.0741131
0.05499999999999994,0.23499999999999988,0.43500000000000005,0.0031799999999999606,0.00048000000000003595,0.0006200000000000649,0.1299999999999999,-0.07999999999999996,-0.48,0.00024000000000001798,0.0025599999999998957,0.00011999999999989797,1742256958.187274
0.05499999999999994,0.23499999999999988,0.43500000000000005,0.00011999999999989797,0.0009799999999999809,-0.00048000000000003595,0.1299999999999999,-0.08499999999999996,-0.475,-0.00012000000000000899,-0.0032999999999999696,-0.00012000000000000899,1742256958.301467
0.05499999999999994,0.24,0.43999999999999995,-0.0037800000000000056,-0.0008599999999999719,-0.00024000000000001798,0.1299999999999999,-0.07999999999999996,-0.475,0.00011999999999989797,-0.0050000000000000044,0.0006200000000000649,1742256958.417239
0.050000000000000044,0.24,0.43999999999999995,-0.0009799999999999809,-0.0035399999999999876,-0.0008599999999999719,0.1299999999999999,-0.07999999999999996,-0.475,-0.0024400000000001087,0.005239999999999911,-0.0006199999999999539,1742256958.531307
0.05499999999999994,0.23499999999999988,0.43500000000000005,-0.0017000000000000348,-0.0025599999999998957,-0.00012000000000000899,0.1299999999999999,-0.08499999999999996,-0.48,-0.0013400000000000079,-0.0010999999999999899,0.00011999999999989797,1742256958.643357
0.050000000000000044,0.23499999999999988,0.43999999999999995,-0.0032999999999999696,-0.00537999999999994,0.00011999999999989797,0.125,-0.07499999999999996,-0.48,-0.0030599999999999516,0.0046399999999999775,-0.0013400000000000079,1742256958.757322
0.04499999999999993,0.24,0.43999999999999995,0.0037799999999998946,-0.008059999999999956,0.0048799999999999955,0.1200000000000001,-0.08999999999999997,-0.485,-0.0047599999999999865,0.008059999999999956,-0.00048000000000003595,1742256958.875556
0.04499999999999993,0.23499999999999988,0.43999999999999995,0.0006200000000000649,-0.007200000000000095,0.0024399999999999977,0.1200000000000001,-0.08499999999999996,-0.485,-0.0048799999999999955,0.006460000000000132,0.0014600000000000168,1742256958.985285
0.040000000000000036,0.24,0.43500000000000005,-0.0031799999999999606,-0.005499999999999949,-0.00036000000000002697,0.11499999999999999,-0.07999999999999996,-0.485,0.0021999999999999797,0.005619999999999958,-0.0010999999999999899,1742256959.099283
0.040000000000000036,0.23499999999999988,0.43500000000000005,-0.0046399999999999775,-0.0026799999999999047,-0.00024000000000001798,0.1100000000000001,-0.08499999999999996,-0.485,-0.0007399999999999629,0.00048000000000003595,-0.0015800000000000258,1742256959.213386
0.03499999999999992,0.2450000000000001,0.43500000000000005,-0.0018400000000000638,0.00011999999999989797,0.0019599999999999618,0.1100000000000001,-0.08499999999999996,-0.485,0.0006200000000000649,0.0009799999999999809,-0.0022000000000000908,1742256959.32724
0.03499999999999992,0.24,0.43999999999999995,-0.0025599999999998957,0.0015800000000001369,0.0025599999999998957,0.10499999999999998,-0.07999999999999996,-0.48,0.0024399999999999977,0.005740000000000078,-0.00878000000000001,1742256959.441268
0.03499999999999992,0.23499999999999988,0.43500000000000005,0.015859999999999985,-0.0050000000000000044,0.007200000000000095,0.10499999999999998,-0.08999999999999997,-0.48,0.011360000000000037,0.006720000000000059,-0.019540000000000002,1742256959.555254
0.04499999999999993,0.24,0.42999999999999994,0.023440000000000127,-0.0042799999999999505,0.0039000000000000146,0.10499999999999998,-0.07999999999999996,-0.485,0.012460000000000138,0.012820000000000054,-0.010619999999999963,1742256959.669295
0.03499999999999992,0.2250000000000001,0.45999999999999996,0.01953999999999989,-0.016720000000000068,0.012700000000000156,0.09499999999999997,-0.08999999999999997,-0.49,0.006460000000000132,0.0048799999999999955,-0.02294000000000007,1742256959.783349
0.020000000000000018,0.22999999999999998,0.44500000000000006,0.005619999999999958,-0.009639999999999982,0.0026800000000000157,0.07499999999999996,-0.07499999999999996,-0.49,0.010259999999999936,0.01208000000000009,-0.008059999999999956,1742256959.8972769
0.014999999999999902,0.20999999999999996,0.44999999999999996,0.0041599999999999415,-0.014639999999999986,0.0008600000000000829,0.07000000000000006,-0.06499999999999995,-0.505,0.0009799999999999809,0.008539999999999992,0.00024000000000001798,1742256960.014584
0.0,0.21999999999999997,0.45500000000000007,-0.005240000000000022,0.0034199999999999786,0.0025599999999998957,0.07499999999999996,-0.07499999999999996,-0.505,0.0012199999999999989,-0.012580000000000036,-0.0027999999999999137,1742256960.125474
0.010000000000000009,0.23499999999999988,0.44999999999999996,0.0019599999999999618,0.017819999999999947,-0.0040200000000000236,0.08000000000000007,-0.07499999999999996,-0.49,0.006720000000000059,-0.024419999999999997,0.005619999999999958,1742256960.239289
0.02499999999999991,0.21500000000000008,0.44999999999999996,0.0029200000000000337,0.014639999999999986,-0.009039999999999937,0.08499999999999996,-0.07000000000000006,-0.49,0.0040199999999999125,-0.01317999999999997,0.006340000000000012,1742256960.355861
0.020000000000000018,0.2250000000000001,0.45500000000000007,-0.0031799999999999606,0.014399999999999968,-0.011720000000000064,0.10000000000000009,-0.07000000000000006,-0.51,0.01317999999999997,-0.016120000000000023,-0.0045199999999999685,1742256960.467381
0.040000000000000036,0.2250000000000001,0.44999999999999996,0.010140000000000038,0.011360000000000037,-0.019399999999999973,0.1299999999999999,-0.06499999999999995,-0.47,0.012320000000000109,-0.01660000000000006,0.00878000000000001,1742256960.58126
0.08000000000000007,0.20999999999999996,0.42999999999999994,0.009759999999999991,0.0023200000000000998,-0.006960000000000077,0.125,-0.06000000000000005,-0.4650000000000001,0.013539999999999885,0.0042800000000000615,0.006220000000000114,1742256960.6952472
0.06000000000000005,0.20999999999999996,0.43999999999999995,0.010380000000000056,-0.024540000000000006,0.005239999999999911,0.1200000000000001,-0.06499999999999995,-0.48,0.0039000000000000146,0.02844000000000002,0.025880000000000125,1742256960.809172
0.02499999999999991,0.21500000000000008,0.45999999999999996,0.018920000000000048,-0.013419999999999987,-0.0047599999999999865,0.09000000000000008,-0.040000000000000036,-0.495,0.021239999999999926,0.020019999999999927,0.01746000000000003,1742256960.923179
0.03499999999999992,0.17999999999999994,0.4650000000000001,0.023679999999999923,-0.010379999999999945,-0.006460000000000021,0.08000000000000007,-0.010000000000000009,-0.495,0.025640000000000107,0.010620000000000074,0.01097999999999999,1742256961.037249
0.020000000000000018,0.16500000000000004,0.4650000000000001,0.012820000000000054,0.0024399999999999977,0.0007399999999999629,0.07499999999999996,-0.010000000000000009,-0.49,0.01868000000000003,0.0018400000000000638,-0.0043999999999999595,1742256961.1535628
0.030000000000000027,0.18500000000000005,0.48,0.0012199999999999989,0.009279999999999955,0.00011999999999989797,0.07499999999999996,-0.015000000000000013,-0.51,0.020499999999999963,0.00011999999999989797,0.02075999999999989,1742256961.265106
0.02499999999999991,0.14000000000000012,0.4650000000000001,0.0040199999999999125,-0.00537999999999994,-0.027700000000000058,0.07000000000000006,0.010000000000000009,-0.485,-0.00048000000000003595,-0.0035399999999999876,0.026859999999999884,1742256961.3791711
0.040000000000000036,0.19999999999999996,0.4650000000000001,-0.01415999999999995,-0.0029199999999999227,-0.013679999999999914,0.08000000000000007,-0.010000000000000009,-0.51,-0.0009799999999999809,-0.0017000000000000348,0.016720000000000068,1742256961.493815
0.03499999999999992,0.17500000000000004,0.4750000000000001,-0.00988,0.0012199999999999989,-0.024780000000000024,0.08000000000000007,0.004999999999999893,-0.505,-0.009639999999999982,-0.01415999999999995,0.026619999999999866,1742256961.60719
0.04499999999999993,0.18500000000000005,0.45500000000000007,-0.014039999999999941,-0.0015800000000000258,-0.024660000000000015,0.09499999999999997,0.004999999999999893,-0.48,-0.011600000000000055,-0.0046399999999999775,0.031500000000000083,1742256961.7212238
0.05499999999999994,0.18500000000000005,0.44999999999999996,-0.0075599999999999,-0.008179999999999965,-0.020019999999999927,0.09499999999999997,-0.010000000000000009,-0.485,-0.015020000000000033,0.0012199999999999989,0.03370000000000006,1742256961.835223
0.02499999999999991,0.17999999999999994,0.44999999999999996,-0.011600000000000055,-0.010739999999999972,-0.02954000000000001,0.08499999999999996,0.02499999999999991,-0.5,-0.02429999999999999,-0.009639999999999982,0.03442000000000012,1742256961.952539
0.04499999999999993,0.20500000000000007,0.4650000000000001,-0.02525999999999995,0.01097999999999999,0.0035399999999998766,0.09499999999999997,-0.030000000000000027,-0.505,-0.018440000000000012,-0.00988,-0.02210000000000001,1742256962.063392
0.040000000000000036,0.2549999999999999,0.44999999999999996,-0.021120000000000028,0.022580000000000044,0.00770000000000004,0.1100000000000001,-0.05500000000000005,-0.48,0.006839999999999957,-0.02198,-0.012460000000000027,1742256962.177296
0.09499999999999997,0.21999999999999997,0.42500000000000004,0.012820000000000054,0.010499999999999954,-0.010499999999999954,0.125,-0.015000000000000013,-0.48,0.0027999999999999137,0.0048799999999999955,0.012320000000000109,1742256962.293525
0.08000000000000007,0.20999999999999996,0.44999999999999996,0.0026800000000000157,-0.0007399999999999629,-0.0042799999999999505,0.125,-0.025000000000000022,-0.49,0.001100000000000101,0.008059999999999956,0.0008600000000000829,1742256962.405236
0.06499999999999995,0.22999999999999998,0.45500000000000007,-0.0022000000000000908,-0.007200000000000095,-0.008299999999999974,0.10499999999999998,-0.030000000000000027,-0.495,0.005619999999999958,0.0017000000000000348,0.011840000000000073,1742256962.51912
0.05499999999999994,0.20500000000000007,0.45500000000000007,-0.0023200000000000998,-0.006460000000000021,-0.016000000000000014,0.09499999999999997,-0.010000000000000009,-0.5,0.00011999999999989797,-0.0048799999999999955,0.0036599999999999966,1742256962.6338592
0.050000000000000044,0.21500000000000008,0.44999999999999996,-0.0009799999999999809,0.0043999999999999595,0.0015800000000001369,0.09000000000000008,-0.010000000000000009,-0.49,0.009879999999999889,0.0023200000000000998,-0.010140000000000038,1742256962.7473018
0.07499999999999996,0.20500000000000007,0.44500000000000006,0.01428000000000007,-0.0013400000000000079,0.01195999999999997,0.11499999999999999,-0.015000000000000013,-0.505,0.007560000000000011,0.00865999999999989,-0.015739999999999976,1742256962.8611891
0.07000000000000006,0.21500000000000008,0.45500000000000007,0.0018400000000000638,0.00537999999999994,0.009279999999999955,0.10499999999999998,-0.025000000000000022,-0.49,0.006599999999999939,-0.0035399999999999876,-0.011099999999999999,1742256962.975245
0.07000000000000006,0.20999999999999996,0.44999999999999996,0.0007399999999999629,0.007940000000000058,0.0017000000000000348,0.10499999999999998,-0.010000000000000009,-0.48,0.0031799999999999606,-0.005499999999999949,-0.006220000000000003,1742256963.089382
0.07499999999999996,0.19999999999999996,0.44500000000000006,0.0045200000000000795,0.0029200000000000337,0.006599999999999939,0.10499999999999998,-0.015000000000000013,-0.49,-0.0010999999999999899,0.010499999999999954,-0.011720000000000064,1742256963.203302
0.06499999999999995,0.21500000000000008,0.44999999999999996,-0.007080000000000086,0.00048000000000003595,0.008920000000000039,0.10000000000000009,-0.025000000000000022,-0.5,-0.0032999999999999696,-0.0012199999999999989,-0.008419999999999983,1742256963.317387
0.06499999999999995,0.2250000000000001,0.45500000000000007,0.0036599999999999966,0.0031799999999999606,0.0036599999999999966,0.09499999999999997,-0.025000000000000022,-0.485,0.0027999999999999137,-0.0012199999999999989,0.0007399999999999629,1742256963.43121
0.06499999999999995,0.20500000000000007,0.43999999999999995,-0.0031799999999999606,-0.005739999999999967,-0.00012000000000000899,0.09499999999999997,-0.025000000000000022,-0.49,-0.0043999999999999595,0.006839999999999957,0.0009799999999999809,1742256963.545203
0.06499999999999995,0.21500000000000008,0.45500000000000007,-0.0008599999999999719,-0.007200000000000095,0.0006200000000000649,0.10000000000000009,-0.020000000000000018,-0.495,-0.0022000000000000908,0.0030599999999998406,0.0027999999999999137,1742256963.659166
0.06499999999999995,0.20999999999999996,0.44500000000000006,0.0008600000000000829,-0.006840000000000068,-0.0008599999999999719,0.10000000000000009,-0.025000000000000022,-0.49,-0.0035399999999999876,0.005619999999999958,0.0037799999999998946,1742256963.773277
0.05499999999999994,0.20500000000000007,0.44999999999999996,-0.007080000000000086,-0.007320000000000104,-0.0034199999999999786,0.09499999999999997,-0.020000000000000018,-0.495,-0.01097999999999999,0.0030599999999998406,0.0007399999999999629,1742256963.887144
0.05499999999999994,0.21500000000000008,0.45500000000000007,-0.008660000000000001,-0.0026799999999999047,-0.0008599999999999719,0.09000000000000008,-0.020000000000000018,-0.5,-0.0037800000000000056,0.009400000000000075,-0.006460000000000021,1742256964.001287
0.050000000000000044,0.21999999999999997,0.44999999999999996,-0.005240000000000022,0.0036599999999999966,0.0030599999999998406,0.08499999999999996,-0.030000000000000027,-0.49,-0.0014600000000000168,-0.0013400000000000079,-0.00878000000000001,1742256964.115427
0.06000000000000005,0.21999999999999997,0.43999999999999995,-0.008419999999999983,0.004999999999999893,0.00537999999999994,0.09000000000000008,-0.040000000000000036,-0.49,-0.006220000000000003,0.0030599999999998406,-0.010140000000000038,1742256964.229266
0.06000000000000005,0.23499999999999988,0.44500000000000006,-0.0075599999999999,-0.00024000000000001798,0.0037799999999998946,0.09000000000000008,-0.040000000000000036,-0.5,-0.0046399999999999775,-0.0012199999999999989,-0.0034199999999999786,1742256964.343404
0.06000000000000005,0.2250000000000001,0.44500000000000006,-0.0046399999999999775,0.007200000000000095,0.0006200000000000649,0.09000000000000008,-0.040000000000000036,-0.5,-0.0041599999999999415,-0.0045199999999999685,-0.0040200000000000236,1742256964.45742
0.06499999999999995,0.23499999999999988,0.43999999999999995,-0.006720000000000059,0.0045200000000000795,0.00048000000000003595,0.09000000000000008,-0.04500000000000004,-0.49,-0.0029199999999999227,-0.006220000000000003,-0.0029199999999999227,1742256964.574023
0.06000000000000005,0.2250000000000001,0.42999999999999994,-0.006220000000000003,0.0015800000000001369,0.0013400000000001189,0.09000000000000008,-0.040000000000000036,-0.485,-0.008179999999999965,0.0026800000000000157,-0.006460000000000021,1742256964.685195
0.06499999999999995,0.24,0.43999999999999995,-0.006460000000000021,-0.0046399999999999775,0.00550000000000006,0.09000000000000008,-0.05500000000000005,-0.5,-0.005240000000000022,-0.00036000000000002697,0.00048000000000003595,1742256964.79923
0.06499999999999995,0.24,0.43999999999999995,-0.0075599999999999,0.0006200000000000649,-0.0018400000000000638,0.09499999999999997,-0.05500000000000005,-0.49,-0.007080000000000086,-0.0015800000000000258,0.0006200000000000649,1742256964.9161432
0.06000000000000005,0.24,0.43500000000000005,-0.009639999999999982,-0.0017000000000000348,-0.0024400000000001087,0.08499999999999996,-0.05500000000000005,-0.49,-0.008539999999999992,0.00048000000000003595,0.00011999999999989797,1742256965.027159
0.05499999999999994,0.2450000000000001,0.43500000000000005,-0.009279999999999955,0.002080000000000082,-0.0009799999999999809,0.09000000000000008,-0.06000000000000005,-0.49,-0.006099999999999994,-0.00012000000000000899,-0.0047599999999999865,1742256965.141436
0.06000000000000005,0.26,0.43500000000000005,0.005120000000000013,-0.0024400000000001087,0.0031799999999999606,0.09499999999999997,-0.06000000000000005,-0.495,0.0013400000000001189,-0.0013400000000000079,0.0025599999999998957,1742256965.255133
0.07000000000000006,0.24,0.42999999999999994,0.00035999999999991594,0.0026800000000000157,-0.0006199999999999539,0.09000000000000008,-0.06499999999999995,-0.49,-0.0040200000000000236,-0.0012199999999999989,-0.0024400000000001087,1742256965.369379
0.06000000000000005,0.25,0.42999999999999994,-0.0022000000000000908,0.0047600000000000975,0.0013400000000001189,0.09499999999999997,-0.06499999999999995,-0.49,-0.0039000000000000146,-0.008179999999999965,-0.0022000000000000908,1742256965.483331
0.07000000000000006,0.2450000000000001,0.42500000000000004,-0.005739999999999967,0.00770000000000004,0.0023200000000000998,0.09000000000000008,-0.06499999999999995,-0.485,-0.001960000000000073,-0.0031799999999999606,-0.005120000000000013,1742256965.597294
0.07499999999999996,0.2549999999999999,0.42999999999999994,-0.0036599999999999966,0.0030599999999998406,0.0025599999999998957,0.10000000000000009,-0.06499999999999995,-0.485,0.0009799999999999809,-0.0012199999999999989,-0.0034199999999999786,1742256965.713585
0.07499999999999996,0.25,0.42500000000000004,0.0,0.0009799999999999809,0.0023200000000000998,0.10000000000000009,-0.06499999999999995,-0.49,0.001100000000000101,0.0021999999999999797,0.00024000000000001798,1742256965.825165
0.07499999999999996,0.2549999999999999,0.42500000000000004,0.0015800000000001369,0.0013400000000001189,0.0013400000000001189,0.09499999999999997,-0.06499999999999995,-0.485,0.0019599999999999618,0.0025599999999998957,-0.002080000000000082,1742256965.939147
0.07000000000000006,0.25,0.42500000000000004,0.007560000000000011,-0.0015800000000000258,0.0008600000000000829,0.09499999999999997,-0.06000000000000005,-0.495,0.0012199999999999989,0.005239999999999911,-0.0037800000000000056,1742256966.0532491
0.07000000000000006,0.26,0.42500000000000004,0.012939999999999952,-0.0027999999999999137,0.0037799999999998946,0.08499999999999996,-0.06000000000000005,-0.495,0.00048000000000003595,0.005619999999999958,-0.00036000000000002697,1742256966.1671438
0.06499999999999995,0.2450000000000001,0.42999999999999994,0.01097999999999999,0.0030599999999998406,0.0026800000000000157,0.08000000000000007,-0.06000000000000005,-0.495,-0.0023200000000000998,0.0025599999999998957,0.0009799999999999809,1742256966.281218
0.06499999999999995,0.24,0.43500000000000005,0.0006200000000000649,0.002080000000000082,0.002080000000000082,0.08000000000000007,-0.06000000000000005,-0.49,-0.00036000000000002697,0.0046399999999999775,-0.006340000000000012,1742256966.3961332
0.06499999999999995,0.2450000000000001,0.42999999999999994,0.0045200000000000795,0.0025599999999998957,0.005120000000000013,0.08000000000000007,-0.06000000000000005,-0.495,-0.0008599999999999719,-0.0006199999999999539,-0.009759999999999991,1742256966.509328
0.07499999999999996,0.2450000000000001,0.43500000000000005,-0.0018400000000000638,0.006460000000000132,0.005239999999999911,0.08000000000000007,-0.07499999999999996,-0.5,-0.0015800000000000258,0.0048799999999999955,-0.010259999999999936,1742256966.623248
0.06499999999999995,0.25,0.42500000000000004,-0.00012000000000000899,0.0015800000000001369,0.0041599999999999415,0.08000000000000007,-0.07000000000000006,-0.485,0.0024399999999999977,0.0048799999999999955,0.00024000000000001798,1742256966.737136
0.07000000000000006,0.2450000000000001,0.42999999999999994,-0.005120000000000013,-0.0009799999999999809,0.0015800000000001369,0.07499999999999996,-0.07499999999999996,-0.495,0.0012199999999999989,0.0031799999999999606,-0.0014600000000000168,1742256966.85368
0.07000000000000006,0.2450000000000001,0.42999999999999994,0.0019599999999999618,-0.0024400000000001087,-0.0008599999999999719,0.07000000000000006,-0.07499999999999996,-0.5,0.0013400000000001189,0.0024399999999999977,-0.0039000000000000146,1742256966.96532
0.06499999999999995,0.2450000000000001,0.41999999999999993,0.0035399999999998766,-0.0026799999999999047,-0.0006199999999999539,0.07499999999999996,-0.06499999999999995,-0.49,0.0034199999999999786,0.007200000000000095,-0.0012199999999999989,1742256967.079256
0.05499999999999994,0.2450000000000001,0.43500000000000005,0.01195999999999997,-0.0013400000000000079,0.00035999999999991594,0.07000000000000006,-0.06499999999999995,-0.495,0.006099999999999994,0.0015800000000001369,0.005120000000000013,1742256967.193884
0.06499999999999995,0.22999999999999998,0.43500000000000005,0.001100000000000101,0.0007399999999999629,-0.0039000000000000146,0.06499999999999995,-0.06499999999999995,-0.505,0.0045200000000000795,-0.0018400000000000638,-0.0039000000000000146,1742256967.307413
0.06000000000000005,0.23499999999999988,0.42999999999999994,0.0021999999999999797,0.0027999999999999137,-0.001960000000000073,0.07000000000000006,-0.06000000000000005,-0.495,0.0023200000000000998,-0.0048799999999999955,-0.0036599999999999966,1742256967.421162
0.07000000000000006,0.2450000000000001,0.43999999999999995,0.0031799999999999606,0.0019599999999999618,0.002080000000000082,0.07000000000000006,-0.06000000000000005,-0.5,0.0027999999999999137,-0.0043999999999999595,-0.0024400000000001087,1742256967.5351338
0.07000000000000006,0.24,0.43999999999999995,0.0042800000000000615,0.004999999999999893,0.00011999999999989797,0.07499999999999996,-0.06000000000000005,-0.49,0.0021999999999999797,-0.0048799999999999955,-0.002080000000000082,1742256967.6493928
0.07499999999999996,0.24,0.43500000000000005,0.0034199999999999786,0.0029200000000000337,-0.00036000000000002697,0.07000000000000006,-0.05500000000000005,-0.495,0.0037799999999998946,0.0012199999999999989,0.0017000000000000348,1742256967.762976
0.06499999999999995,0.2250000000000001,0.43500000000000005,0.006220000000000114,0.0014600000000000168,-0.0040200000000000236,0.08000000000000007,-0.04500000000000004,-0.495,0.0023200000000000998,0.0007399999999999629,-0.005739999999999967,1742256967.87708
0.07499999999999996,0.22999999999999998,0.43500000000000005,0.0029200000000000337,0.0019599999999999618,0.00537999999999994,0.07499999999999996,-0.06000000000000005,-0.5,0.0027999999999999137,-0.0013400000000000079,-0.0027999999999999137,1742256967.994658
0.07499999999999996,0.22999999999999998,0.43999999999999995,-0.002080000000000082,0.0042800000000000615,-0.0006199999999999539,0.07499999999999996,-0.05500000000000005,-0.495,0.0023200000000000998,-0.0018400000000000638,-0.0031799999999999606,1742256968.105174
0.07000000000000006,0.23499999999999988,0.43500000000000005,-0.0014600000000000168,0.002080000000000082,0.0007399999999999629,0.07499999999999996,-0.05500000000000005,-0.49,0.0018400000000000638,-0.0015800000000000258,0.0007399999999999629,1742256968.2190468
0.07499999999999996,0.22999999999999998,0.43500000000000005,-0.0022000000000000908,-0.00024000000000001798,-0.0017000000000000348,0.07499999999999996,-0.050000000000000044,-0.495,-0.00024000000000001798,-0.00012000000000000899,0.0029200000000000337,1742256968.33351
0.07499999999999996,0.22999999999999998,0.43999999999999995,0.00035999999999991594,-0.0008599999999999719,-0.0024400000000001087,0.08000000000000007,-0.04500000000000004,-0.495,0.002080000000000082,-0.0014600000000000168,0.0007399999999999629,1742256968.447016
0.07499999999999996,0.22999999999999998,0.43999999999999995,0.0024399999999999977,-0.001960000000000073,-0.0012199999999999989,0.08000000000000007,-0.050000000000000044,-0.495,0.0021999999999999797,-0.00048000000000003595,-0.0014600000000000168,1742256968.561138
0.07499999999999996,0.22999999999999998,0.43999999999999995,0.0012199999999999989,0.0009799999999999809,-0.0012199999999999989,0.08000000000000007,-0.050000000000000044,-0.49,0.0012199999999999989,-0.0007399999999999629,-0.0009799999999999809,1742256968.675156
0.07499999999999996,0.22999999999999998,0.43500000000000005,-0.0009799999999999809,0.0007399999999999629,0.0,0.08000000000000007,-0.050000000000000044,-0.495,0.0015800000000001369,0.0006200000000000649,0.0007399999999999629,1742256968.788946
0.07499999999999996,0.22999999999999998,0.43999999999999995,0.0,0.00035999999999991594,0.0006200000000000649,0.08000000000000007,-0.050000000000000044,-0.495,-0.00012000000000000899,0.00035999999999991594,-0.0006199999999999539,1742256968.903118
0.07499999999999996,0.22999999999999998,0.43999999999999995,-0.0022000000000000908,-0.0007399999999999629,-0.00048000000000003595,0.08000000000000007,-0.050000000000000044,-0.495,0.0,-0.0015800000000000258,0.00024000000000001798,1742256969.017047
0.07499999999999996,0.22999999999999998,0.43999999999999995,-0.002080000000000082,0.00024000000000001798,-0.0009799999999999809,0.08000000000000007,-0.04500000000000004,-0.495,-0.0015800000000000258,-0.00024000000000001798,-0.0017000000000000348,1742256969.1338508
0.07499999999999996,0.23499999999999988,0.43500000000000005,-0.0023200000000000998,-0.00024000000000001798,0.0012199999999999989,0.08000000000000007,-0.05500000000000005,-0.495,-0.0014600000000000168,-0.0045199999999999685,-0.0012199999999999989,1742256969.245266
0.07499999999999996,0.23499999999999988,0.43500000000000005,0.0018400000000000638,0.0007399999999999629,-0.0013400000000000079,0.08499999999999996,-0.050000000000000044,-0.495,-0.0013400000000000079,-0.00012000000000000899,0.00048000000000003595,1742256969.359126
0.07499999999999996,0.23499999999999988,0.43999999999999995,-0.0010999999999999899,0.0014600000000000168,-0.0009799999999999809,0.08499999999999996,-0.050000000000000044,-0.49,-0.0012199999999999989,-0.0007399999999999629,-0.00036000000000002697,1742256969.473865
0.07499999999999996,0.23499999999999988,0.43500000000000005,0.0018400000000000638,0.0,0.00035999999999991594,0.08499999999999996,-0.050000000000000044,-0.495,0.0015800000000001369,-0.0006199999999999539,0.00035999999999991594,1742256969.5870411
0.08000000000000007,0.22999999999999998,0.43500000000000005,-0.00012000000000000899,0.0013400000000001189,0.0007399999999999629,0.08499999999999996,-0.050000000000000044,-0.495,-0.00036000000000002697,0.0008600000000000829,0.00035999999999991594,1742256969.701119
0.08000000000000007,0.22999999999999998,0.43999999999999995,0.0027999999999999137,0.0013400000000001189,0.0008600000000000829,0.08499999999999996,-0.05500000000000005,-0.495,-0.0006199999999999539,-0.002080000000000082,0.0,1742256969.816621
0.08000000000000007,0.23499999999999988,0.43999999999999995,-0.0010999999999999899,0.00024000000000001798,0.0015800000000001369,0.08499999999999996,-0.05500000000000005,-0.495,0.0007399999999999629,0.0040199999999999125,0.00011999999999989797,1742256969.9289532
0.08000000000000007,0.2250000000000001,0.43999999999999995,-0.0006199999999999539,-0.00048000000000003595,0.00024000000000001798,0.08000000000000007,-0.06000000000000005,-0.495,-0.00012000000000000899,-0.0012199999999999989,0.0014600000000000168,1742256970.0431948
0.07499999999999996,0.23499999999999988,0.43999999999999995,-0.0024400000000001087,-0.0013400000000000079,-0.0008599999999999719,0.08000000000000007,-0.050000000000000044,-0.495,0.0039000000000000146,-0.005619999999999958,0.0024399999999999977,1742256970.1570718
0.08000000000000007,0.23499999999999988,0.43999999999999995,-0.006460000000000021,-0.0026799999999999047,0.0006200000000000649,0.08499999999999996,-0.05500000000000005,-0.495,-0.0006199999999999539,-0.00048000000000003595,0.001100000000000101,1742256970.273396
0.07499999999999996,0.23499999999999988,0.43500000000000005,-0.0023200000000000998,-0.0010999999999999899,-0.0010999999999999899,0.08499999999999996,-0.050000000000000044,-0.495,-0.0014600000000000168,-0.0014600000000000168,0.0018400000000000638,1742256970.3851562
0.07499999999999996,0.23499999999999988,0.43500000000000005,-0.00024000000000001798,0.0006200000000000649,-0.00024000000000001798,0.08499999999999996,-0.050000000000000044,-0.495,-0.0014600000000000168,0.00035999999999991594,0.00035999999999991594,1742256970.49906
0.07499999999999996,0.23499999999999988,0.43500000000000005,-0.0014600000000000168,0.0008600000000000829,0.0007399999999999629,0.09000000000000008,-0.05500000000000005,-0.49,-0.0023200000000000998,-0.0034199999999999786,0.0037799999999998946,1742256970.614028
0.08000000000000007,0.23499999999999988,0.43500000000000005,0.00048000000000003595,0.00024000000000001798,-0.00036000000000002697,0.08499999999999996,-0.05500000000000005,-0.495,0.00035999999999991594,-0.00036000000000002697,0.0025599999999998957,1742256970.7270348
0.07499999999999996,0.22999999999999998,0.43500000000000005,-0.0008599999999999719,-0.00012000000000000899,-0.0006199999999999539,0.08499999999999996,-0.05500000000000005,-0.495,0.00011999999999989797,0.0006200000000000649,-0.0009799999999999809,1742256970.8410618
0.08000000000000007,0.23499999999999988,0.43500000000000005,-0.0010999999999999899,0.0,0.0012199999999999989,0.08499999999999996,-0.06000000000000005,-0.495,0.0006200000000000649,0.0023200000000000998,0.0009799999999999809,1742256970.955052
0.08000000000000007,0.24,0.43500000000000005,-0.00024000000000001798,-0.0015800000000000258,-0.0014600000000000168,0.08499999999999996,-0.050000000000000044,-0.49,0.0006200000000000649,0.0021999999999999797,0.0017000000000000348,1742256971.0690188
0.07499999999999996,0.23499999999999988,0.43500000000000005,0.0007399999999999629,-0.0018400000000000638,-0.0008599999999999719,0.08499999999999996,-0.05500000000000005,-0.49,0.00011999999999989797,0.0048799999999999955,0.00048000000000003595,1742256971.183021
0.08499999999999996,0.23499999999999988,0.43500000000000005,0.00770000000000004,-0.00770000000000004,-0.00012000000000000899,0.10499999999999998,-0.06499999999999995,-0.48,-0.005859999999999976,0.02611999999999992,0.009400000000000075,1742256971.296988
0.10499999999999998,0.21999999999999997,0.41500000000000004,0.019400000000000084,-0.03272000000000008,0.0015800000000001369,0.06499999999999995,-0.06499999999999995,-0.495,-0.013539999999999996,0.055299999999999905,0.01770000000000005,1742256971.410966
0.02499999999999991,0.24,0.44999999999999996,0.007200000000000095,-0.05506,0.00550000000000006,0.02499999999999991,-0.06499999999999995,-0.52,0.011719999999999953,0.033440000000000136,0.008179999999999854,1742256971.525016
0.004999999999999893,0.22999999999999998,0.45999999999999996,0.02648000000000006,-0.02100000000000002,-0.011600000000000055,0.020000000000000018,-0.03500000000000003,-0.495,0.02293999999999996,0.016240000000000032,0.0015800000000001369,1742256971.6390028
0.020000000000000018,0.19500000000000006,0.45999999999999996,0.02746000000000004,-0.012460000000000027,-0.005979999999999985,0.010000000000000009,-0.040000000000000036,-0.505,0.02746000000000004,0.018320000000000114,-0.012460000000000027,1742256971.7535932
0.010000000000000009,0.20500000000000007,0.45999999999999996,0.03479999999999994,-0.01317999999999997,-0.0013400000000000079,0.010000000000000009,-0.030000000000000027,-0.505,0.04064000000000001,0.0019599999999999618,0.001100000000000101,1742256971.8668969
0.014999999999999902,0.15999999999999992,0.4750000000000001,0.05126000000000008,-0.008059999999999956,-0.018440000000000012,0.014999999999999902,0.010000000000000009,-0.495,0.028799999999999937,-0.00036000000000002697,0.0006200000000000649,1742256971.9810529
0.014999999999999902,0.14000000000000012,0.48,0.04405999999999999,0.0,-0.007440000000000002,0.010000000000000009,0.004999999999999893,-0.505,0.02429999999999999,0.0032999999999998586,-0.008419999999999983,1742256972.094988
0.014999999999999902,0.125,0.4849999999999999,0.03625999999999996,-0.0036599999999999966,-0.006340000000000012,0.010000000000000009,0.02499999999999991,-0.5,0.010860000000000092,0.005980000000000096,-0.0031799999999999606,1742256972.2088509
0.014999999999999902,0.11499999999999999,0.48,0.01868000000000003,-0.001960000000000073,0.00024000000000001798,0.004999999999999893,0.014999999999999902,-0.505,0.005740000000000078,0.0046399999999999775,-0.0010999999999999899,1742256972.322968
0.014999999999999902,0.10000000000000009,0.49,0.008179999999999854,-0.0037800000000000056,-0.0040200000000000236,0.004999999999999893,0.02499999999999991,-0.505,-0.0025599999999998957,0.0031799999999999606,-0.0025599999999998957,1742256972.437833
0.010000000000000009,0.10499999999999998,0.49,-0.0030599999999999516,-0.00036000000000002697,0.0014600000000000168,0.004999999999999893,0.02499999999999991,-0.505,-0.010140000000000038,0.0007399999999999629,-0.009519999999999973,1742256972.554116
0.010000000000000009,0.1100000000000001,0.49,-0.01427999999999996,0.0009799999999999809,0.009400000000000075,0.004999999999999893,0.004999999999999893,-0.5,-0.007200000000000095,0.0039000000000000146,-0.010259999999999936,1742256972.66506
0.010000000000000009,0.1200000000000001,0.49,-0.0032999999999999696,-0.0040200000000000236,0.008539999999999992,0.004999999999999893,0.0,-0.51,-0.0022000000000000908,-0.0008599999999999719,-0.0013400000000000079,1742256972.7791371
0.010000000000000009,0.125,0.4849999999999999,-0.0043999999999999595,0.0006200000000000649,-0.0018400000000000638,0.0,0.014999999999999902,-0.5,-0.0024400000000001087,0.0046399999999999775,0.006720000000000059,1742256972.896274
0.004999999999999893,0.11499999999999999,0.4849999999999999,-0.0037800000000000056,-0.005499999999999949,-0.0018400000000000638,0.004999999999999893,0.010000000000000009,-0.5,-0.007440000000000002,-0.0048799999999999955,-0.006840000000000068,1742256973.006989
0.010000000000000009,0.1200000000000001,0.48,-0.011720000000000064,0.0021999999999999797,0.0031799999999999606,0.010000000000000009,0.010000000000000009,-0.505,-0.012460000000000027,-0.0027999999999999137,-0.008660000000000001,1742256973.1211588
0.010000000000000009,0.135,0.49,-0.010140000000000038,0.00048000000000003595,0.007440000000000113,-0.0050000000000000044,-0.010000000000000009,-0.5,-0.0027999999999999137,-0.0008599999999999719,-0.005120000000000013,1742256973.235349
0.0,0.14000000000000012,0.48,-0.006099999999999994,-0.0023200000000000998,0.0040199999999999125,0.004999999999999893,-0.0050000000000000044,-0.505,-0.0048799999999999955,0.0025599999999998957,-0.009039999999999937,1742256973.349122
0.0,0.14500000000000002,0.48,-0.0035399999999999876,-0.0032999999999999696,0.00782000000000016,0.010000000000000009,-0.015000000000000013,-0.515,-0.0014600000000000168,-0.007440000000000002,-0.006340000000000012,1742256973.4632142
0.010000000000000009,0.14500000000000002,0.49,-0.0023200000000000998,0.006720000000000059,0.0009799999999999809,0.014999999999999902,-0.010000000000000009,-0.5,0.0019599999999999618,-0.005619999999999958,-0.0027999999999999137,1742256973.576982
0.010000000000000009,0.14500000000000002,0.48,0.005980000000000096,0.0019599999999999618,0.0009799999999999809,0.010000000000000009,-0.0050000000000000044,-0.495,0.0018400000000000638,-0.0046399999999999775,-0.0030599999999999516,1742256973.693543
0.004999999999999893,0.135,0.48,-0.0008599999999999719,0.0012199999999999989,0.0019599999999999618,0.014999999999999902,-0.010000000000000009,-0.505,0.0015800000000001369,0.0024399999999999977,-0.0035399999999999876,1742256973.8049548
0.014999999999999902,0.14000000000000012,0.4849999999999999,0.0023200000000000998,-0.0037800000000000056,0.0012199999999999989,0.010000000000000009,-0.010000000000000009,-0.5,0.0027999999999999137,0.0025599999999998957,0.0029200000000000337,1742256973.918746
0.004999999999999893,0.135,0.48,0.00024000000000001798,-0.0047599999999999865,-0.0022000000000000908,0.010000000000000009,-0.0050000000000000044,-0.5,0.00048000000000003595,0.0012199999999999989,-0.0024400000000001087,1742256974.0339131
0.004999999999999893,0.135,0.48,-0.00036000000000002697,-0.0013400000000000079,0.0015800000000001369,0.010000000000000009,-0.0050000000000000044,-0.5,0.00035999999999991594,0.00024000000000001798,-0.0025599999999998957,1742256974.146917
0.0,0.135,0.48,0.00048000000000003595,-0.0029199999999999227,0.0013400000000001189,0.004999999999999893,-0.0050000000000000044,-0.505,-0.0014600000000000168,-0.00036000000000002697,-0.0048799999999999955,1742256974.2612102
0.0,0.135,0.4849999999999999,-0.0018400000000000638,-0.00024000000000001798,0.0029200000000000337,0.004999999999999893,-0.0050000000000000044,-0.505,-0.0017000000000000348,-0.0014600000000000168,-0.008539999999999992,1742256974.375131
-0.0050000000000000044,0.135,0.48,-0.0025599999999998957,0.0007399999999999629,0.005120000000000013,0.010000000000000009,-0.010000000000000009,-0.5,-0.0040200000000000236,-0.0006199999999999539,-0.0075599999999999,1742256974.489086
0.0,0.14500000000000002,0.4750000000000001,-0.0014600000000000168,0.0006200000000000649,0.00537999999999994,0.010000000000000009,-0.020000000000000018,-0.505,-0.0047599999999999865,0.0031799999999999606,-0.0023200000000000998,1742256974.602998
-0.0050000000000000044,0.14500000000000002,0.4849999999999999,-0.0023200000000000998,-0.001960000000000073,0.0012199999999999989,0.010000000000000009,-0.015000000000000013,-0.505,0.0019599999999999618,-0.0015800000000000258,-0.00036000000000002697,1742256974.716994
0.0,0.14500000000000002,0.48,0.005239999999999911,0.0024399999999999977,-0.0017000000000000348,0.010000000000000009,-0.010000000000000009,-0.5,0.00011999999999989797,-0.00036000000000002697,-0.0006199999999999539,1742256974.8334668
0.004999999999999893,0.14000000000000012,0.48,-0.00012000000000000899,0.00011999999999989797,-0.0006199999999999539,0.010000000000000009,-0.020000000000000018,-0.505,0.00035999999999991594,0.0026800000000000157,0.0023200000000000998,1742256974.944819
0.0,0.14500000000000002,0.48,0.0008600000000000829,-0.0040200000000000236,-0.001960000000000073,0.004999999999999893,-0.010000000000000009,-0.505,-0.00048000000000003595,0.0,0.0021999999999999797,1742256975.058972
0.0,0.14000000000000012,0.4849999999999999,0.0007399999999999629,-0.002080000000000082,-0.0007399999999999629,0.004999999999999893,-0.015000000000000013,-0.51,0.0008600000000000829,0.0,-0.00048000000000003595,1742256975.172889
-0.0050000000000000044,0.14000000000000012,0.4849999999999999,0.0018400000000000638,-0.00024000000000001798,-0.00036000000000002697,0.010000000000000009,-0.015000000000000013,-0.505,0.00011999999999989797,-0.0008599999999999719,-0.0006199999999999539,1742256975.2870731
-0.0050000000000000044,0.135,0.48,-0.0023200000000000998,0.0012199999999999989,0.0009799999999999809,0.010000000000000009,-0.010000000000000009,-0.505,-0.0008599999999999719,0.0009799999999999809,-0.0030599999999999516,1742256975.401108
-0.0050000000000000044,0.135,0.48,0.0018400000000000638,-0.00048000000000003595,0.0036599999999999966,0.004999999999999893,-0.015000000000000013,-0.505,0.00011999999999989797,-0.0040200000000000236,-0.0023200000000000998,1742256975.5149891
-0.0050000000000000044,0.14500000000000002,0.4849999999999999,0.0018400000000000638,0.0039000000000000146,0.001100000000000101,0.010000000000000009,-0.010000000000000009,-0.505,0.0008600000000000829,-0.008539999999999992,-0.0022000000000000908,1742256975.629109
-0.050000000000000044,0.2450000000000001,0.43500000000000005,0.019160000000000066,-0.0026799999999999047,0.0037799999999998946,0.1299999999999999,-0.16500000000000004,-0.4650000000000001,0.00550000000000006,0.023679999999999923,-0.0031799999999999606,1742257112.4367738
-0.030000000000000027,0.24,0.44500000000000006,-0.0034199999999999786,-0.01097999999999999,-0.0023200000000000998,0.1100000000000001,-0.135,-0.475,0.0018400000000000638,-0.0013400000000000079,0.005619999999999958,1742257112.551519
-0.04500000000000004,0.23499999999999988,0.45500000000000007,0.010739999999999972,-0.00024000000000001798,-0.0009799999999999809,0.1100000000000001,-0.14,-0.4650000000000001,0.00550000000000006,0.0039000000000000146,0.007440000000000113,1742257112.66916
-0.040000000000000036,0.21500000000000008,0.44500000000000006,0.007200000000000095,-0.0050000000000000044,-0.0075599999999999,0.10499999999999998,-0.13,-0.47,0.00770000000000004,0.0045200000000000795,0.007200000000000095,1742257112.778674
-0.050000000000000044,0.21999999999999997,0.45500000000000007,0.0032999999999998586,-0.0007399999999999629,0.0006200000000000649,0.10499999999999998,-0.13,-0.47,0.006960000000000077,0.01415999999999995,0.0018400000000000638,1742257112.8929348
-0.05500000000000005,0.21500000000000008,0.45999999999999996,0.025760000000000005,0.012939999999999952,0.0008600000000000829,0.10000000000000009,-0.12,-0.495,0.022820000000000062,-0.0008599999999999719,-0.01537999999999995,1742257113.010706
-0.03500000000000003,0.2250000000000001,0.44999999999999996,0.0007399999999999629,0.01415999999999995,-0.0014600000000000168,0.11499999999999999,-0.135,-0.4650000000000001,0.01317999999999997,-0.0039000000000000146,0.014520000000000088,1742257113.120678
-0.03500000000000003,0.20999999999999996,0.45500000000000007,0.02210000000000001,0.006220000000000114,-0.016840000000000077,0.1100000000000001,-0.125,-0.485,-0.0014600000000000168,-0.02636000000000005,0.02611999999999992,1742257113.234842
-0.015000000000000013,0.18500000000000005,0.45999999999999996,0.013679999999999914,0.01648000000000005,-0.021480000000000055,0.1200000000000001,-0.10499999999999998,-0.47,-0.009759999999999991,-0.011840000000000073,0.01550000000000007,1742257113.350968
-0.015000000000000013,0.18999999999999995,0.45999999999999996,-0.005739999999999967,0.009039999999999937,-0.0042799999999999505,0.125,-0.125,-0.47,-0.013679999999999914,-0.005499999999999949,0.006099999999999994,1742257113.470374
-0.025000000000000022,0.21999999999999997,0.4650000000000001,-0.021240000000000037,0.0046399999999999775,0.002080000000000082,0.1299999999999999,-0.12,-0.48,0.006220000000000114,-0.009519999999999973,-0.0023200000000000998,1742257113.5768058
-0.010000000000000009,0.19999999999999996,0.4650000000000001,-0.022580000000000044,0.009759999999999991,0.00011999999999989797,0.125,-0.10499999999999998,-0.49,-0.005619999999999958,-0.022820000000000062,-0.005979999999999985,1742257113.690892
-0.0050000000000000044,0.2250000000000001,0.45999999999999996,-0.014780000000000015,0.013679999999999914,0.007079999999999975,0.15500000000000003,-0.13,-0.45999999999999996,0.024540000000000006,-0.04700000000000004,-0.012319999999999998,1742257113.810441
0.004999999999999893,0.22999999999999998,0.44500000000000006,0.016960000000000086,0.018320000000000114,-0.012820000000000054,0.16999999999999993,-0.10499999999999998,-0.44500000000000006,0.01305999999999985,-0.041019999999999945,0.03833999999999982,1742257113.9186969
0.020000000000000018,0.21500000000000008,0.43999999999999995,-0.0017000000000000348,0.020380000000000065,-0.01305999999999996,0.18500000000000005,-0.12,-0.44500000000000006,0.02404000000000006,-0.020019999999999927,0.014780000000000015,1742257114.032684
0.020000000000000018,0.24,0.45500000000000007,0.009519999999999973,0.020140000000000047,-0.03295999999999999,0.19500000000000006,-0.09999999999999998,-0.47,0.034540000000000015,-0.028799999999999937,0.04051999999999989,1742257114.149872
0.05499999999999994,0.18999999999999995,0.44999999999999996,-0.0045199999999999685,0.03527999999999998,-0.046499999999999986,0.21999999999999997,-0.025000000000000022,-0.41500000000000004,0.04455999999999993,-0.027700000000000058,0.04235999999999995,1742257114.260711
0.10000000000000009,0.18500000000000005,0.4099999999999999,-0.03539999999999999,0.026980000000000004,-0.022820000000000062,0.22999999999999998,-0.015000000000000013,-0.42500000000000004,0.02624000000000004,0.0307599999999999,0.00035999999999991594,1742257114.374586
0.10000000000000009,0.21999999999999997,0.43500000000000005,0.011719999999999953,0.007079999999999975,0.015740000000000087,0.19999999999999996,-0.050000000000000044,-0.43999999999999995,-0.0015800000000000258,0.07740000000000014,-0.03210000000000002,1742257114.4905229
0.08499999999999996,0.21500000000000008,0.4650000000000001,0.06933999999999996,-0.04405999999999999,0.01868000000000003,0.15500000000000003,-0.03500000000000003,-0.485,0.03272000000000008,0.034660000000000135,-0.0042799999999999505,1742257114.6050408
0.040000000000000036,0.125,0.4950000000000001,0.05518000000000001,0.031119999999999814,-0.007080000000000086,0.16500000000000004,0.0,-0.485,-0.012460000000000027,-0.025519999999999987,-0.020379999999999954,1742257114.716788
0.07499999999999996,0.18999999999999995,0.45999999999999996,-0.017820000000000058,0.03905999999999987,0.009640000000000093,0.17999999999999994,-0.040000000000000036,-0.4650000000000001,0.006599999999999939,-0.01746000000000003,-0.006099999999999994,1742257114.830772
0.09499999999999997,0.16999999999999993,0.45999999999999996,0.006099999999999994,0.021239999999999926,0.0029200000000000337,0.18500000000000005,-0.030000000000000027,-0.43999999999999995,0.00011999999999989797,-0.005979999999999985,-0.010259999999999936,1742257114.949735
0.09499999999999997,0.17500000000000004,0.44999999999999996,-0.005979999999999985,0.0014600000000000168,0.013299999999999867,0.18500000000000005,-0.04500000000000004,-0.47,-0.0040200000000000236,0.0025599999999998957,-0.006460000000000021,1742257115.0587058
0.09000000000000008,0.18500000000000005,0.4650000000000001,-0.008539999999999992,0.0027999999999999137,0.0019599999999999618,0.18999999999999995,-0.040000000000000036,-0.4650000000000001,-0.0031799999999999606,0.0036599999999999966,0.0042800000000000615,1742257115.172715
0.09000000000000008,0.18999999999999995,0.45999999999999996,-0.01317999999999997,-0.009279999999999955,0.006340000000000012,0.18500000000000005,-0.04500000000000004,-0.45500000000000007,-0.0008599999999999719,0.007940000000000058,-0.0006199999999999539,1742257115.290132
0.08000000000000007,0.18999999999999995,0.44500000000000006,-0.0075599999999999,-0.009279999999999955,0.0014600000000000168,0.17999999999999994,-0.010000000000000009,-0.45999999999999996,0.0039000000000000146,0.008179999999999854,-0.009759999999999991,1742257115.400678
0.08000000000000007,0.17500000000000004,0.45999999999999996,0.08373999999999993,0.031239999999999934,0.02222000000000013,0.16500000000000004,-0.050000000000000044,-0.48,0.008539999999999992,0.00878000000000001,-0.015020000000000033,1742257115.514713
0.09000000000000008,0.14500000000000002,0.4750000000000001,0.008419999999999872,-0.009399999999999964,0.009160000000000057,0.18500000000000005,-0.040000000000000036,-0.4650000000000001,-0.006460000000000021,0.016720000000000068,-0.006720000000000059,1742257115.6298811
0.09000000000000008,0.16500000000000004,0.4650000000000001,-0.0012199999999999989,-0.011240000000000028,0.007200000000000095,0.15500000000000003,-0.05500000000000005,-0.475,-0.007200000000000095,0.02404000000000006,0.0046399999999999775,1742257115.7499049
0.07000000000000006,0.15999999999999992,0.4650000000000001,-0.014639999999999986,-0.01537999999999995,0.0023200000000000998,0.1499999999999999,-0.03500000000000003,-0.48,-0.005859999999999976,0.02429999999999999,-0.0040200000000000236,1742257115.8566568
0.06499999999999995,0.16500000000000004,0.4750000000000001,-0.01427999999999996,-0.00988,0.00537999999999994,0.14000000000000012,-0.05500000000000005,-0.495,-0.009039999999999937,0.0035399999999998766,0.00035999999999991594,1742257115.970618
0.050000000000000044,0.18999999999999995,0.4750000000000001,-0.012940000000000063,-0.00048000000000003595,-0.0023200000000000998,0.135,-0.04500000000000004,-0.48,0.0037799999999998946,-0.0031799999999999606,0.006220000000000114,1742257116.089886
0.06499999999999995,0.16999999999999993,0.4650000000000001,-0.0013400000000000079,0.0015800000000001369,-0.0031799999999999606,0.14000000000000012,-0.04500000000000004,-0.49,0.0036599999999999966,0.0039000000000000146,-0.0032999999999999696,1742257116.1986
0.06000000000000005,0.18500000000000005,0.47,0.0031799999999999606,-0.0024400000000001087,0.0021999999999999797,0.14000000000000012,-0.04500000000000004,-0.485,0.006960000000000077,0.0018400000000000638,-0.0009799999999999809,1742257116.312601
0.06499999999999995,0.17999999999999994,0.45999999999999996,0.0032999999999998586,0.0007399999999999629,0.0021999999999999797,0.14500000000000002,-0.050000000000000044,-0.49,-0.014780000000000015,-0.036619999999999986,0.010000000000000009,1742257116.432469
0.06499999999999995,0.18500000000000005,0.45999999999999996,-0.0025599999999998957,0.00550000000000006,-0.00024000000000001798,0.15500000000000003,-0.040000000000000036,-0.4650000000000001,0.00048000000000003595,0.0007399999999999629,-0.0014600000000000168,1742257116.540607
0.06499999999999995,0.16999999999999993,0.45999999999999996,-0.0008599999999999719,-0.005499999999999949,0.005740000000000078,0.1499999999999999,-0.05500000000000005,-0.495,-0.00988,0.015260000000000051,-0.010000000000000009,1742257116.654635
0.04499999999999993,0.18500000000000005,0.4750000000000001,-0.017940000000000067,-0.006220000000000003,0.0029200000000000337,0.135,-0.06000000000000005,-0.48,-0.0034199999999999786,-0.00770000000000004,0.0023200000000000998,1742257116.768679
0.05499999999999994,0.18999999999999995,0.45999999999999996,-0.01085999999999998,0.009519999999999973,-0.009159999999999946,0.14000000000000012,-0.050000000000000044,-0.48,0.0014600000000000168,0.0009799999999999809,0.0024399999999999977,1742257116.882557
0.05499999999999994,0.18500000000000005,0.4650000000000001,-0.0030599999999999516,0.0009799999999999809,-0.00048000000000003595,0.14500000000000002,-0.06000000000000005,-0.475,-0.001960000000000073,-0.0034199999999999786,-0.0014600000000000168,1742257116.996833
0.06000000000000005,0.19500000000000006,0.45999999999999996,-0.0045199999999999685,0.0039000000000000146,0.0,0.15500000000000003,-0.050000000000000044,-0.48,0.0008600000000000829,-0.0014600000000000168,-0.006220000000000003,1742257117.110632
0.07000000000000006,0.18999999999999995,0.45999999999999996,-0.00024000000000001798,0.0042800000000000615,0.0045200000000000795,0.15500000000000003,-0.06499999999999995,-0.47,0.0015800000000001369,0.0021999999999999797,-0.0042799999999999505,1742257117.229183
0.07000000000000006,0.19500000000000006,0.44999999999999996,-0.0009799999999999809,-0.0012199999999999989,0.0014600000000000168,0.15500000000000003,-0.06000000000000005,-0.47,-0.00048000000000003595,0.0034199999999999786,0.0007399999999999629,1742257117.338704
0.07000000000000006,0.18999999999999995,0.44999999999999996,-0.0029199999999999227,-0.0036599999999999966,-0.00024000000000001798,0.1499999999999999,-0.06000000000000005,-0.475,-0.0045199999999999685,0.007940000000000058,0.0017000000000000348,1742257117.452651
0.06499999999999995,0.19500000000000006,0.45500000000000007,-0.006099999999999994,-0.009639999999999982,0.0007399999999999629,0.14000000000000012,-0.06499999999999995,-0.475,-0.005499999999999949,0.01305999999999985,0.0027999999999999137,1742257117.568393
0.050000000000000044,0.19999999999999996,0.45500000000000007,-0.00770000000000004,-0.011240000000000028,0.0,0.135,-0.06499999999999995,-0.485,-0.0048799999999999955,0.011840000000000073,0.0035399999999998766,1742257117.680642
0.050000000000000044,0.20500000000000007,0.45999999999999996,-0.005619999999999958,-0.011720000000000064,-0.001960000000000073,0.1299999999999999,-0.06499999999999995,-0.485,-0.0030599999999999516,0.010499999999999954,0.004999999999999893,1742257117.79455
0.040000000000000036,0.20500000000000007,0.45500000000000007,-0.00537999999999994,-0.010499999999999954,-0.0009799999999999809,0.125,-0.06499999999999995,-0.485,-0.0024400000000001087,0.011840000000000073,0.0015800000000001369,1742257117.911664
0.040000000000000036,0.20500000000000007,0.45500000000000007,-0.01317999999999997,-0.011840000000000073,0.0017000000000000348,0.1200000000000001,-0.06499999999999995,-0.49,-0.0024400000000001087,0.007319999999999993,-0.00012000000000000899,1742257118.024974
0.03499999999999992,0.21500000000000008,0.45999999999999996,-0.008179999999999965,-0.007320000000000104,0.0013400000000001189,0.1200000000000001,-0.07000000000000006,-0.49,-0.00012000000000000899,0.0026800000000000157,0.0032999999999998586,1742257118.13667
0.03499999999999992,0.21500000000000008,0.44999999999999996,0.0018400000000000638,0.0,-0.0014600000000000168,0.1200000000000001,-0.06499999999999995,-0.48,-0.00012000000000000899,0.00024000000000001798,0.0009799999999999809,1742257118.250535
0.03499999999999992,0.21500000000000008,0.44999999999999996,0.001100000000000101,-0.0023200000000000998,0.0007399999999999629,0.11499999999999999,-0.06499999999999995,-0.48,-0.00024000000000001798,0.0031799999999999606,-0.0013400000000000079,1742257118.369624
0.03499999999999992,0.21500000000000008,0.44999999999999996,0.0009799999999999809,-0.0032999999999999696,0.0023200000000000998,0.11499999999999999,-0.06499999999999995,-0.48,-0.00024000000000001798,0.0026800000000000157,-0.0013400000000000079,1742257118.478795
0.03499999999999992,0.20999999999999996,0.44999999999999996,-0.0036599999999999966,-0.0045199999999999685,0.0023200000000000998,0.11499999999999999,-0.07000000000000006,-0.485,-0.0035399999999999876,0.006839999999999957,-0.001960000000000073,1742257118.592829
0.030000000000000027,0.21999999999999997,0.44999999999999996,-0.0037800000000000056,-0.00537999999999994,0.0019599999999999618,0.1100000000000001,-0.06499999999999995,-0.485,-0.0029199999999999227,0.010620000000000074,0.001100000000000101,1742257118.7082958
0.02499999999999991,0.21500000000000008,0.44999999999999996,-0.0029199999999999227,-0.007440000000000002,0.0007399999999999629,0.10000000000000009,-0.07000000000000006,-0.495,-0.0022000000000000908,0.009400000000000075,0.0019599999999999618,1742257118.820557
0.014999999999999902,0.21999999999999997,0.45500000000000007,-0.00048000000000003595,-0.00660000000000005,0.0,0.10000000000000009,-0.07499999999999996,-0.49,-0.00024000000000001798,0.007200000000000095,0.0007399999999999629,1742257118.934537
0.010000000000000009,0.21999999999999997,0.45500000000000007,-0.0006199999999999539,-0.0040200000000000236,-0.0010999999999999899,0.10000000000000009,-0.07000000000000006,-0.495,-0.0009799999999999809,0.0026800000000000157,-0.0012199999999999989,1742257119.048638
0.014999999999999902,0.21999999999999997,0.45500000000000007,-0.0025599999999998957,-0.0006199999999999539,0.0009799999999999809,0.10000000000000009,-0.07499999999999996,-0.495,0.001100000000000101,-0.00024000000000001798,-0.0031799999999999606,1742257119.168006
0.010000000000000009,0.21999999999999997,0.45500000000000007,0.0007399999999999629,0.0018400000000000638,0.0008600000000000829,0.09499999999999997,-0.07000000000000006,-0.485,0.0031799999999999606,-0.0023200000000000998,-0.0040200000000000236,1742257119.276614
0.020000000000000018,0.21500000000000008,0.45500000000000007,0.0008600000000000829,0.0039000000000000146,0.0019599999999999618,0.10000000000000009,-0.07000000000000006,-0.49,0.0046399999999999775,-0.0024400000000001087,-0.0034199999999999786,1742257119.390643
0.014999999999999902,0.21999999999999997,0.45500000000000007,0.005120000000000013,0.0043999999999999595,0.0030599999999998406,0.10499999999999998,-0.06000000000000005,-0.495,0.005120000000000013,-0.005240000000000022,-0.00660000000000005,1742257119.508088
0.020000000000000018,0.21500000000000008,0.45999999999999996,0.0042800000000000615,0.009759999999999991,0.0048799999999999955,0.10499999999999998,-0.06499999999999995,-0.48,0.00865999999999989,-0.007200000000000095,-0.005499999999999949,1742257119.618765
0.02499999999999991,0.20999999999999996,0.44999999999999996,0.007079999999999975,0.005120000000000013,0.0036599999999999966,0.1100000000000001,-0.06499999999999995,-0.485,0.0017000000000000348,-0.007080000000000086,-0.009039999999999937,1742257119.732629
0.02499999999999991,0.20999999999999996,0.45500000000000007,0.0007399999999999629,0.0046399999999999775,0.006839999999999957,0.1100000000000001,-0.06499999999999995,-0.49,0.0012199999999999989,-0.0046399999999999775,-0.00878000000000001,1742257119.84783
0.02499999999999991,0.20999999999999996,0.45500000000000007,-0.005240000000000022,0.00782000000000016,0.005120000000000013,0.1100000000000001,-0.07000000000000006,-0.48,0.0015800000000001369,-0.007320000000000104,-0.0043999999999999595,1742257119.960725
0.030000000000000027,0.20999999999999996,0.44500000000000006,-0.0013400000000000079,0.0043999999999999595,0.0018400000000000638,0.1100000000000001,-0.07000000000000006,-0.47,-0.0017000000000000348,0.005239999999999911,-0.005979999999999985,1742257120.074673
0.030000000000000027,0.20999999999999996,0.43999999999999995,-0.0027999999999999137,-0.010259999999999936,0.0026800000000000157,0.1100000000000001,-0.07499999999999996,-0.49,-0.0039000000000000146,0.015619999999999967,0.001100000000000101,1742257120.1884742
0.02499999999999991,0.2250000000000001,0.45500000000000007,-0.005859999999999976,-0.009279999999999955,0.00024000000000001798,0.10499999999999998,-0.07000000000000006,-0.49,0.0007399999999999629,0.010380000000000056,0.006839999999999957,1742257120.307102
0.020000000000000018,0.20999999999999996,0.44999999999999996,-0.00012000000000000899,-0.010379999999999945,-0.0040200000000000236,0.10000000000000009,-0.06499999999999995,-0.475,-0.005120000000000013,0.01537999999999995,0.0041599999999999415,1742257120.4165728
0.02499999999999991,0.20999999999999996,0.43999999999999995,-0.013539999999999996,-0.015859999999999985,0.0027999999999999137,0.08499999999999996,-0.07999999999999996,-0.495,-0.0122000000000001,0.015619999999999967,0.0048799999999999955,1742257120.530475
-0.0050000000000000044,0.22999999999999998,0.44999999999999996,-0.011600000000000055,-0.015739999999999976,0.0025599999999998957,0.08000000000000007,-0.07000000000000006,-0.495,-0.006220000000000003,0.00770000000000004,0.010000000000000009,1742257120.647334
-0.0050000000000000044,0.2250000000000001,0.44999999999999996,-0.00878000000000001,-0.008299999999999974,-0.001960000000000073,0.07499999999999996,-0.08499999999999996,-0.495,-0.005120000000000013,0.00770000000000004,0.0006200000000000649,1742257120.7585762
-0.010000000000000009,0.24,0.44500000000000006,-0.007440000000000002,-0.005240000000000022,0.002080000000000082,0.06499999999999995,-0.07499999999999996,-0.495,0.00035999999999991594,0.012199999999999989,0.0006200000000000649,1742257120.8724532
-0.010000000000000009,0.21999999999999997,0.45500000000000007,0.00035999999999991594,-0.002080000000000082,0.0009799999999999809,0.07000000000000006,-0.06499999999999995,-0.485,-0.0031799999999999606,0.012939999999999952,-0.013419999999999987,1742257120.9876852
-0.0050000000000000044,0.22999999999999998,0.43999999999999995,0.0046399999999999775,-0.011840000000000073,0.011479999999999935,0.06499999999999995,-0.08999999999999997,-0.495,-0.005240000000000022,0.009400000000000075,-0.02061999999999997,1742257121.100592
-0.015000000000000013,0.25,0.44500000000000006,0.018179999999999863,-0.001960000000000073,0.005120000000000013,0.06000000000000005,-0.08499999999999996,-0.485,-0.007940000000000058,-0.00036000000000002697,0.0009799999999999809,1742257121.214578
-0.020000000000000018,0.2450000000000001,0.43999999999999995,0.007079999999999975,-0.006340000000000012,-0.0031799999999999606,0.05499999999999994,-0.07999999999999996,-0.5,-0.007080000000000086,0.0014600000000000168,0.006599999999999939,1742257121.328483
-0.015000000000000013,0.20999999999999996,0.45500000000000007,-0.00988,-0.006460000000000021,-0.0025599999999998957,0.050000000000000044,-0.08999999999999997,-0.495,0.0024399999999999977,0.00011999999999989797,-0.005979999999999985,1742257121.4462972
-0.015000000000000013,0.20999999999999996,0.45999999999999996,0.0018400000000000638,-0.005499999999999949,0.0046399999999999775,0.02499999999999991,-0.10499999999999998,-0.505,-0.011840000000000073,0.00048000000000003595,0.027579999999999938,1742257121.556531
-0.020000000000000018,0.2250000000000001,0.48,-0.011099999999999999,0.0030599999999998406,-0.01317999999999997,0.06499999999999995,-0.09999999999999998,-0.49,0.0018400000000000638,-0.005120000000000013,0.0013400000000001189,1742257121.67052
-0.030000000000000027,0.2250000000000001,0.45500000000000007,0.010380000000000056,0.021239999999999926,-0.009639999999999982,0.06000000000000005,-0.09999999999999998,-0.48,0.0042800000000000615,0.005619999999999958,0.006960000000000077,1742257121.7871308
-0.0050000000000000044,0.20999999999999996,0.44999999999999996,0.01537999999999995,0.0047600000000000975,-0.006840000000000068,0.050000000000000044,-0.07999999999999996,-0.51,-0.008919999999999928,0.020999999999999908,0.013299999999999867,1742257121.898616
-0.010000000000000009,0.20500000000000007,0.4650000000000001,0.0013400000000001189,-0.0024400000000001087,-0.0013400000000000079,0.050000000000000044,-0.07999999999999996,-0.49,0.0,-0.0039000000000000146,-0.0047599999999999865,1742257122.012575
0.0,0.19500000000000006,0.45999999999999996,0.012199999999999989,0.006720000000000059,-0.00012000000000000899,0.05499999999999994,-0.08499999999999996,-0.5,0.0031799999999999606,-0.009159999999999946,-0.0047599999999999865,1742257122.127288
0.0,0.19999999999999996,0.45999999999999996,0.010380000000000056,0.008299999999999974,-0.00024000000000001798,0.05499999999999994,-0.08499999999999996,-0.49,0.0026800000000000157,-0.0040200000000000236,0.0007399999999999629,1742257122.240561
0.010000000000000009,0.18999999999999995,0.47,0.007440000000000113,0.001100000000000101,-0.0015800000000000258,0.05499999999999994,-0.07999999999999996,-0.495,0.00537999999999994,0.005239999999999911,0.00048000000000003595,1742257122.354513
0.004999999999999893,0.18500000000000005,0.47,0.007440000000000113,-0.0027999999999999137,-0.0022000000000000908,0.050000000000000044,-0.07499999999999996,-0.495,0.005619999999999958,-0.0010999999999999899,-0.0018400000000000638,1742257122.46869
0.004999999999999893,0.17500000000000004,0.4650000000000001,0.007079999999999975,-0.0025599999999998957,-0.00036000000000002697,0.050000000000000044,-0.07999999999999996,-0.5,-0.0009799999999999809,-0.0030599999999999516,0.0019599999999999618,1742257122.587158
0.0,0.17999999999999994,0.4650000000000001,-0.001960000000000073,0.006099999999999994,-0.00537999999999994,0.06000000000000005,-0.07000000000000006,-0.495,-0.006460000000000021,-0.0037800000000000056,0.004999999999999893,1742257122.696596
0.010000000000000009,0.18500000000000005,0.47,-0.0015800000000000258,0.0018400000000000638,-0.002080000000000082,0.050000000000000044,-0.08999999999999997,-0.49,-0.006840000000000068,0.0006200000000000649,-0.0018400000000000638,1742257122.810677
0.004999999999999893,0.19500000000000006,0.4650000000000001,-0.0023200000000000998,-0.0013400000000000079,0.0042800000000000615,0.05499999999999994,-0.08999999999999997,-0.495,0.0046399999999999775,0.0027999999999999137,-0.0018400000000000638,1742257122.924594
0.004999999999999893,0.18999999999999995,0.4650000000000001,0.005859999999999976,0.0021999999999999797,0.0007399999999999629,0.05499999999999994,-0.08499999999999996,-0.495,0.0045200000000000795,-0.0015800000000000258,0.0,1742257123.038531
0.010000000000000009,0.17999999999999994,0.4650000000000001,0.0045200000000000795,0.0019599999999999618,-0.0023200000000000998,0.04499999999999993,-0.08499999999999996,-0.485,0.0025599999999998957,-0.0012199999999999989,0.0036599999999999966,1742257123.152508
0.004999999999999893,0.18500000000000005,0.4650000000000001,0.0018400000000000638,-0.0008599999999999719,-0.0043999999999999595,0.050000000000000044,-0.07499999999999996,-0.495,0.0041599999999999415,0.0034199999999999786,-0.00024000000000001798,1742257123.266838
0.010000000000000009,0.17500000000000004,0.47,0.0036599999999999966,-0.00048000000000003595,-0.0014600000000000168,0.050000000000000044,-0.07999999999999996,-0.495,0.002080000000000082,-0.0010999999999999899,-0.0026799999999999047,1742257123.380599
0.010000000000000009,0.17999999999999994,0.4650000000000001,0.0014600000000000168,0.0009799999999999809,0.0013400000000001189,0.04499999999999993,-0.08499999999999996,-0.485,0.004999999999999893,0.005980000000000096,0.002080000000000082,1742257123.494543
0.004999999999999893,0.18500000000000005,0.4650000000000001,-0.001960000000000073,-0.0015800000000000258,-0.0015800000000000258,0.05499999999999994,-0.07000000000000006,-0.5,0.0036599999999999966,0.0034199999999999786,0.0043999999999999595,1742257123.60852
0.014999999999999902,0.17999999999999994,0.4750000000000001,-0.0017000000000000348,-0.0009799999999999809,-0.0026799999999999047,0.050000000000000044,-0.07499999999999996,-0.5,0.0019599999999999618,-0.0045199999999999685,0.0023200000000000998,1742257123.726732
0.004999999999999893,0.17500000000000004,0.47,0.0018400000000000638,0.0015800000000001369,-0.0031799999999999606,0.04499999999999993,-0.07000000000000006,-0.49,0.0009799999999999809,-0.00048000000000003595,0.0030599999999998406,1742257123.8365152
0.010000000000000009,0.17999999999999994,0.47,0.00011999999999989797,-0.002080000000000082,-0.0009799999999999809,0.04499999999999993,-0.07499999999999996,-0.495,0.00048000000000003595,0.00537999999999994,0.0014600000000000168,1742257123.9505558
0.010000000000000009,0.17500000000000004,0.4650000000000001,-0.0018400000000000638,-0.0039000000000000146,-0.0012199999999999989,0.04499999999999993,-0.07499999999999996,-0.5,-0.0017000000000000348,0.0025599999999998957,0.0009799999999999809,1742257124.067222
0.004999999999999893,0.17999999999999994,0.47,-0.0031799999999999606,0.0006200000000000649,-0.0022000000000000908,0.04499999999999993,-0.07000000000000006,-0.495,0.0013400000000001189,-0.001960000000000073,0.00011999999999989797,1742257124.178575
0.004999999999999893,0.17999999999999994,0.47,0.0014600000000000168,0.0017000000000000348,-0.0013400000000000079,0.04499999999999993,-0.07499999999999996,-0.5,0.001100000000000101,-0.0035399999999999876,-0.0017000000000000348,1742257124.292526
0.010000000000000009,0.17999999999999994,0.4750000000000001,-0.00048000000000003595,0.0029200000000000337,0.00024000000000001798,0.050000000000000044,-0.07499999999999996,-0.495,0.0026800000000000157,0.00048000000000003595,-0.0023200000000000998,1742257124.4095302
0.010000000000000009,0.17999999999999994,0.47,0.0041599999999999415,0.0009799999999999809,0.0017000000000000348,0.050000000000000044,-0.07000000000000006,-0.495,0.0031799999999999606,-0.00012000000000000899,-0.0008599999999999719,1742257124.520558
0.010000000000000009,0.17999999999999994,0.47,0.0019599999999999618,0.0021999999999999797,-0.0008599999999999719,0.050000000000000044,-0.07000000000000006,-0.49,0.0030599999999998406,0.0017000000000000348,0.0009799999999999809,1742257124.634346
0.014999999999999902,0.16999999999999993,0.4650000000000001,0.0030599999999998406,-0.0007399999999999629,-0.0015800000000000258,0.050000000000000044,-0.07000000000000006,-0.495,0.0017000000000000348,0.001100000000000101,0.0017000000000000348,1742257124.74838
0.014999999999999902,0.16999999999999993,0.47,0.0018400000000000638,-0.0015800000000000258,-0.00048000000000003595,0.04499999999999993,-0.07000000000000006,-0.495,0.0015800000000001369,0.0045200000000000795,0.001100000000000101,1742257124.862325
0.014999999999999902,0.17500000000000004,0.47,0.0007399999999999629,-0.0035399999999999876,-0.00036000000000002697,0.04499999999999993,-0.07000000000000006,-0.495,0.0029200000000000337,0.00550000000000006,0.002080000000000082,1742257124.976362
0.010000000000000009,0.16999999999999993,0.47,0.0008600000000000829,-0.0031799999999999606,-0.0027999999999999137,0.04499999999999993,-0.06499999999999995,-0.5,-0.0012199999999999989,0.0023200000000000998,0.0027999999999999137,1742257125.090424
0.004999999999999893,0.17500000000000004,0.47,-0.002080000000000082,-0.0030599999999999516,-0.002080000000000082,0.04499999999999993,-0.07000000000000006,-0.495,0.0024399999999999977,0.0035399999999998766,0.0025599999999998957,1742257125.2069938
0.010000000000000009,0.17500000000000004,0.47,0.0037799999999998946,-0.0023200000000000998,-0.0030599999999999516,0.04499999999999993,-0.07000000000000006,-0.495,0.0023200000000000998,0.0008600000000000829,0.0039000000000000146,1742257125.318347
0.010000000000000009,0.16999999999999993,0.47,0.0019599999999999618,-0.0026799999999999047,-0.005120000000000013,0.040000000000000036,-0.06000000000000005,-0.5,0.0013400000000001189,0.0026800000000000157,0.0047600000000000975,1742257125.432338
0.004999999999999893,0.16999999999999993,0.4750000000000001,0.0032999999999998586,-0.0030599999999999516,-0.0041599999999999415,0.03499999999999992,-0.06000000000000005,-0.495,0.00048000000000003595,0.00011999999999989797,0.0025599999999998957,1742257125.5463822
0.004999999999999893,0.16999999999999993,0.4750000000000001,0.0008600000000000829,-0.0012199999999999989,-0.0017000000000000348,0.040000000000000036,-0.07000000000000006,-0.495,0.0013400000000001189,0.0026800000000000157,-0.00036000000000002697,1742257125.660436
0.004999999999999893,0.16999999999999993,0.47,0.0018400000000000638,-0.0012199999999999989,-0.0006199999999999539,0.03499999999999992,-0.06000000000000005,-0.5,0.0013400000000001189,0.002080000000000082,0.0012199999999999989,1742257125.7743518
0.004999999999999893,0.16500000000000004,0.4750000000000001,0.0006200000000000649,0.0,-0.0014600000000000168,0.03499999999999992,-0.06499999999999995,-0.5,0.0008600000000000829,0.0008600000000000829,0.0009799999999999809,1742257125.8886569
0.0,0.16500000000000004,0.4750000000000001,-0.00024000000000001798,0.00011999999999989797,-0.0009799999999999809,0.040000000000000036,-0.06499999999999995,-0.5,0.00011999999999989797,-0.0014600000000000168,-0.00036000000000002697,1742257126.00282
0.004999999999999893,0.16500000000000004,0.47,0.00035999999999991594,0.001100000000000101,0.00024000000000001798,0.03499999999999992,-0.06499999999999995,-0.5,0.0015800000000001369,-0.0012199999999999989,-0.0009799999999999809,1742257126.1165068
0.004999999999999893,0.16500000000000004,0.4750000000000001,0.0021999999999999797,0.0009799999999999809,0.00011999999999989797,0.040000000000000036,-0.06000000000000005,-0.495,0.0015800000000001369,-0.00048000000000003595,-0.00024000000000001798,1742257126.230576
0.004999999999999893,0.16500000000000004,0.4750000000000001,0.0019599999999999618,0.001100000000000101,-0.00048000000000003595,0.03499999999999992,-0.06499999999999995,-0.5,-0.00036000000000002697,-0.0009799999999999809,-0.0013400000000000079,1742257126.34748
0.004999999999999893,0.16999999999999993,0.4750000000000001,-0.00036000000000002697,0.002080000000000082,0.0006200000000000649,0.040000000000000036,-0.06499999999999995,-0.5,0.00035999999999991594,-0.0037800000000000056,-0.0031799999999999606,1742257126.459508
0.004999999999999893,0.16999999999999993,0.4750000000000001,0.00024000000000001798,0.0036599999999999966,0.0013400000000001189,0.040000000000000036,-0.06499999999999995,-0.495,-0.001960000000000073,-0.0043999999999999595,-0.0039000000000000146,1742257126.573623
0.010000000000000009,0.16500000000000004,0.47,-0.0039000000000000146,0.0040199999999999125,0.0021999999999999797,0.04499999999999993,-0.06499999999999995,-0.5,-0.0006199999999999539,-0.002080000000000082,-0.0043999999999999595,1742257126.6876302
0.010000000000000009,0.16999999999999993,0.4750000000000001,-0.0023200000000000998,0.0030599999999998406,0.0025599999999998957,0.04499999999999993,-0.07000000000000006,-0.495,-0.0010999999999999899,-0.0026799999999999047,-0.0034199999999999786,1742257126.8015518
0.010000000000000009,0.16999999999999993,0.47,-0.0017000000000000348,0.0031799999999999606,0.0021999999999999797,0.04499999999999993,-0.07000000000000006,-0.495,-0.0010999999999999899,-0.0035399999999999876,-0.0031799999999999606,1742257126.9156458
0.014999999999999902,0.16999999999999993,0.47,-0.002080000000000082,0.0030599999999998406,0.0015800000000001369,0.04499999999999993,-0.06499999999999995,-0.49,-0.0006199999999999539,-0.0017000000000000348,-0.0026799999999999047,1742257127.029525
0.014999999999999902,0.16999999999999993,0.47,0.00035999999999991594,0.0013400000000001189,0.001100000000000101,0.050000000000000044,-0.07000000000000006,-0.5,0.0012199999999999989,0.0018400000000000638,-0.0024400000000001087,1742257127.145887
0.014999999999999902,0.17500000000000004,0.47,0.0009799999999999809,-0.00048000000000003595,0.0018400000000000638,0.04499999999999993,-0.06499999999999995,-0.49,-0.00036000000000002697,0.00024000000000001798,-0.0048799999999999955,1742257127.257461
0.014999999999999902,0.16500000000000004,0.4650000000000001,0.0012199999999999989,-0.0008599999999999719,0.0030599999999998406,0.050000000000000044,-0.06499999999999995,-0.49,0.0024399999999999977,0.01097999999999999,-0.007940000000000058,1742257127.371451
0.020000000000000018,0.16999999999999993,0.47,0.00048000000000003595,-0.006960000000000077,0.009879999999999889,0.04499999999999993,-0.07999999999999996,-0.495,0.00537999999999994,0.011719999999999953,0.0009799999999999809,1742257127.486904
0.010000000000000009,0.17999999999999994,0.47,0.010259999999999936,-0.010379999999999945,0.0015800000000001369,0.03499999999999992,-0.06499999999999995,-0.495,0.006960000000000077,0.014399999999999968,0.012199999999999989,1742257127.59936
0.004999999999999893,0.16500000000000004,0.47,0.008920000000000039,-0.012940000000000063,-0.007200000000000095,0.020000000000000018,-0.05500000000000005,-0.505,0.007079999999999975,0.015260000000000051,0.011840000000000073,1742257127.713364
-0.0050000000000000044,0.15999999999999992,0.48,0.0042800000000000615,-0.014399999999999968,-0.007940000000000058,0.020000000000000018,-0.050000000000000044,-0.5,0.01097999999999999,0.0013400000000001189,0.007560000000000011,1742257127.827242
-0.010000000000000009,0.15500000000000003,0.4750000000000001,0.0047600000000000975,-0.006720000000000059,-0.007940000000000058,0.020000000000000018,-0.050000000000000044,-0.51,0.007940000000000058,-0.011099999999999999,0.0046399999999999775,1742257127.941618
-0.015000000000000013,0.14500000000000002,0.48,-0.001960000000000073,-0.00660000000000005,-0.005499999999999949,0.03499999999999992,-0.050000000000000044,-0.495,0.0021999999999999797,0.00011999999999989797,0.013299999999999867,1742257128.055244
-0.010000000000000009,0.16999999999999993,0.4750000000000001,-0.01415999999999995,-0.011099999999999999,-0.0032999999999999696,0.02499999999999991,-0.03500000000000003,-0.495,-0.0030599999999999516,-0.008059999999999956,0.018920000000000048,1742257128.1694348
-0.020000000000000018,0.16999999999999993,0.4750000000000001,-0.021120000000000028,-0.009759999999999991,-0.007200000000000095,0.040000000000000036,-0.040000000000000036,-0.5,-0.00537999999999994,-0.0031799999999999606,0.011239999999999917,1742257128.283733
-0.015000000000000013,0.17500000000000004,0.47,-0.01097999999999999,-0.00012000000000000899,-0.007440000000000002,0.04499999999999993,-0.040000000000000036,-0.5,-0.006220000000000003,-0.0048799999999999955,0.009160000000000057,1742257128.3974552
-0.020000000000000018,0.17999999999999994,0.47,-0.0075599999999999,-0.0015800000000000258,-0.0039000000000000146,0.050000000000000044,-0.050000000000000044,-0.505,-0.0027999999999999137,-0.007440000000000002,0.0019599999999999618,1742257128.511481
-0.020000000000000018,0.17999999999999994,0.4750000000000001,-0.005859999999999976,0.0008600000000000829,-0.0013400000000000079,0.05499999999999994,-0.05500000000000005,-0.5,-0.0029199999999999227,-0.00878000000000001,0.0007399999999999629,1742257128.6258502
-0.020000000000000018,0.18500000000000005,0.4650000000000001,-0.0043999999999999595,0.0023200000000000998,-0.00036000000000002697,0.05499999999999994,-0.06000000000000005,-0.495,-0.006840000000000068,-0.007320000000000104,0.0006200000000000649,1742257128.7394629
-0.015000000000000013,0.18500000000000005,0.4650000000000001,-0.008179999999999965,0.006460000000000132,0.0007399999999999629,0.06000000000000005,-0.05500000000000005,-0.495,-0.0018400000000000638,-0.006840000000000068,-0.001960000000000073,1742257128.853504
-0.010000000000000009,0.18500000000000005,0.4650000000000001,-0.0029199999999999227,0.005859999999999976,0.00024000000000001798,0.07000000000000006,-0.06000000000000005,-0.495,-0.0022000000000000908,-0.008179999999999965,-0.0026799999999999047,1742257128.967519
-0.0050000000000000044,0.18999999999999995,0.4650000000000001,-0.0043999999999999595,0.0048799999999999955,0.0006200000000000649,0.07499999999999996,-0.06499999999999995,-0.49,-0.0008599999999999719,-0.0047599999999999865,-0.0029199999999999227,1742257129.081573
0.0,0.19500000000000006,0.45999999999999996,-0.0032999999999999696,0.0032999999999998586,0.001100000000000101,0.07499999999999996,-0.06499999999999995,-0.49,-0.0035399999999999876,-0.00036000000000002697,-0.002080000000000082,1742257129.195572
0.0,0.18999999999999995,0.45999999999999996,-0.0046399999999999775,-0.00012000000000000899,0.00011999999999989797,0.07000000000000006,-0.06499999999999995,-0.495,-0.00036000000000002697,0.0027999999999999137,-0.0007399999999999629,1742257129.309419
-0.0050000000000000044,0.19500000000000006,0.45999999999999996,0.0006200000000000649,-0.0032999999999999696,0.0006200000000000649,0.07000000000000006,-0.06499999999999995,-0.49,0.00011999999999989797,0.0048799999999999955,0.0037799999999998946,1742257129.423378
-0.0050000000000000044,0.19500000000000006,0.45999999999999996,0.0009799999999999809,-0.0039000000000000146,-0.0013400000000000079,0.06499999999999995,-0.06499999999999995,-0.495,0.00048000000000003595,0.00865999999999989,0.00537999999999994,1742257129.537281
-0.010000000000000009,0.19500000000000006,0.4650000000000001,0.0031799999999999606,-0.006340000000000012,-0.0022000000000000908,0.06000000000000005,-0.05500000000000005,-0.495,0.0019599999999999618,0.00782000000000016,0.0040199999999999125,1742257129.65155
-0.010000000000000009,0.18999999999999995,0.4650000000000001,0.0027999999999999137,-0.005619999999999958,-0.0023200000000000998,0.05499999999999994,-0.06000000000000005,-0.5,0.002080000000000082,0.006720000000000059,0.0026800000000000157,1742257129.7661922
-0.020000000000000018,0.19500000000000006,0.4650000000000001,0.002080000000000082,-0.005739999999999967,-0.0008599999999999719,0.050000000000000044,-0.06499999999999995,-0.5,0.0018400000000000638,0.0043999999999999595,0.0021999999999999797,1742257129.8793778
-0.020000000000000018,0.18999999999999995,0.4650000000000001,0.0017000000000000348,-0.0032999999999999696,-0.0017000000000000348,0.050000000000000044,-0.05500000000000005,-0.495,0.0031799999999999606,0.00035999999999991594,0.0029200000000000337,1742257129.993407
-0.025000000000000022,0.18999999999999995,0.4650000000000001,0.0009799999999999809,-0.00012000000000000899,-0.0042799999999999505,0.050000000000000044,-0.06000000000000005,-0.505,0.0012199999999999989,0.0008600000000000829,0.0,1742257130.1073768
-0.020000000000000018,0.18999999999999995,0.47,0.0,-0.00024000000000001798,-0.00024000000000001798,0.050000000000000044,-0.06000000000000005,-0.495,0.0013400000000001189,-0.00012000000000000899,-0.00036000000000002697,1742257130.22148
-0.020000000000000018,0.18999999999999995,0.4650000000000001,0.00048000000000003595,0.0018400000000000638,-0.00048000000000003595,0.050000000000000044,-0.05500000000000005,-0.495,-0.0006199999999999539,-0.0043999999999999595,-0.0018400000000000638,1742257130.335462
-0.020000000000000018,0.18500000000000005,0.4650000000000001,-0.002080000000000082,0.0039000000000000146,-0.0012199999999999989,0.05499999999999994,-0.06000000000000005,-0.495,-0.00048000000000003595,-0.006460000000000021,-0.0022000000000000908,1742257130.449575
-0.015000000000000013,0.18999999999999995,0.4650000000000001,-0.0025599999999998957,0.006220000000000114,-0.00048000000000003595,0.06000000000000005,-0.06000000000000005,-0.5,-0.0012199999999999989,-0.006960000000000077,-0.0031799999999999606,1742257130.566175
-0.015000000000000013,0.18999999999999995,0.4650000000000001,-0.0025599999999998957,0.005859999999999976,0.0009799999999999809,0.06499999999999995,-0.06000000000000005,-0.5,-0.0014600000000000168,-0.009159999999999946,-0.0027999999999999137,1742257130.677602
-0.010000000000000009,0.18999999999999995,0.4650000000000001,-0.0041599999999999415,0.008059999999999956,-0.00012000000000000899,0.07000000000000006,-0.06000000000000005,-0.495,-0.0007399999999999629,-0.00878000000000001,-0.0036599999999999966,1742257130.791494
-0.0050000000000000044,0.19500000000000006,0.4650000000000001,-0.0014600000000000168,0.008059999999999956,0.0008600000000000829,0.07499999999999996,-0.06000000000000005,-0.495,-0.0023200000000000998,-0.00878000000000001,-0.0034199999999999786,1742257130.908117
0.0,0.19500000000000006,0.45999999999999996,-0.0030599999999999516,0.008920000000000039,-0.00048000000000003595,0.07499999999999996,-0.06499999999999995,-0.49,-0.0007399999999999629,-0.008059999999999956,-0.001960000000000073,1742257131.019511
0.004999999999999893,0.19500000000000006,0.45999999999999996,-0.0018400000000000638,0.008059999999999956,-0.00048000000000003595,0.08000000000000007,-0.06000000000000005,-0.49,-0.0017000000000000348,-0.006960000000000077,-0.0018400000000000638,1742257131.1334898
0.010000000000000009,0.19500000000000006,0.45999999999999996,-0.0041599999999999415,0.007440000000000113,-0.0012199999999999989,0.08499999999999996,-0.07000000000000006,-0.495,-0.0024400000000001087,0.0013400000000001189,-0.0042799999999999505,1742257131.247394
0.010000000000000009,0.19999999999999996,0.45999999999999996,-0.0029199999999999227,0.0029200000000000337,0.0029200000000000337,0.08499999999999996,-0.07499999999999996,-0.495,-0.0017000000000000348,-0.006460000000000021,-0.0010999999999999899,1742257131.361482
0.010000000000000009,0.20500000000000007,0.45999999999999996,-0.0025599999999998957,0.0047600000000000975,-0.0009799999999999809,0.08499999999999996,-0.06499999999999995,-0.495,0.00048000000000003595,-0.010379999999999945,-0.0026799999999999047,1742257131.4754329
0.010000000000000009,0.20500000000000007,0.4650000000000001,-0.0024400000000001087,0.009279999999999955,-0.0024400000000001087,0.08499999999999996,-0.06499999999999995,-0.495,-0.0008599999999999719,-0.010739999999999972,-0.00770000000000004,1742257131.5894778
0.010000000000000009,0.19500000000000006,0.45999999999999996,-0.0007399999999999629,0.010620000000000074,0.0023200000000000998,0.10000000000000009,-0.06499999999999995,-0.485,0.00048000000000003595,-0.010140000000000038,-0.0122000000000001,1742257131.706644
0.02499999999999991,0.19999999999999996,0.45500000000000007,-0.0014600000000000168,0.010739999999999972,0.006839999999999957,0.1100000000000001,-0.07999999999999996,-0.49,-0.0017000000000000348,-0.0050000000000000044,-0.0075599999999999,1742257131.817527
0.030000000000000027,0.20999999999999996,0.45500000000000007,-0.001960000000000073,0.00537999999999994,0.005239999999999911,0.10499999999999998,-0.07499999999999996,-0.48,-0.0013400000000000079,-0.002080000000000082,-0.0007399999999999629,1742257131.9315689
0.03499999999999992,0.20999999999999996,0.44999999999999996,-0.0031799999999999606,0.0039000000000000146,-0.0006199999999999539,0.10499999999999998,-0.07000000000000006,-0.485,0.00024000000000001798,0.00035999999999991594,0.0006200000000000649,1742257132.0469031
0.030000000000000027,0.20500000000000007,0.45500000000000007,-0.0007399999999999629,-0.0009799999999999809,-0.0014600000000000168,0.10499999999999998,-0.07000000000000006,-0.48,-0.00012000000000000899,0.0015800000000001369,-0.00036000000000002697,1742257132.1594071
0.030000000000000027,0.20500000000000007,0.45500000000000007,-0.0012199999999999989,-0.0013400000000000079,-0.0006199999999999539,0.10499999999999998,-0.07499999999999996,-0.48,-0.0009799999999999809,0.0039000000000000146,0.0,1742257132.273309
0.030000000000000027,0.20999999999999996,0.44999999999999996,-0.0029199999999999227,-0.0032999999999999696,0.0006200000000000649,0.10000000000000009,-0.07999999999999996,-0.485,0.0008600000000000829,0.009039999999999937,0.0031799999999999606,1742257132.388426
0.02499999999999991,0.21500000000000008,0.45500000000000007,0.0019599999999999618,-0.0075599999999999,0.0008600000000000829,0.09499999999999997,-0.07499999999999996,-0.485,0.0009799999999999809,0.009640000000000093,0.006340000000000012,1742257132.5013351
0.020000000000000018,0.20999999999999996,0.45500000000000007,0.0023200000000000998,-0.009279999999999955,-0.0024400000000001087,0.09000000000000008,-0.07000000000000006,-0.485,0.001100000000000101,0.012580000000000036,0.006720000000000059,1742257132.615317
0.014999999999999902,0.20500000000000007,0.45500000000000007,0.0035399999999998766,-0.01208000000000009,-0.0031799999999999606,0.08499999999999996,-0.06499999999999995,-0.485,0.00024000000000001798,0.01097999999999999,0.007440000000000113,1742257132.729238
0.010000000000000009,0.20500000000000007,0.45500000000000007,0.0006200000000000649,-0.0122000000000001,-0.0050000000000000044,0.08000000000000007,-0.07000000000000006,-0.495,-0.0008599999999999719,0.012580000000000036,0.010000000000000009,1742257132.847261
0.0,0.20500000000000007,0.45999999999999996,0.0,-0.013539999999999996,-0.00537999999999994,0.06499999999999995,-0.06499999999999995,-0.49,-0.0013400000000000079,0.010000000000000009,0.005239999999999911,1742257132.9574468
-0.0050000000000000044,0.19500000000000006,0.45500000000000007,-0.0023200000000000998,-0.009399999999999964,-0.0042799999999999505,0.08000000000000007,-0.08499999999999996,-0.485,0.0039000000000000146,0.00782000000000016,0.002080000000000082,1742257133.071239
0.0,0.21500000000000008,0.45999999999999996,0.0037799999999998946,-0.0013400000000000079,-0.0026799999999999047,0.06499999999999995,-0.07000000000000006,-0.495,-0.0042799999999999505,0.013299999999999867,0.007940000000000058,1742257133.186593
0.0,0.20500000000000007,0.45500000000000007,-0.005859999999999976,-0.00782000000000005,-0.0041599999999999415,0.050000000000000044,-0.06499999999999995,-0.5,-0.0032999999999999696,0.011840000000000073,0.005120000000000013,1742257133.299399
-0.015000000000000013,0.19999999999999996,0.4650000000000001,-0.00048000000000003595,-0.011960000000000082,-0.0036599999999999966,0.04499999999999993,-0.07499999999999996,-0.5,-0.0037800000000000056,0.006220000000000114,-0.0039000000000000146,1742257133.413336
-0.025000000000000022,0.20999999999999996,0.45999999999999996,-0.007200000000000095,-0.0050000000000000044,0.0030599999999998406,0.04499999999999993,-0.07999999999999996,-0.5,-0.0017000000000000348,0.0042800000000000615,-0.0025599999999998957,1742257133.527332
-0.020000000000000018,0.21500000000000008,0.45999999999999996,-0.0012199999999999989,-0.0045199999999999685,0.0027999999999999137,0.050000000000000044,-0.07999999999999996,-0.505,-0.0023200000000000998,-0.0046399999999999775,-0.00024000000000001798,1742257133.641438
-0.020000000000000018,0.21500000000000008,0.45999999999999996,-0.0017000000000000348,0.0029200000000000337,-0.00036000000000002697,0.050000000000000044,-0.07499999999999996,-0.495,0.00035999999999991594,-0.011600000000000055,-0.005240000000000022,1742257133.7553458
-0.015000000000000013,0.20999999999999996,0.45999999999999996,-0.00012000000000000899,0.01097999999999999,0.00011999999999989797,0.06000000000000005,-0.07499999999999996,-0.495,0.00035999999999991594,-0.011360000000000037,-0.008419999999999983,1742257133.86932
-0.010000000000000009,0.20999999999999996,0.45500000000000007,0.00048000000000003595,0.012460000000000138,0.00537999999999994,0.07000000000000006,-0.07999999999999996,-0.495,-0.0029199999999999227,-0.010000000000000009,-0.008919999999999928,1742257133.9866722
0.0,0.20999999999999996,0.45500000000000007,-0.0022000000000000908,0.010860000000000092,0.006599999999999939,0.07499999999999996,-0.08999999999999997,-0.495,0.0009799999999999809,-0.01525999999999994,-0.0008599999999999719,1742257134.097323
0.0,0.21999999999999997,0.44999999999999996,-0.0023200000000000998,0.009519999999999973,0.0013400000000001189,0.07499999999999996,-0.07499999999999996,-0.49,-0.0030599999999999516,-0.011600000000000055,-0.00012000000000000899,1742257134.211394
0.010000000000000009,0.20999999999999996,0.44999999999999996,-0.0022000000000000908,0.010620000000000074,-0.00036000000000002697,0.08499999999999996,-0.09499999999999997,-0.49,-0.006720000000000059,-0.008419999999999983,0.0012199999999999989,1742257134.325742
0.010000000000000009,0.21500000000000008,0.45500000000000007,-0.006840000000000068,0.008299999999999974,0.0025599999999998957,0.09000000000000008,-0.08999999999999997,-0.485,-0.005120000000000013,-0.011360000000000037,0.0034199999999999786,1742257134.439332
0.014999999999999902,0.21500000000000008,0.45500000000000007,-0.006720000000000059,0.013800000000000034,-0.00048000000000003595,0.10000000000000009,-0.08999999999999997,-0.49,-0.0015800000000000258,-0.015739999999999976,-0.0025599999999998957,1742257134.553441
0.020000000000000018,0.21999999999999997,0.44999999999999996,-0.0046399999999999775,0.012460000000000138,0.0025599999999998957,0.10499999999999998,-0.08499999999999996,-0.48,-0.0032999999999999696,-0.017340000000000022,-0.0034199999999999786,1742257134.667402
0.02499999999999991,0.21999999999999997,0.44500000000000006,-0.006340000000000012,0.013919999999999932,0.001100000000000101,0.11499999999999999,-0.08499999999999996,-0.48,-0.0030599999999999516,-0.011960000000000082,-0.0022000000000000908,1742257134.78144
0.030000000000000027,0.22999999999999998,0.43999999999999995,-0.008059999999999956,0.011239999999999917,0.0012199999999999989,0.1200000000000001,-0.09499999999999997,-0.47,-0.0032999999999999696,-0.006720000000000059,-0.0032999999999999696,1742257134.895469
0.03499999999999992,0.2250000000000001,0.43999999999999995,-0.006720000000000059,0.00550000000000006,0.0026800000000000157,0.1200000000000001,-0.09999999999999998,-0.47,-0.007940000000000058,0.008299999999999974,0.004999999999999893,1742257135.009272
0.03499999999999992,0.23499999999999988,0.43999999999999995,-0.008059999999999956,-0.0022000000000000908,0.0039000000000000146,0.1200000000000001,-0.10999999999999999,-0.48,-0.015739999999999976,0.01537999999999995,0.014780000000000015,1742257135.125723
0.03499999999999992,0.23499999999999988,0.43999999999999995,-0.005619999999999958,-0.009279999999999955,0.0036599999999999966,0.1100000000000001,-0.10499999999999998,-0.485,-0.007080000000000086,0.0,-0.0014600000000000168,1742257135.23731
0.02499999999999991,0.24,0.43999999999999995,-0.008539999999999992,-0.005979999999999985,0.0039000000000000146,0.10499999999999998,-0.10999999999999999,-0.475,-0.005240000000000022,0.0026800000000000157,0.00048000000000003595,1742257135.351281
0.02499999999999991,0.24,0.43500000000000005,0.0013400000000001189,-0.009159999999999946,0.006460000000000132,0.1100000000000001,-0.11499999999999999,-0.475,0.00048000000000003595,0.010739999999999972,-0.0012199999999999989,1742257135.4654331
0.030000000000000027,0.2450000000000001,0.42999999999999994,0.0027999999999999137,-0.008539999999999992,0.0040199999999999125,0.10000000000000009,-0.12,-0.48,0.0045200000000000795,0.01208000000000009,0.006720000000000059,1742257135.579126
0.014999999999999902,0.25,0.43500000000000005,0.007560000000000011,-0.012580000000000036,-0.0035399999999999876,0.09000000000000008,-0.09999999999999998,-0.485,0.0014600000000000168,0.012320000000000109,0.00865999999999989,1742257135.6932411
0.004999999999999893,0.22999999999999998,0.43999999999999995,0.00865999999999989,-0.01208000000000009,-0.006099999999999994,0.07499999999999996,-0.09499999999999997,-0.51,-0.0010999999999999899,0.0019599999999999618,-0.0023200000000000998,1742257135.807337
-0.010000000000000009,0.21999999999999997,0.45999999999999996,0.0030599999999998406,-0.0045199999999999685,0.0014600000000000168,0.09000000000000008,-0.10999999999999999,-0.475,0.006340000000000012,-0.0027999999999999137,0.0015800000000001369,1742257135.921224
-0.0050000000000000044,0.24,0.43500000000000005,0.0007399999999999629,0.005980000000000096,-0.0008599999999999719,0.09499999999999997,-0.09999999999999998,-0.48,0.0041599999999999415,0.005980000000000096,0.0042800000000000615,1742257136.0351338
0.020000000000000018,0.2250000000000001,0.43500000000000005,0.007200000000000095,-0.0027999999999999137,-0.0010999999999999899,0.09000000000000008,-0.09499999999999997,-0.49,0.0036599999999999966,0.00011999999999989797,0.005619999999999958,1742257136.149156
0.004999999999999893,0.2250000000000001,0.44999999999999996,0.0045200000000000795,-0.0032999999999999696,-0.0037800000000000056,0.08000000000000007,-0.09999999999999998,-0.485,0.005740000000000078,0.0015800000000001369,0.0009799999999999809,1742257136.2656262
0.0,0.21999999999999997,0.44999999999999996,0.0043999999999999595,-0.0017000000000000348,-0.0027999999999999137,0.08499999999999996,-0.09999999999999998,-0.49,0.006460000000000132,0.0006200000000000649,0.0017000000000000348,1742257136.377162
0.0,0.2250000000000001,0.44999999999999996,0.0042800000000000615,0.0014600000000000168,-0.0041599999999999415,0.09000000000000008,-0.09499999999999997,-0.485,0.011840000000000073,-0.006460000000000021,0.0041599999999999415,1742257136.491263
0.004999999999999893,0.2250000000000001,0.45999999999999996,0.008419999999999872,0.0040199999999999125,-0.008179999999999965,0.09499999999999997,-0.07999999999999996,-0.485,0.010739999999999972,0.00024000000000001798,0.0014600000000000168,1742257136.606295
0.010000000000000009,0.20999999999999996,0.44999999999999996,0.008419999999999872,-0.00024000000000001798,-0.006840000000000068,0.09000000000000008,-0.07999999999999996,-0.495,0.010000000000000009,-0.0017000000000000348,-0.0012199999999999989,1742257136.7192802
0.004999999999999893,0.20500000000000007,0.45500000000000007,0.013419999999999987,-0.010739999999999972,-0.0047599999999999865,0.09499999999999997,-0.07999999999999996,-0.49,0.011600000000000055,-0.006960000000000077,-0.002080000000000082,1742257136.833319
0.004999999999999893,0.20999999999999996,0.45999999999999996,0.00782000000000016,0.00035999999999991594,-0.0048799999999999955,0.10000000000000009,-0.07000000000000006,-0.485,0.011239999999999917,-0.0026799999999999047,0.00048000000000003595,1742257136.947166
0.010000000000000009,0.19999999999999996,0.45500000000000007,0.013919999999999932,-0.0042799999999999505,-0.00782000000000005,0.09499999999999997,-0.07000000000000006,-0.485,0.006220000000000114,-0.0006199999999999539,-0.0008599999999999719,1742257137.061302
0.004999999999999893,0.19999999999999996,0.45999999999999996,0.006599999999999939,0.0023200000000000998,-0.0046399999999999775,0.10000000000000009,-0.06000000000000005,-0.49,0.005859999999999976,-0.00012000000000000899,-0.0010999999999999899,1742257137.212865
0.010000000000000009,0.18999999999999995,0.4650000000000001,0.006839999999999957,0.0031799999999999606,-0.0022000000000000908,0.10000000000000009,-0.06499999999999995,-0.49,0.0012199999999999989,0.0006200000000000649,-0.00537999999999994,1742257137.2891772
0.010000000000000009,0.18999999999999995,0.45999999999999996,-0.0009799999999999809,0.00537999999999994,0.0025599999999998957,0.09499999999999997,-0.07000000000000006,-0.49,0.0034199999999999786,0.001100000000000101,0.00035999999999991594,1742257137.403158
0.010000000000000009,0.19999999999999996,0.4650000000000001,-0.0026799999999999047,0.00550000000000006,-0.0008599999999999719,0.10000000000000009,-0.06499999999999995,-0.49,0.0040199999999999125,-0.002080000000000082,0.0008600000000000829,1742257137.517215
0.014999999999999902,0.19500000000000006,0.4650000000000001,0.0035399999999998766,0.0043999999999999595,-0.0025599999999998957,0.09499999999999997,-0.06000000000000005,-0.49,0.004999999999999893,-0.0015800000000000258,0.0032999999999998586,1742257137.631189
0.020000000000000018,0.19500000000000006,0.4650000000000001,0.011239999999999917,0.02210000000000001,-0.008179999999999965,0.10000000000000009,-0.06000000000000005,-0.49,0.0018400000000000638,-0.0009799999999999809,-0.0046399999999999775,1742257137.746798
0.030000000000000027,0.17999999999999994,0.47,0.00024000000000001798,0.00865999999999989,-0.0007399999999999629,0.10499999999999998,-0.06499999999999995,-0.485,0.0009799999999999809,0.0042800000000000615,-0.0006199999999999539,1742257137.859194
0.030000000000000027,0.18999999999999995,0.4650000000000001,0.0035399999999998766,0.0008600000000000829,0.0009799999999999809,0.10000000000000009,-0.06000000000000005,-0.495,-0.0030599999999999516,-0.0026799999999999047,0.0025599999999998957,1742257137.973253
0.02499999999999991,0.18500000000000005,0.4650000000000001,0.002080000000000082,-0.0026799999999999047,0.0014600000000000168,0.10000000000000009,-0.06000000000000005,-0.485,-0.0006199999999999539,0.0013400000000001189,0.00035999999999991594,1742257138.0871968
0.030000000000000027,0.18500000000000005,0.45999999999999996,-0.005619999999999958,0.0007399999999999629,-0.0014600000000000168,0.10499999999999998,-0.06499999999999995,-0.485,-0.0006199999999999539,0.0032999999999998586,0.006340000000000012,1742257138.2011771
0.03499999999999992,0.18999999999999995,0.45999999999999996,-0.0037800000000000056,-0.001960000000000073,-0.0035399999999999876,0.09499999999999997,-0.06000000000000005,-0.49,0.0014600000000000168,0.00537999999999994,0.005980000000000096,1742257138.315073
0.030000000000000027,0.18999999999999995,0.4650000000000001,0.0026800000000000157,0.00048000000000003595,-0.005859999999999976,0.09000000000000008,-0.06000000000000005,-0.495,0.007319999999999993,-0.006840000000000068,-0.0008599999999999719,1742257138.4300978
0.020000000000000018,0.18500000000000005,0.4650000000000001,0.0031799999999999606,0.0024399999999999977,-0.0027999999999999137,0.10499999999999998,-0.06499999999999995,-0.48,0.007560000000000011,-0.010379999999999945,-0.001960000000000073,1742257138.54673
0.03499999999999992,0.17999999999999994,0.4650000000000001,0.005740000000000078,0.012700000000000156,-0.00036000000000002697,0.09499999999999997,-0.07499999999999996,-0.495,0.01758000000000015,-0.0010999999999999899,0.011479999999999935,1742257138.657154
0.030000000000000027,0.20500000000000007,0.4650000000000001,0.010860000000000092,-0.0006199999999999539,-0.0041599999999999415,0.10000000000000009,0.0,-0.495,0.015859999999999985,-0.0232,0.012460000000000138,1742257138.771231
0.02499999999999991,0.15500000000000003,0.4750000000000001,0.008539999999999992,0.02307999999999999,-0.016720000000000068,0.1299999999999999,-0.03500000000000003,-0.45999999999999996,0.009640000000000093,-0.009279999999999955,-0.021120000000000028,1742257138.8882382
0.05499999999999994,0.14500000000000002,0.48,-0.00782000000000005,0.02635999999999994,0.006960000000000077,0.1200000000000001,-0.07999999999999996,-0.485,0.037599999999999856,0.01977999999999991,0.006460000000000132,1742257138.9991
0.07000000000000006,0.21999999999999997,0.44999999999999996,0.020499999999999963,-0.006840000000000068,0.006720000000000059,0.1100000000000001,-0.010000000000000009,-0.495,0.04150000000000009,0.006460000000000132,0.03198000000000012,1742257139.1131442
0.05499999999999994,0.17500000000000004,0.47,0.055420000000000025,-0.0031799999999999606,-0.03846000000000005,0.09499999999999997,0.03499999999999992,-0.49,0.02611999999999992,0.005980000000000096,0.030279999999999863,1742257139.227085
0.07000000000000006,0.10499999999999998,0.48,0.03233999999999981,-0.0036599999999999966,-0.03394000000000008,0.08000000000000007,0.05499999999999994,-0.495,0.0019599999999999618,0.008179999999999854,0.021239999999999926,1742257139.3410718
0.050000000000000044,0.07499999999999996,0.5,0.017340000000000133,-0.0046399999999999775,-0.01305999999999996,0.08499999999999996,0.050000000000000044,-0.5,-0.013539999999999996,-0.0012199999999999989,-0.018059999999999965,1742257139.4553611
0.050000000000000044,0.07000000000000006,0.49,-0.005979999999999985,-0.0040200000000000236,0.017079999999999984,0.10000000000000009,-0.025000000000000022,-0.485,-0.025519999999999987,0.006599999999999939,-0.027959999999999985,1742257139.569412
0.06000000000000005,0.11499999999999999,0.4750000000000001,-0.016240000000000032,0.006099999999999994,0.03747999999999996,0.09499999999999997,-0.040000000000000036,-0.49,-0.013419999999999987,0.016119999999999912,-0.0041599999999999415,1742257139.684574
0.05499999999999994,0.15999999999999992,0.45500000000000007,-0.022460000000000035,-0.008660000000000001,0.015020000000000033,0.07000000000000006,-0.0050000000000000044,-0.51,-0.001960000000000073,0.017819999999999947,0.03638000000000008,1742257139.7971442
0.04499999999999993,0.15999999999999992,0.48,-0.01085999999999998,-0.01305999999999996,-0.019279999999999964,0.06000000000000005,0.0,-0.505,-0.009159999999999946,0.008920000000000039,0.03308,1742257139.9112809
0.040000000000000036,0.125,0.49,-0.0037800000000000056,-0.022220000000000018,-0.031240000000000046,0.07000000000000006,0.004999999999999893,-0.5,0.00011999999999989797,-0.0007399999999999629,0.009879999999999889,1742257140.0289369
0.040000000000000036,0.14000000000000012,0.5,-0.013299999999999979,-0.006099999999999994,-0.016720000000000068,0.05499999999999994,-0.010000000000000009,-0.49,-0.01208000000000009,0.0006200000000000649,-0.01990000000000003,1742257140.1391969
0.040000000000000036,0.125,0.4849999999999999,0.00011999999999989797,-0.0026799999999999047,0.0048799999999999955,0.07000000000000006,-0.04500000000000004,-0.505,-0.01415999999999995,-0.0012199999999999989,-0.01305999999999996,1742257140.253261
0.040000000000000036,0.15500000000000003,0.47,-0.017940000000000067,0.0027999999999999137,0.016119999999999912,0.07499999999999996,-0.025000000000000022,-0.505,0.00782000000000016,-0.009159999999999946,-0.00024000000000001798,1742257140.368961
0.040000000000000036,0.16999999999999993,0.4849999999999999,-0.011099999999999999,0.006839999999999957,0.0007399999999999629,0.07000000000000006,-0.015000000000000013,-0.495,-0.0017000000000000348,0.016839999999999966,0.0025599999999998957,1742257140.481132
0.06000000000000005,0.135,0.47,0.02635999999999994,-0.008660000000000001,-0.0042799999999999505,0.06499999999999995,-0.050000000000000044,-0.51,0.0032999999999998586,0.0024399999999999977,0.011719999999999953,1742257140.594954
0.02499999999999991,0.16500000000000004,0.4650000000000001,0.011719999999999953,-0.0034199999999999786,0.0040199999999999125,0.07000000000000006,-0.0050000000000000044,-0.495,0.01746000000000003,-0.0025599999999998957,0.026739999999999986,1742257140.709111
0.040000000000000036,0.15500000000000003,0.4849999999999999,0.012580000000000036,0.0048799999999999955,-0.023320000000000007,0.06499999999999995,0.040000000000000036,-0.505,0.010499999999999954,-0.002080000000000082,0.026980000000000004,1742257140.826348
0.050000000000000044,0.11499999999999999,0.4950000000000001,0.027959999999999985,-0.006960000000000077,-0.03272000000000008,0.06000000000000005,0.014999999999999902,-0.485,0.0006200000000000649,0.00865999999999989,0.006460000000000132,1742257140.936863
0.04499999999999993,0.09499999999999997,0.48,0.006720000000000059,-0.006220000000000003,-0.013799999999999923,0.06000000000000005,0.014999999999999902,-0.5,0.0006200000000000649,0.011239999999999917,0.005120000000000013,1742257141.0498822
0.03499999999999992,0.11499999999999999,0.48,0.002080000000000082,-0.011360000000000037,-0.0030599999999999516,0.06499999999999995,0.0,-0.505,-0.008059999999999956,0.008179999999999854,0.0012199999999999989,1742257141.16643
