L-AccX,L-AccY,L-AccZ,L-GyrX,L-GyrY,L-GyrZ,R-AccX,R-AccY,R-AccZ,R-GyrX,R-GyrY,R-GyrZ,timestamp,user
-0.0325,0.12875,-0.0825,-0.020202499,-0.038085,0.0062399996,0.085,-0.0775,0.01375,0.0029000002,0.00502,0.010375,1742105921.17532,user_1
-0.07375,0.13625,0.13375,0.0039525,-0.017165001,0.00091500004,0.09625,-0.08125,0.02375,0.006775,0.00354,0.0127575,1742105921.288322,user_1
-0.02125,0.12,-0.04125,-0.0195475,0.0393825,0.0024100002,0.0925,-0.075,0.005,0.001435,0.0043325,0.0063625,1742105921.403889,user_1
-0.0225,0.11375,-0.09125,0.0019824998,-0.00325,0.000365,0.0975,-0.0725,0.00875,-0.001525,0.00177,0.0021825,1742105921.514461,user_1
-0.025,0.115,-0.05375,0.02919,-0.0714425,-0.001405,0.0975,-0.085,0.025,-0.0066525,-0.0001225,0.001465,1742105921.628557,user_1
-0.01625,0.13875,-0.02375,-0.03807,0.017272498,0.0066525,0.0975,-0.07125,0.00875,0.000855,0.0016775,0.0013425,1742105921.743985,user_1
-0.01875,0.12125,-0.065,-0.017655,0.0169075,0.0018475,0.10125,-0.06625,0.005,-0.000245,0.0016325001,0.0021199998,1742105921.855492,user_1
-0.0225,0.1175,-0.07875,0.0157475,-0.0475775,-0.0068675,0.10375,-0.0725,0.01,0.0001225,0.0007775,0.000245,1742105921.969353,user_1
0.0125,0.06375,-0.0175,-0.02272,0.016265,0.0010525,0.105,-0.06125,0.00375,-0.00415,0.002715,0.0019075,1742105922.083362,user_1
-0.01375,0.10875,-0.06,-0.014755,0.02948,-0.0022425,0.1025,-0.07125,0.005,0.0016775,0.000305,0.0011900001,1742105922.196307,user_1
-0.01625,0.115,-0.085,-0.002625,0.001465,0.000825,0.10375,-0.06375,0.00625,0.002045,0.00026,0.00048750002,1742105922.309335,user_1
-0.01375,0.11875,-0.055,0.0172875,-0.064545,-0.00302,0.10875,-0.06,0.0225,-0.0045175,-0.000855,-0.0003975,1742105922.423866,user_1
-0.01,0.13125,-0.035,-0.0270375,0.033630002,0.0051875,0.1,-0.07125,0.0025,0.0021825,0.0006875,0.0010075001,1742105922.53633,user_1
-0.01625,0.11625,-0.0875,-0.0012825,0.00531,0.001525,0.10625,-0.06375,0.00125,0.00091500004,0.0007475,0.0010675,1742105922.650335,user_1
-0.0125,0.12,-0.05375,0.0219275,-0.0528575,-0.0037225,0.09375,-0.09125,-0.0,-0.0016625,0.0016025,0.0003825,1742105922.7641118,user_1
-0.01,0.1175,-0.0075,-0.033005003,0.0166775,0.009415,0.10625,-0.055,-0.0,-0.0001825,0.0012825,3e-05,1742105922.8840792,user_1
-0.01875,0.12375,-0.0775,-0.01657,0.012345,0.0056,0.1075,-0.06375,-0.00125,0.001175,0.000565,0.00035,1742105922.991464,user_1
-0.015,0.11375,-0.06875,0.018645,-0.042099997,-0.0042425,0.105,-0.06375,-0.0,0.0001525,0.0004275,-0.00026,1742105923.105448,user_1
0.01,0.07625,-0.01125,-0.0034325,0.023345,0.0016925,0.12375,-0.0525,-0.00375,-0.0054925,0.002335,0.0001225,1742105923.223115,user_1
-0.01625,0.11125,-0.05625,-0.0133525,0.028672501,0.002335,0.10625,-0.06375,-0.005,0.000825,0.0004275,0.0,1742105923.333317,user_1
-0.01875,0.11875,-0.09,0.011229999,-0.012252499,-0.0024249998,0.10625,-0.0625,-0.0025,0.0008075,0.0001525,-0.0003825,1742105923.446458,user_1
-0.03375,0.1225,0.0625,0.0195,-0.0254525,0.0004725,0.10625,-0.05875,-0.00375,0.0063775,0.002105,0.0057975003,1742105923.5641458,user_1
-0.015,0.1175,-0.0425,-0.0064850003,0.0356,-4.5e-05,0.10625,-0.06375,-0.0075,0.0004725,0.00048750002,0.0,1742105923.674335,user_1
-0.02125,0.115,-0.07125,-0.0009,0.003175,0.0002125,0.10875,-0.06,-0.005,0.0010075001,-7.75e-05,-0.0004725,1742105923.788533,user_1
-0.0125,0.11625,-0.04875,0.0160525,-0.04599,-0.0039375,0.1,-0.0925,-0.0075,-0.0036775,0.0007775,-0.00296,1742105923.904413,user_1
-0.01625,0.1275,-0.01375,-0.0275425,0.0249175,0.0095675,0.10125,-0.06875,-0.00625,0.00154,0.000107500004,-0.0019225,1742105924.0166972,user_1
-0.01625,0.12375,-0.06875,-0.015625,0.008835,0.0047600004,0.10875,-0.06,-0.0075,0.00059500005,4.5e-05,0.00033500002,1742105924.130396,user_1
-0.01625,0.11375,-0.05875,0.0178975,-0.0402525,-0.0041799997,0.105,-0.06375,-0.00625,0.00026,-0.0001225,-0.0006875,1742105924.244549,user_1
-0.0025,0.08625,-0.03375,-0.0254675,0.0059975,0.00528,0.10625,-0.0575,-0.0075,3e-05,0.000305,-0.00174,1742105924.364341,user_1
-0.015,0.1125,-0.0575,-0.0142675,0.01265,0.0036175,0.1075,-0.06375,-0.0075,0.00032,0.00016750001,0.00045750002,1742105924.472382,user_1
-0.02,0.12375,-0.07375,0.015945,-0.02388,-0.0058125,0.105,-0.06375,-0.0075,-0.001525,0.00026,0.0014500001,1742105924.586472,user_1
0.0,0.09,-0.015,0.01062,0.024445,4.5e-05,0.09875,-0.05125,-0.01375,-0.00566,0.0025175,0.0018150001,1742105924.7004852,user_1
-0.0175,0.1125,-0.05875,-0.0077199996,0.0169825,0.00154,0.1075,-0.06,-0.01,0.0009775,0.00064,0.00045750002,1742105924.814412,user_1
-0.0175,0.12,-0.06375,0.00673,-0.004945,0.0008075,0.10875,-0.05875,-0.00875,0.0001525,0.0001975,0.00035,1742105924.928364,user_1
-0.025,0.12875,0.02375,0.01773,-0.0232075,-0.0020150002,0.10875,-0.05875,-0.00375,0.0046550003,0.0004125,0.0028675,1742105925.0441542,user_1
-0.0175,0.1275,-0.05,0.00055,0.02472,0.0033275,0.1075,-0.06,-0.01375,0.0001225,0.00032,0.000245,1742105925.156513,user_1
-0.025,0.12125,-0.06,0.0055225003,0.000855,0.000885,0.11,-0.0575,-0.01125,0.00058,-7.75e-05,-0.000275,1742105925.2705438,user_1
-0.01875,0.11875,-0.035,0.016082501,-0.033675,-0.0058125,0.10625,-0.07,-0.00625,-4.5e-05,-0.0006875,-0.0009625,1742105925.384638,user_1
-0.0225,0.13,-0.02,-0.023192499,0.0258025,0.0066225,0.105,-0.06125,-0.015,0.00091500004,0.0005025,-0.0007175,1742105925.504858,user_1
-0.025,0.12375,-0.0625,-0.0022425,0.00702,-0.0001975,0.11,-0.0575,-0.01125,0.0007475,-0.00035,-0.00033500002,1742105925.612604,user_1
-0.015,0.11125,-0.05,0.0149225,-0.044997502,-0.0045475,0.1075,-0.08,-0.0075,-0.002135,-0.000245,-0.002715,1742105925.726552,user_1
-0.02125,0.13625,-0.0225,-0.026137501,0.0089875,0.01036,0.10375,-0.0625,-0.0125,0.001755,0.000305,-0.00171,1742105925.84472,user_1
-0.025,0.12375,-0.04375,-0.0092775,0.01091,0.0029000002,0.10875,-0.0575,-0.01125,0.0007325,0.0001975,0.000655,1742105925.954261,user_1
-0.02875,0.125,-0.055,0.010314999,-0.020537501,-0.0038299998,0.1075,-0.05875,-0.01375,0.000365,0.0004275,-0.00079250004,1742105926.068362,user_1
-0.01,0.09125,-0.01,-0.0196375,0.0087425,0.005005,0.11125,-0.04375,-0.0125,-0.0027,0.0010825,0.0005025,1742105926.188166,user_1
-0.02,0.11625,-0.035,-0.0089724995,0.013152501,-0.00113,0.10875,-0.05875,-0.0175,0.0010675,0.00032,0.0002125,1742105926.296236,user_1
-0.02,0.1175,-0.04375,-0.003525,-0.00325,0.00058,0.10875,-0.055,-0.0175,0.000625,-0.0001525,-0.0002125,1742105926.410584,user_1
-0.04,0.12125,0.01875,0.014085,-0.0348675,-0.0024249998,0.11,-0.055,-0.015,0.0062100003,0.00091500004,0.004105,1742105926.524622,user_1
-0.015,0.12625,-0.02375,-0.0063775,0.024872499,0.0033725,0.10625,-0.05875,-0.02125,-0.000365,0.0007625,-0.0010675,1742105926.63847,user_1
-0.0225,0.1325,-0.06125,0.008025,0.0016325001,-0.003905,0.11125,-0.055,-0.01625,0.000365,-0.000107500004,-0.000107500004,1742105926.752535,user_1
-0.025,0.1225,0.0975,0.01126,-0.0228425,-0.001175,0.10875,-0.05375,-0.02,0.002,0.0012975,0.0042275,1742105926.866295,user_1
-0.015,0.1275,-0.01625,-0.0078425,0.021285,0.0016775,0.1075,-0.06125,-0.02,-0.0005025,-0.0007775,-0.0016325001,1742105926.984433,user_1
-0.0175,0.11625,-0.03875,-0.0069125,0.0072175004,0.0014500001,0.11,-0.05625,-0.01625,-0.0006875,-0.0016625,-0.00087,1742105927.09456,user_1
-0.02125,0.12125,-0.055,0.01625,-0.0363475,-0.0083325,0.1025,-0.07375,-0.0125,-0.0037225,-0.0001525,-0.0007625,1742105927.208946,user_1
-0.01,0.12,-0.025,-0.03621,-0.0028074998,0.005355,0.1075,-0.05,-0.00875,-0.0006875,0.0004275,-0.002135,1742105927.324796,user_1
-0.01625,0.12125,-0.04375,-0.0139925005,0.0090175,0.003175,0.11,-0.05625,-0.015,0.0007475,0.00029,0.0012050001,1742105927.436308,user_1
-0.01875,0.12875,-0.0625,0.022217501,-0.028212499,-0.0056925,0.1025,-0.0725,-0.0175,-0.00293,0.0004725,-0.0013275,1742105927.550584,user_1
-0.0075,0.1125,-0.0125,-0.0311575,-0.0003975,0.0051725,0.10625,-0.055,-0.015,0.0001825,0.000275,-0.0006875,1742105927.667401,user_1
-0.02,0.12625,-0.0425,-0.01004,0.0074625,0.0037525,0.11125,-0.055,-0.01625,0.000655,0.0004125,0.0012975,1742105927.784889,user_1
-0.025,0.13,-0.05,0.0087275,-0.014085,-0.000825,0.10875,-0.0525,-0.01625,-0.0001375,0.00052,0.0004275,1742105927.892382,user_1
-0.00875,0.1025,0.01375,0.025817499,0.0188,0.001725,0.11375,-0.04125,-0.01875,-0.0028074998,0.0020299999,0.0036775,1742105928.006262,user_1
-0.0225,0.12625,-0.02625,0.00232,0.0163125,0.00084,0.11,-0.05375,-0.02,0.001495,0.0007025,0.0022425,1742105928.125862,user_1
-0.0225,0.1275,-0.0325,0.01155,-0.0119775,-0.0053875,0.11125,-0.045,-0.02,0.0007475,-0.00026,0.0020299999,1742105928.234257,user_1
-0.01,0.0975,0.01125,0.0068975003,0.01419,-0.0010525,0.115,-0.0325,-0.02125,-0.003555,0.00059500005,0.00229,1742105928.348354,user_1
-0.015,0.1225,0.005,-0.002655,0.0122225,-0.00058,0.11375,-0.04625,-0.0225,0.00058,0.00016750001,-0.0012975,1742105928.4650471,user_1
-0.015,0.13625,-0.03125,0.0034949998,-0.0072175004,-0.0037375,0.1125,-0.045,-0.02125,0.001175,-0.0004125,-0.000625,1742105928.57636,user_1
-0.02125,0.1225,0.04875,0.01422,0.01384,-0.00325,0.11625,-0.0275,-0.02375,-0.000305,0.0009,0.0005025,1742105928.690382,user_1
-0.0175,0.1225,-0.00875,-0.00618,0.01422,-0.0003975,0.11,-0.055,-0.0225,0.00113,0.00026,-0.00055,1742105928.8049889,user_1
-0.01375,0.12625,-0.0225,0.001465,-0.0025625,0.0004275,0.1125,-0.04625,-0.02375,0.0001825,0.0002125,-0.0007325,1742105928.924785,user_1
-0.02125,0.12375,0.095,0.0064075,-0.01982,0.0010975,0.115,-0.04375,-0.02125,0.00229,0.00171,0.0040125,1742105929.032175,user_1
-0.0175,0.12625,-0.005,-0.00734,0.0158075,-0.0010675,0.11,-0.0525,-0.025,-1.5e-05,-7.75e-05,-0.00023,1742105929.146984,user_1
-0.01375,0.125,-0.025,-0.0013125,0.001435,0.00032,0.1125,-0.04625,-0.025,0.000275,0.00016750001,-0.000305,1742105929.264346,user_1
-0.0275,0.11375,0.0375,0.021879999,-0.0361625,-0.0039375,0.11,-0.0525,-0.01625,0.0044549997,7.75e-05,0.002395,1742105929.374212,user_1
-0.01625,0.1275,-0.00125,-0.0119025,0.018615,0.0013575,0.11,-0.055,-0.02625,-0.0004275,-0.0001525,-0.00059500005,1742105929.488547,user_1
-0.01625,0.1275,-0.03125,-0.004945,0.00328,0.0019675,0.1125,-0.04625,-0.0225,0.00026,3e-05,-0.000305,1742105929.604917,user_1
-0.0175,0.12625,-0.025,0.0120075,-0.02388,-0.0059499997,0.10875,-0.06,-0.0225,-0.0001975,-0.0004275,-0.000655,1742105929.716469,user_1
-0.01125,0.11,0.00375,-0.022950001,0.0125275,0.0033725,0.11,-0.04625,-0.0225,0.00142,-0.0001525,-0.002365,1742105929.8303308,user_1
-0.015,0.12375,-0.03625,-0.0116425,0.0116725,0.00229,0.11375,-0.0475,-0.02125,0.0001975,-0.000655,0.00016750001,1742105929.94544,user_1
-0.02,0.12875,-0.045,0.0189975,-0.0258475,-0.0048225,0.11,-0.05,-0.0225,-0.0001375,-0.00035,-9.25e-05,1742105930.0653708,user_1
-0.0075,0.09625,-0.00375,-0.0021199998,0.021879999,0.0010975,0.1125,-0.0375,-0.02125,-0.0015575,-6e-05,-0.0019225,1742105930.172383,user_1
-0.01875,0.11875,-0.0425,-0.0121625,0.0173175,0.00079250004,0.1125,-0.04625,-0.0225,0.000275,-0.0003975,0.0007175,1742105930.286269,user_1
-0.02125,0.13,-0.05375,0.013305,-0.01674,-0.0034175,0.11,-0.05125,-0.02125,0.0001225,-0.0003825,0.000275,1742105930.405656,user_1
-0.00875,0.10375,0.045,0.007415,0.02362,-6e-05,0.11625,-0.03,-0.02625,-0.00235,0.0004275,0.00064,1742105930.5143,user_1
-0.0225,0.12,-0.03625,-0.0103,0.01709,0.00113,0.1125,-0.0475,-0.0225,0.000655,-6e-05,0.00061,1742105930.628257,user_1
-0.0175,0.12125,-0.03625,0.00084,-0.0038599998,0.002335,0.11125,-0.0475,-0.0225,0.0001225,0.000107500004,0.000107500004,1742105930.745603,user_1
-0.0275,0.11625,-0.00625,0.0186,-0.039047502,-0.002685,0.115,-0.04375,-0.02125,0.0032950002,0.000245,0.003845,1742105930.8561869,user_1
-0.01875,0.125,-0.01625,-0.0083925,0.02394,0.0019525,0.11,-0.05125,-0.025,-1.5e-05,-0.00016750001,-0.00048750002,1742105930.970409,user_1
-0.0175,0.1225,-0.03875,-4.5e-05,0.0046075,0.0007625,0.11375,-0.0475,-0.02375,0.000305,-0.00016750001,-0.0004425,1742105931.085116,user_1
-0.01875,0.12375,-0.04375,0.018432502,-0.0393975,-0.0048975,0.1125,-0.0525,-0.0125,-0.004135,0.0010675,-0.0016325001,1742105931.198368,user_1
-0.02,0.1375,-0.01125,-0.01651,0.0199425,0.0045175,0.10875,-0.05125,-0.0275,-0.0004425,-0.000275,-0.00116,1742105931.312444,user_1
-0.0175,0.1275,-0.04125,-0.0018150001,0.004485,0.0014500001,0.11375,-0.0475,-0.0225,0.00035,6e-05,-0.000275,1742105931.426232,user_1
-0.02,0.12875,-0.035,0.014755,-0.029755,-0.0042575,0.11,-0.0625,-0.02,-0.0028074998,0.00032,-0.0013125,1742105931.545729,user_1
-0.02125,0.13625,-0.00625,-0.016967501,0.012055,0.004945,0.10875,-0.05125,-0.025,-4.5e-05,0.000245,-0.0010525,1742105931.6542752,user_1
-0.01625,0.12375,-0.0325,-0.0078575,0.008805,0.0012050001,0.11375,-0.04625,-0.0225,0.0002125,-3e-05,-0.00032,1742105931.768267,user_1
-0.02,0.12875,-0.04625,0.016647499,-0.02275,-0.0060575,0.11125,-0.04875,-0.02125,0.000107500004,-0.0001525,-0.0002125,1742105931.88604,user_1
-0.005,0.09,-0.0025,-0.019135,0.00467,0.0021199998,0.10875,-0.0475,-0.0225,-0.000245,0.00023,-0.0016175,1742105931.9962811,user_1
-0.01875,0.12625,-0.02875,-0.01152,0.010605,0.0018300001,0.1125,-0.04875,-0.02125,0.00045750002,3e-05,0.00045750002,1742105932.110114,user_1
-0.01625,0.125,-0.04,0.012725,-0.021545,-0.002685,0.11,-0.05125,-0.02375,0.0004125,0.0,0.00055,1742105932.2249238,user_1
-0.00625,0.1025,-0.01875,0.0013875001,0.0074,-0.0010675,0.11125,-0.04375,-0.02125,-0.00055,0.00016750001,0.0010075001,1742105932.34603,user_1
-0.015,0.11875,0.0,0.00557,0.0125725,-0.0004725,0.11375,-0.04,-0.02625,0.000565,0.0010225,0.00084,1742105932.452085,user_1
-0.01125,0.1275,0.0025,0.0037525,0.005905,0.00064,0.11375,-0.04375,-0.0275,0.0012050001,-7.75e-05,-0.000305,1742105932.5662348,user_1
-0.0125,0.12375,-0.0075,0.012115,-0.0228725,-0.005905,0.11,-0.0525,-0.0175,0.0030675002,-0.0001375,0.00035,1742105932.680097,user_1
-0.015,0.13125,0.01125,-0.01175,0.0109875,0.0030825,0.11125,-0.04625,-0.02875,0.0007625,0.00061,-0.0018300001,1742105932.79417,user_1
-0.0125,0.1225,-0.0025,-0.0047,0.003175,0.000885,0.11375,-0.04375,-0.02625,0.00091500004,0.00023,0.0004425,1742105932.9081962,user_1
-0.01375,0.1275,-0.01625,0.007035,-0.018265,-0.0048225,0.11,-0.0525,-0.0275,-0.000625,-0.00016750001,-0.00079250004,1742105933.0256052,user_1
-0.0175,0.12875,0.01,-0.0125875,0.009292499,0.003585,0.11,-0.04375,-0.02875,0.0012975,0.00023,-0.0018300001,1742105933.1361432,user_1
-0.01125,0.12,-0.015,-0.0054925,0.0077975,0.00087,0.11375,-0.0425,-0.025,0.0001225,-0.00026,7.75e-05,1742105933.2502651,user_1
-0.015,0.13125,-0.02125,0.009262499,-0.017715,-0.0036175,0.11125,-0.04625,-0.02875,-0.00033500002,-0.00035,-0.00048750002,1742105933.365729,user_1
-0.0075,0.11375,-0.0025,-0.0148775,0.0054625003,0.0040599997,0.11,-0.04625,-0.02875,0.00026,0.000107500004,-0.002885,1742105933.485266,user_1
-0.01375,0.125,-0.015,-0.0058125,0.00966,0.001235,0.11375,-0.0425,-0.02625,0.0001975,-0.00026,0.0003975,1742105933.592061,user_1
-0.015,0.1275,-0.02875,0.0055075004,-0.014479999,-0.0024100002,0.11125,-0.04625,-0.0275,-6e-05,-0.0001375,-0.00032,1742105933.7096782,user_1
-0.00625,0.1,0.0025,-0.0045175,0.0157625,0.0012975,0.11125,-0.04125,-0.02625,0.0004275,1.5e-05,-0.0025625,1742105933.825652,user_1
-0.015,0.12,-0.0325,-0.0113075,0.017547501,0.0009,0.11375,-0.04375,-0.0275,-1.5e-05,-0.00016750001,0.00026,1742105933.934154,user_1
-0.01625,0.12875,-0.04125,0.0043175,-0.012252499,-0.000245,0.11125,-0.04625,-0.0275,0.00023,-0.00035,0.0001225,1742105934.048123,user_1
-0.0325,0.11625,0.03625,0.0146325,-0.033447497,-0.0013125,0.115,-0.04125,-0.0275,0.001525,0.0007025,0.0032950002,1742105934.168221,user_1
-0.015,0.12875,-0.005,-0.010895001,0.0167225,0.0029749998,0.11125,-0.05,-0.0275,0.00033500002,-0.00035,-0.00052,1742105934.276167,user_1
-0.0175,0.12875,-0.0325,-0.00708,-0.00064,0.001405,0.1125,-0.045,-0.02625,-0.00023,4.5e-05,-0.00029,1742105934.39019,user_1
-0.0325,0.1175,0.035,0.015717499,-0.0434125,-0.0022425,0.11125,-0.04625,-0.02375,0.0031275,-0.0001225,0.003905,1742105934.50552,user_1
-0.01375,0.1325,-0.00875,-0.0139925005,0.021195,0.00702,0.11,-0.05125,-0.02875,-0.0002125,0.0001525,-0.0010075001,1742105934.62623,user_1
-0.02,0.1275,-0.03125,-0.0102225,0.0120075,0.0040749996,0.11375,-0.045,-0.025,6e-05,-0.0001225,-0.0002125,1742105934.732204,user_1
-0.01625,0.12125,-0.04375,0.0173175,-0.0334025,-0.00467,0.11,-0.0475,-0.0275,-0.0009775,0.000245,-0.00048750002,1742105934.8461828,user_1
-0.01125,0.105,-0.00375,-0.02504,0.0055225003,0.0043175,0.1075,-0.04875,-0.0275,0.0009,4.5e-05,-0.0018150001,1742105934.96552,user_1
-0.01875,0.12125,-0.03375,-0.00998,0.01654,0.00377,0.11375,-0.04375,-0.02625,1.5e-05,-1.5e-05,0.0003975,1742105935.074068,user_1
-0.025,0.1275,-0.0425,0.0066675,-0.0133525,-0.0010675,0.11125,-0.045,-0.02625,-0.000107500004,-3e-05,0.0004125,1742105935.1888871,user_1
-0.015,0.10125,0.07125,0.023255,0.0139,-0.001235,0.11625,-0.0275,-0.03,-0.0045475,0.0007625,0.0020599999,1742105935.305432,user_1
-0.025,0.12125,-0.02375,-0.00534,0.02562,-0.001755,0.1125,-0.0475,-0.02875,0.00048750002,-0.0004275,0.000107500004,1742105935.4161122,user_1
-0.02,0.12125,-0.03875,0.0016175,-0.00023,-0.000305,0.11125,-0.04625,-0.02625,0.000245,-0.000275,6e-05,1742105935.530085,user_1
-0.04125,0.13,0.0325,0.029082501,-0.033630002,-0.00154,0.115,-0.045,-0.0225,0.0025325,3e-05,0.00389,1742105935.6472409,user_1
-0.02125,0.13625,-0.01125,-0.0122975,0.0225675,0.003905,0.11125,-0.05,-0.02625,-0.0004125,-0.00023,-0.00045750002,1742105935.765892,user_1
-0.02,0.12375,-0.0275,-0.007035,0.0054325,0.0005025,0.11375,-0.04375,-0.025,0.0001525,0.000107500004,0.0,1742105935.871843,user_1
-0.0225,0.1275,-0.04,0.017365,-0.031997498,-0.0040599997,0.1125,-0.045,-0.025,-0.000245,-0.000305,-0.0001825,1742105935.985398,user_1
-0.015,0.12,0.0,-0.021790002,0.0036,0.0034625002,0.10875,-0.0475,-0.02625,0.00064,-0.00016750001,-0.0025025,1742105936.1056142,user_1
-0.0175,0.12,-0.02875,-0.01381,0.011765,0.0030375,0.115,-0.0425,-0.02375,9.25e-05,-0.000107500004,0.00058,1742105936.213002,user_1
-0.02125,0.12875,-0.04375,0.0107875,-0.020095,-0.0024875,0.11125,-0.04375,-0.025,0.0001525,-0.000245,0.00029,1742105936.32698,user_1
-0.005,0.08875,0.0025,-0.0120075,0.0148325,0.00151,0.11375,-0.03,-0.025,-0.0036624998,0.0005025,0.0003975,1742105936.445757,user_1
-0.02,0.12,-0.025,-0.0087575,0.01834,-0.000245,0.11375,-0.0425,-0.02625,0.0004125,-0.00029,0.0001225,1742105936.555008,user_1
-0.01875,0.12875,-0.03625,0.00023,-0.00328,-0.0020150002,0.11125,-0.045,-0.025,-0.0001225,-0.000275,-0.0001225,1742105936.669156,user_1
-0.03,0.1175,0.10375,0.023772499,-0.00789,0.00029,0.1175,-0.03375,-0.02875,-0.00151,0.001495,0.0042275,1742105936.785982,user_1
-0.0175,0.13,-0.015,-0.00583,0.0201875,-0.002045,0.1125,-0.04875,-0.02625,0.0003975,-0.00032,0.0001225,1742105936.897006,user_1
-0.0125,0.125,-0.04,0.0003975,-0.0013875001,-0.0004425,0.11125,-0.045,-0.02625,6e-05,7.75e-05,-0.000305,1742105937.011151,user_1
-0.025,0.1225,0.0425,0.01027,-0.01918,-0.0033425,0.11625,-0.03875,-0.025,0.00061,0.0009775,0.003845,1742105937.126623,user_1
-0.0175,0.1225,-0.0225,-0.0065774997,0.024245001,-0.0012975,0.1125,-0.04625,-0.02625,0.0001375,-0.00035,-0.00033500002,1742105937.245606,user_1
-0.01125,0.12,-0.0375,-0.0010825,0.0030975002,0.0010525,0.1125,-0.04625,-0.0275,0.000275,-7.75e-05,-0.0001975,1742105937.353097,user_1
-0.01125,0.12375,-0.02625,0.0154425,-0.03102,-0.0062399996,0.11125,-0.06375,-0.025,-0.0025475,0.00064,-0.001755,1742105937.466914,user_1
-0.01625,0.13625,-0.01,-0.0207225,0.01274,0.00377,0.11,-0.0475,-0.02875,-0.0001225,0.0001225,-0.001495,1742105937.5853078,user_1
-0.01,0.12375,-0.04,-0.008865,0.00528,0.0022425,0.11375,-0.04375,-0.025,0.0004125,-3e-05,-0.00023,1742105937.6950989,user_1
-0.01125,0.12625,-0.0375,0.01709,-0.024995001,-0.00154,0.1125,-0.045,-0.025,0.0001525,-0.0003825,-0.00023,1742105937.808981,user_1
-0.01,0.1125,0.00125,-0.006165,0.01442,0.0037075,0.11,-0.0475,-0.02625,0.0003825,6e-05,-0.0016325001,1742105937.925687,user_1
-0.01,0.12,-0.04625,-0.008239999,0.01358,0.0029749998,0.115,-0.04,-0.025,0.0002125,0.0001225,3e-05,1742105938.036751,user_1
-0.015,0.125,-0.045,0.0130775,-0.0226125,-0.00064,0.1125,-0.045,-0.02375,0.000107500004,-0.0005025,-0.0001225,1742105938.149921,user_1
-0.005,0.10625,0.02375,0.0104825,0.0254375,9.25e-05,0.11625,-0.02375,-0.0275,-0.003525,0.0006725,0.00029,1742105938.265988,user_1
-0.0125,0.1175,-0.0325,-0.0018,0.01834,-0.00058,0.11375,-0.045,-0.02375,0.00087,-6e-05,0.0001825,1742105938.3854342,user_1
-0.01125,0.12375,-0.03625,0.005905,-0.0083775,0.00064,0.11125,-0.045,-0.02625,6e-05,-0.000245,6e-05,1742105938.491891,user_1
-0.02,0.12375,0.08875,0.016495,-0.0139625,-0.00177,0.11625,-0.03625,-0.0275,-0.0013275,0.0013125,0.00302,1742105938.605898,user_1
-0.01625,0.12375,-0.02,-0.0027,0.020127501,-0.00016750001,0.1125,-0.045,-0.02625,0.0007025,-0.000365,0.00026,1742105938.724798,user_1
-0.0125,0.12375,-0.0325,-1.5e-05,0.0024100002,0.001435,0.1125,-0.04625,-0.02625,0.0001825,-7.75e-05,4.5e-05,1742105938.833954,user_1
-0.01375,0.12125,-0.0325,0.02214,-0.037125,-0.0034025,0.11125,-0.05875,-0.0225,-0.00171,-0.0002125,-0.0010825,1742105938.9481752,user_1
-0.02,0.13,0.00625,-0.026290001,0.0178525,0.0062100003,0.11,-0.05,-0.02875,-0.00033500002,-7.75e-05,-0.000885,1742105939.0656798,user_1
-0.015,0.12125,-0.0425,-0.0087425,0.0042125,0.0051125004,0.115,-0.0425,-0.02625,0.000245,0.0001975,-1.5e-05,1742105939.17585,user_1
-0.02125,0.1275,-0.03875,0.0145725,-0.025665,-0.0036,0.1125,-0.04625,-0.02375,0.00045750002,-0.0004275,-0.000305,1742105939.289977,user_1
-0.02,0.115,0.0025,-0.0043325,0.013,9.25e-05,0.11,-0.0475,-0.02625,-0.00032,0.00032,-0.00059500005,1742105939.4061298,user_1
-0.01625,0.12,-0.05,-0.009262499,0.0099325,0.0001225,0.115,-0.04,-0.02375,1.5e-05,-3e-05,-4.5e-05,1742105939.5257769,user_1
-0.01875,0.1275,-0.0375,0.0065300004,-0.0095525,-0.0009925,0.1125,-0.0425,-0.02375,0.00033500002,-0.000565,-7.75e-05,1742105939.631992,user_1
-0.0175,0.11125,0.0675,0.0045175,-0.0040125,-0.000825,0.11625,-0.0375,-0.02875,-0.000305,0.0010525,0.003005,1742105939.745899,user_1
-0.0175,0.125,-0.025,-0.0077049998,0.019072501,-0.0013575,0.1125,-0.04625,-0.02625,0.0006725,-0.00023,9.25e-05,1742105939.866424,user_1
-0.015,0.12,-0.0375,0.0018925001,-0.001785,0.0012050001,0.11125,-0.045,-0.0275,-1.5e-05,-0.0001225,-0.0001525,1742105939.974097,user_1
-0.01375,0.1225,-0.035,0.01973,-0.02806,-0.0049125,0.11125,-0.0575,-0.025,-0.0022125002,0.0001375,-0.00093,1742105940.087965,user_1
-0.02,0.135,-0.0075,-0.0249325,0.01381,0.0028225,0.11,-0.05,-0.02875,0.000655,0.0003975,-0.0021525,1742105940.209656,user_1
-0.00875,0.11875,-0.05125,-0.009734999,0.007355,0.0020299999,0.115,-0.04,-0.02375,0.0004725,0.0001825,-0.0004275,1742105940.3158998,user_1
-0.01375,0.12375,-0.04125,0.020782499,-0.027709998,-0.0033275,0.11125,-0.045,-0.02375,0.00045750002,-0.0005025,-0.00032,1742105940.429899,user_1
0.0,0.095,-0.02125,-0.0189975,0.010375,0.0006875,0.11,-0.04125,-0.025,0.0002125,0.000305,-0.0025175,1742105940.545759,user_1
-0.00875,0.11625,-0.03625,0.0043800003,0.020202499,-0.00142,0.115,-0.04125,-0.02125,-7.75e-05,-6e-05,0.0001825,1742105940.657863,user_1
-0.00875,0.12625,-0.03125,0.0022274998,0.0009925,-0.0008075,0.11125,-0.045,-0.025,0.00033500002,-0.000305,0.000107500004,1742105940.77181,user_1
-0.02,0.11,0.015,0.0242,-0.038955003,0.0,0.11375,-0.04625,-0.02625,0.0027325,0.000945,0.0036775,1742105940.885893,user_1
-0.01125,0.13375,-0.01,-0.014405,0.0178525,0.00232,0.11,-0.0525,-0.0275,0.0001225,-0.00032,-0.00091500004,1742105941.006182,user_1
-0.01,0.12625,-0.025,-0.00415,0.0054025003,0.00055,0.1125,-0.045,-0.025,-4.5e-05,-0.000107500004,-3e-05,1742105941.113975,user_1
-0.005,0.12125,-0.035,0.022002501,-0.0281975,-0.0029000002,0.11,-0.05625,-0.02625,-0.00177,-0.00029,-0.0010375,1742105941.22797,user_1
-0.00625,0.13,0.00125,-0.0243675,0.0020299999,0.0004125,0.11,-0.04375,-0.02625,-0.0013575,0.000275,-0.0016925,1742105941.345866,user_1
-0.00625,0.1225,-0.0125,-0.0085,0.011185001,-0.00059500005,0.11375,-0.04125,-0.02375,0.00045750002,-0.00032,0.00061,1742105941.455821,user_1
-0.0075,0.13125,-0.0375,0.0020150002,-0.001175,-0.0007625,0.11125,-0.045,-0.0275,9.25e-05,-0.0001975,-0.00023,1742105941.5698712,user_1
-0.0125,0.1275,0.0975,0.00789,0.0107425,-0.00116,0.11625,-0.02875,-0.02875,-0.00032,0.000855,0.003235,1742105941.689132,user_1
-0.0075,0.12,-0.02,-0.0051125004,0.0178375,-0.0018150001,0.1125,-0.0475,-0.02625,0.000655,-0.0004725,0.00064,1742105941.806082,user_1
-0.00625,0.12125,-0.02375,-0.000825,0.0013875001,0.00351,0.11125,-0.04625,-0.0275,0.0001975,-6e-05,-1.5e-05,1742105941.91188,user_1
-0.00875,0.125,-0.03375,0.014785,-0.024092501,-0.000107500004,0.11125,-0.05375,-0.025,-0.00154,0.0001825,-0.00064,1742105942.025921,user_1
-0.00875,0.13,0.00625,-0.015395001,-0.0004725,0.0016475001,0.11125,-0.04375,-0.02625,-0.001145,0.0004275,-0.0010225,1742105942.147442,user_1
-0.01,0.11875,-0.01125,-0.0077525,0.01474,0.0025625,0.11375,-0.0425,-0.025,0.000305,-0.00033500002,0.00055,1742105942.253789,user_1
-0.01625,0.1325,-0.04625,4.5e-05,-0.002105,-0.0009625,0.1125,-0.045,-0.02625,0.0002125,-0.00033500002,-6e-05,1742105942.3678982,user_1
-0.02375,0.12375,0.10875,0.0157475,-0.000825,0.0001825,0.1175,-0.02875,-0.0275,0.000885,0.000535,0.00322,1742105942.485117,user_1
-0.015,0.12875,-0.01625,-0.001725,0.018280001,-0.002,0.1125,-0.0475,-0.0275,0.0008075,-0.00035,0.00029,1742105942.5957131,user_1
-0.0125,0.12625,-0.03625,-0.00084,-0.0001825,0.0006725,0.1125,-0.045,-0.025,0.0,-0.00023,-0.000275,1742105942.7099578,user_1
-0.0125,0.1225,-0.0225,0.0219275,-0.0355525,-0.003585,0.11,-0.05,-0.0175,-0.0007175,-0.00058,-0.00061,1742105942.825723,user_1
-0.01625,0.13625,-0.0125,-0.020065,0.016495,0.00299,0.11,-0.05125,-0.03,-0.000305,-4.5e-05,-0.0010675,1742105942.9460092,user_1
-0.0125,0.125,-0.02875,-0.01085,0.00972,0.0021199998,0.11375,-0.04375,-0.025,3e-05,0.000365,-0.0001525,1742105943.0517929,user_1
-0.0125,0.12375,-0.0475,0.0057975003,-0.0128625,-0.0009625,0.1125,-0.04375,-0.02375,-3e-05,-0.0004275,-0.0001225,1742105943.16831,user_1
-0.01625,0.13,0.09375,0.0104225,0.015855,-0.0004275,0.1175,-0.03375,-0.0275,-0.0016325001,0.000535,0.00148,1742105943.2862022,user_1
-0.015,0.12375,-0.02375,-0.0048074997,0.0219575,-0.0007775,0.11375,-0.045,-0.025,0.0006875,-0.000305,-9.25e-05,1742105943.393813,user_1
-0.015,0.12375,-0.03875,0.0031275,-0.0047600004,0.0016775,0.11125,-0.045,-0.02625,0.000245,-0.0003975,4.5e-05,1742105943.507806,user_1
-0.0275,0.13,0.00625,0.022950001,-0.0363475,-0.00331,0.11125,-0.05,-0.01875,0.0032650002,0.000275,0.0030375,1742105943.626297,user_1
-0.01875,0.12625,-0.01625,-0.0102375,0.026977502,0.0028675,0.11125,-0.04875,-0.0275,0.000275,-0.00064,7.75e-05,1742105943.7358289,user_1
-0.01875,0.125,-0.04125,0.00048750002,0.00377,0.002135,0.1125,-0.0475,-0.02625,0.0001225,6e-05,-0.00029,1742105943.84977,user_1
-0.015,0.12,-0.0325,0.0239575,-0.03978,-0.0048375,0.11125,-0.06375,-0.02125,-0.0031575,0.00026,-0.0019375,1742105943.965939,user_1
-0.0225,0.13875,0.00375,-0.032302503,0.0149225,0.0076,0.10875,-0.05,-0.03125,-0.000365,0.00048750002,-0.0010975,1742105944.085485,user_1
-0.015,0.1225,-0.0375,-0.012725,0.0092,0.0021675,0.115,-0.04375,-0.02125,0.0001825,0.0001525,-0.00045750002,1742105944.1917171,user_1
-0.01375,0.12,-0.04375,0.02011,-0.027787501,-0.00473,0.1125,-0.045,-0.02375,7.75e-05,-0.00035,-0.000275,1742105944.305847,user_1
-0.01,0.10125,-0.005,-0.0273275,0.008285,0.0036324998,0.1075,-0.0475,-0.02375,0.0004275,0.00016750001,-0.0024425,1742105944.42584,user_1
-0.015,0.12,-0.0375,-0.0094,0.019485,0.002305,0.115,-0.04,-0.02125,-4.5e-05,-0.0001375,0.0001975,1742105944.5338051,user_1
-0.0175,0.12375,-0.03625,0.005905,-0.015045,-0.0025025,0.11125,-0.04625,-0.025,0.00016750001,-0.00052,-3e-05,1742105944.647788,user_1
-0.03,0.12375,0.085,0.0158375,-0.0087425,0.0010675,0.11625,-0.04125,-0.0275,-0.001115,0.0010225,0.00264,1742105944.765381,user_1
-0.02375,0.1225,-0.025,-0.0071575,0.027787501,0.0012825,0.1125,-0.045,-0.02125,0.0007325,-0.00029,0.000535,1742105944.875694,user_1
-0.01875,0.1225,-0.035,0.000885,-0.00087,0.000885,0.11125,-0.0475,-0.0275,0.00026,-0.00033500002,4.5e-05,1742105944.989731,user_1
-0.01625,0.1175,-0.03,0.024765,-0.0367575,-0.00528,0.10875,-0.06125,-0.0225,-0.001405,-0.00016750001,-0.000855,1742105945.105941,user_1
-0.02125,0.125,0.01875,-0.02678,0.0096125,0.0061950004,0.10875,-0.05125,-0.02875,-0.0004125,0.0004425,0.000305,1742105945.225144,user_1
-0.0175,0.1225,-0.03,-0.010665,0.0077049998,3e-05,0.1125,-0.04625,-0.025,0.000275,-0.0001225,-0.00023,1742105945.331818,user_1
-0.02,0.125,-0.02625,0.012542499,-0.03102,-0.0045324997,0.11125,-0.05,-0.0225,9.25e-05,-0.0004125,-0.0001225,1742105945.446228,user_1
-0.0125,0.1075,0.00125,-0.0232075,0.0027474998,0.0037525,0.1075,-0.05125,-0.02375,0.00125,0.0001975,-0.002395,1742105945.565799,user_1
-0.015,0.12125,-0.015,-0.00821,0.0125725,0.0012675,0.11375,-0.0425,-0.0225,-3e-05,-0.0001975,0.0004125,1742105945.673697,user_1
-0.02125,0.13,-0.03375,0.003845,-0.007905,-0.0021199998,0.11125,-0.04625,-0.025,0.00035,-0.0004275,3e-05,1742105945.7877069,user_1
-0.035,0.1375,0.1025,0.0169525,-0.0064850003,0.000945,0.11625,-0.03875,-0.025,-0.0012050001,0.00148,0.0038,1742105945.906206,user_1
-0.02375,0.12625,-0.01125,-0.0071725002,0.021225,0.001235,0.1125,-0.04625,-0.025,0.00064,-0.000275,-7.75e-05,1742105946.015797,user_1
-0.0175,0.125,-0.0275,-0.0013875001,0.003585,0.0010825,0.1125,-0.04625,-0.025,9.25e-05,-0.0002125,-0.0002125,1742105946.129819,user_1
-0.02,0.12375,-0.0275,0.0225075,-0.0423125,-0.0048975,0.11,-0.055,-0.02,-0.00055,-0.00023,-0.0015875,1742105946.246061,user_1
-0.02125,0.1325,0.005,-0.025940001,0.017760001,0.00528,0.10875,-0.0525,-0.03,-0.0009925,0.0001975,-0.000365,1742105946.3659751,user_1
-0.01875,0.12375,-0.0375,-0.01004,0.008485,0.002305,0.11375,-0.045,-0.02375,0.000107500004,0.00023,-0.00048750002,1742105946.471642,user_1
-0.02,0.1225,-0.03875,0.0083775,-0.0326225,-0.0036775,0.1125,-0.045,-0.02375,0.00023,-0.0001225,-0.0001375,1742105946.5857012,user_1
-0.00125,0.08625,-0.00625,0.00084,0.01538,0.00084,0.11125,-0.03875,-0.02375,-1.5e-05,-0.0001225,-0.002335,1742105946.699784,user_1
-0.01875,0.12,-0.02375,-0.00734,0.020965,0.00058,0.11375,-0.04375,-0.0225,-1.5e-05,-0.0001825,0.00045750002,1742105946.81377,user_1
-0.0175,0.12375,-0.035,-0.0012675,0.0034025,0.0013725,0.11125,-0.045,-0.025,0.0004275,-0.000305,0.0002125,1742105946.927617,user_1
-0.0225,0.1275,-0.02125,0.024125,-0.0432275,-0.0048225,0.11,-0.05625,-0.02,0.0028375,-0.00035,0.00032,1742105947.045783,user_1
-0.02375,0.13875,-0.00875,-0.019790001,0.023102501,0.00177,0.11125,-0.04875,-0.0275,-0.000825,-7.75e-05,-0.0004425,1742105947.155808,user_1
-0.01375,0.12125,-0.03625,-0.00798,0.00351,0.00059500005,0.1125,-0.0475,-0.025,0.00023,6e-05,-0.000107500004,1742105947.269642,user_1
-0.015,0.125,-0.03125,0.012435,-0.0337825,-0.0028074998,0.1125,-0.04625,-0.0225,-9.25e-05,-0.0002125,-0.00035,1742105947.385542,user_1
-0.0175,0.125,-0.00125,-0.027955,0.005905,0.0042425,0.1075,-0.0525,-0.0275,-3e-05,0.000245,-0.00079250004,1742105947.5057878,user_1
-0.01375,0.11875,-0.0375,-0.009140001,0.00908,0.003235,0.11375,-0.0425,-0.02375,0.00023,0.0001975,-0.00026,1742105947.611646,user_1
-0.01875,0.1275,-0.0375,-0.0024875,-0.013854999,-0.0022574998,0.1125,-0.045,-0.0225,0.0001525,-0.00058,-0.000245,1742105947.725686,user_1
-0.00375,0.11375,0.0275,0.004135,0.018845,0.0018475,0.115,-0.02875,-0.02375,-0.0015725,3e-05,-0.00079250004,1742105947.8460958,user_1
-0.02125,0.12125,-0.055,-0.0072625,0.0163725,0.0013875001,0.11375,-0.04375,-0.0225,0.0007175,-0.0001975,4.5e-05,1742105947.95363,user_1
-0.01625,0.125,-0.04875,0.0057825,-0.012542499,0.0001525,0.11125,-0.045,-0.025,0.000365,-0.000825,0.00052,1742105948.067634,user_1
-0.0225,0.12375,0.1125,0.0189525,0.01419,-0.001175,0.1175,-0.03125,-0.02875,-0.001145,0.000945,0.0025025,1742105948.189217,user_1
-0.0175,0.1225,-0.03125,-0.0007775,0.02217,-0.0004275,0.1125,-0.0475,-0.0225,0.000855,-0.000535,0.0003825,1742105948.295588,user_1
-0.015,0.12125,-0.0375,0.0027325,-0.0003825,0.0024249998,0.11125,-0.04875,-0.0275,0.00033500002,-0.000275,0.00016750001,1742105948.40963,user_1
-0.015,0.12125,-0.045,0.024125,-0.043212503,-0.004105,0.11125,-0.06125,-0.01875,-0.0012975,4.5e-05,-0.0010825,1742105948.5259058,user_1
-0.0175,0.1375,-0.00375,-0.0302875,0.0113225,0.00554,0.11,-0.0525,-0.02875,-0.00045750002,-0.0001825,-0.000655,1742105948.6378329,user_1
-0.01875,0.13,-0.045,-0.0058125,0.004685,0.0022425,0.11375,-0.04375,-0.02375,0.000275,0.00035,-0.00029,1742105948.7515352,user_1
-0.0125,0.11875,-0.0375,0.0252675,-0.0387875,-0.0041199997,0.10875,-0.0525,-0.0175,-0.0001375,-0.0008075,-0.000565,1742105948.86633,user_1
-0.02,0.1425,-0.01125,-0.01918,0.0148325,0.0031575,0.11,-0.0525,-0.02875,-0.00016750001,0.0003975,-0.001465,1742105948.985329,user_1
-0.01375,0.12375,-0.03125,-0.0098125,0.008117501,0.0007325,0.11375,-0.04125,-0.0225,0.000275,0.0001525,-0.00045750002,1742105949.0935009,user_1
-0.01375,0.12375,-0.04125,0.0143575,-0.022782499,-0.0025775002,0.1125,-0.045,-0.025,0.0001225,-7.75e-05,-6e-05,1742105949.209793,user_1
-0.01125,0.1075,-0.00875,-0.024459999,0.009505,0.00235,0.1075,-0.0475,-0.025,0.0,0.0003975,-0.00177,1742105949.325994,user_1
-0.01375,0.11875,-0.04625,-0.011565,0.0127725,0.00325,0.115,-0.0425,-0.02125,4.5e-05,0.000107500004,-7.75e-05,1742105949.435551,user_1
-0.0175,0.125,-0.0375,0.004945,-0.0101325,-0.00023,0.11125,-0.045,-0.025,0.00035,-0.00064,-0.00033500002,1742105949.549634,user_1
-0.04125,0.1425,0.11,0.028182501,-0.0003825,-0.00035,0.11875,-0.03125,-0.02875,-0.00035,0.0007775,0.0029749998,1742105949.668082,user_1
-0.025,0.12625,-0.02,-9.25e-05,0.0213325,-0.00151,0.1125,-0.05,-0.02375,0.0007175,-0.000535,7.75e-05,1742105949.78521,user_1
-0.01625,0.11875,-0.0325,-0.0007175,0.0030825,0.0007325,0.11125,-0.04875,-0.0275,6e-05,0.0,0.00026,1742105949.891432,user_1
-0.0175,0.12375,-0.03375,0.01825,-0.038817503,-0.00296,0.11,-0.05375,-0.0175,-0.0002125,-9.25e-05,-0.0009925,1742105950.006014,user_1
-0.02,0.14,-0.00875,-0.0178825,0.013015,0.0024249998,0.11,-0.0525,-0.02875,-0.0005025,-0.00029,-0.00093,1742105950.126484,user_1
-0.01625,0.125,-0.03125,-0.0033725,0.00048750002,0.0008075,0.1125,-0.04625,-0.025,-3e-05,0.000305,-0.000365,1742105950.233554,user_1
-0.01875,0.12625,-0.01625,-4.5e-05,-0.0018625,0.000245,0.11125,-0.045,-0.02375,6e-05,-0.00033500002,-0.000535,1742105950.347662,user_1
-0.02625,0.12875,0.02125,0.0174875,-0.0175175,-0.0025325,0.11375,-0.045,-0.0275,0.0010975,9.25e-05,0.00293,1742105950.465788,user_1
-0.02,0.12,-0.01375,-0.00801,0.0205075,0.0019075,0.11,-0.0525,-0.0275,-0.0001225,-0.0007775,-0.00122,1742105950.575615,user_1
-0.02,0.1225,-0.0375,-0.0003825,0.0034475,0.000625,0.1125,-0.04875,-0.025,-0.00064,-0.00035,-0.0007475,1742105950.6896992,user_1
-0.02125,0.125,-0.03125,0.01538,-0.022995,-0.0042575,0.10875,-0.055,-0.02625,-0.00322,-0.0010075001,-0.0040749996,1742105950.8060029,user_1
-0.02375,0.0875,-0.03625,-0.0148175005,0.015899999,-0.0021675,0.06125,-0.09875,0.0275,-0.00537,0.007735,0.0065450002,1742106021.21456,user_2
-0.03125,0.095,-0.0625,-0.010055,0.035217497,0.0048825,0.0675,-0.09375,0.01875,0.001175,0.0030975002,0.0018300001,1742106021.327702,user_2
-0.0425,0.11,-0.10375,0.0193025,-0.0399325,-0.001435,0.04,-0.15125,0.02875,-0.012115,0.000945,-0.0049274997,1742106021.446652,user_2
-0.00125,0.055,-0.04625,-0.02008,0.011779999,0.00177,0.06625,-0.095,0.025,-0.0025775002,0.0032950002,0.000275,1742106021.567445,user_2
-0.04375,0.1025,-0.08125,-0.01538,0.020399999,0.001145,0.06875,-0.10125,0.02125,0.0006725,0.0012825,0.00293,1742106021.6697469,user_2
-0.0375,0.11125,-0.105,0.003905,-0.0175625,-0.001405,0.07375,-0.0925,0.0275,-0.0009,0.00093,0.0030525,1742106021.786204,user_2
-0.0525,0.14,0.11375,0.0375225,-0.001145,-0.00154,0.0775,-0.085,0.02,-0.0029449998,0.0060275,0.0037375,1742106021.906067,user_2
-0.02375,0.10625,-0.055,-0.0021675,0.032470003,-0.0037850002,0.075,-0.0975,0.01625,-0.000885,0.0001825,0.0001825,1742106022.010821,user_2
-0.03375,0.0975,-0.0825,-0.0033725,0.013215,0.000885,0.0775,-0.0925,0.0225,0.000245,-0.0003975,0.0014500001,1742106022.129747,user_2
-0.0275,0.10625,-0.08125,0.01387,-0.0620425,-0.0039825,0.07625,-0.09125,0.02875,0.0063625,0.0006875,0.0055549997,1742106022.2459168,user_2
-0.02125,0.1175,-0.035,-0.0252075,0.0199275,0.0096125,0.075,-0.095,0.0175,0.0025625,0.00029,-0.00154,1742106022.3517,user_2
-0.03375,0.1075,-0.08625,-0.013885,0.01204,0.003175,0.07875,-0.095,0.02125,0.00032,-0.00023,0.00026,1742106022.4668102,user_2
-0.0275,0.0975,-0.08875,0.0225375,-0.0461275,-0.0075675,0.0675,-0.1125,0.03375,-0.0066675,-0.00061,-0.0019675,1742106022.587841,user_2
-0.0075,0.08375,-0.045,-0.027557502,0.002885,0.0071875,0.075,-0.0925,0.02,0.00229,0.0009,-0.0007175,1742106022.693695,user_2
-0.03125,0.10625,-0.08375,-0.021775,0.0198675,0.006255,0.08125,-0.0925,0.01875,0.00229,0.00055,0.000855,1742106022.807584,user_2
-0.035,0.115,-0.11625,0.016815001,-0.0264425,-0.0051275003,0.0875,-0.09,0.02375,-0.00151,0.001405,-0.001235,1742106022.926135,user_2
0.01125,0.06875,-0.02875,0.0317225,0.0399625,-0.0050975,0.0825,-0.08125,0.01625,-0.0024575,0.0019525,0.00113,1742106023.046527,user_2
-0.0325,0.095,-0.07625,-0.0134275,0.026549999,0.0002125,0.08375,-0.09,0.0175,0.0012825,-0.000275,0.00045750002,1742106023.148751,user_2
-0.03625,0.11,-0.11625,0.017625,-0.0158075,-0.0054925,0.08375,-0.0875,0.0175,0.00154,-0.00029,0.0002125,1742106023.266539,user_2
-0.00625,0.1175,0.0475,0.029709999,0.033919998,-0.0037075,0.085,-0.08,0.015,-0.00232,0.0019375,-0.0006725,1742106023.386428,user_2
-0.02625,0.10625,-0.06125,-0.0047925,0.030715,-0.001495,0.085,-0.09,0.015,0.0010825,0.0001825,0.0001975,1742106023.49057,user_2
-0.03125,0.1,-0.08,-0.00055,0.0075075002,-0.000245,0.085,-0.0875,0.01375,0.00091500004,4.5e-05,0.0007625,1742106023.608981,user_2
-0.02375,0.1075,-0.0675,0.0146025,-0.0520775,-0.0033575,0.085,-0.0875,0.01875,0.00508,-0.000855,0.001405,1742106023.726769,user_2
-0.02375,0.1225,-0.03875,-0.03012,0.018584998,0.0077675,0.0825,-0.09125,0.01,0.0019225,0.0001975,0.000275,1742106023.830595,user_2
-0.03375,0.10875,-0.0875,-0.0133825,0.012207501,0.0029749998,0.0875,-0.08875,0.01125,0.000945,-9.25e-05,0.0004275,1742106023.9467142,user_2
-0.0325,0.1075,-0.09625,0.026290001,-0.03926,-0.0076599997,0.0775,-0.11375,0.0125,-0.00473,0.000245,-0.0022725,1742106024.067652,user_2
0.0,0.075,-0.04,-0.0157325,0.0142525,0.0029449998,0.0875,-0.0775,0.01,0.00059500005,0.000625,-0.00093,1742106024.1717188,user_2
-0.02875,0.09875,-0.0725,-0.014495,0.0225975,0.0013575,0.08875,-0.0875,0.00875,0.00122,-0.00048750002,6e-05,1742106024.286485,user_2
-0.03125,0.11375,-0.1,0.0053875,-0.0065925,-0.001175,0.0875,-0.085,0.01,0.00091500004,-0.00026,-0.00029,1742106024.4065018,user_2
-0.0425,0.1275,0.1025,0.026397498,-0.002335,9.25e-05,0.08125,-0.07875,0.00375,-0.0048825,0.0033275,0.00229,1742106024.5142632,user_2
-0.03,0.10375,-0.0675,-0.00911,0.036790002,-0.000365,0.08875,-0.08625,0.00625,0.00093,0.000245,0.000535,1742106024.6293828,user_2
-0.03375,0.0975,-0.09125,0.002595,0.00023,-0.0007625,0.08875,-0.08375,0.00625,0.000825,-0.0002125,0.0001975,1742106024.746638,user_2
-0.02625,0.105,-0.07625,0.017944999,-0.06096,-0.002885,0.09125,-0.085,0.005,0.0074475002,0.00113,0.0062100003,1742106024.8665442,user_2
-0.0225,0.1225,-0.04625,-0.016479999,0.03308,0.0039375,0.0875,-0.08625,0.00125,0.00142,0.0012825,0.0005025,1742106024.968608,user_2
-0.03,0.10875,-0.085,-0.0063325,0.010955,0.00029,0.09125,-0.08375,0.00125,0.00177,0.0007025,0.00055,1742106025.088008,user_2
-0.0225,0.1025,-0.08875,0.0204925,-0.051055,-0.00557,0.095,-0.08375,0.015,-0.00792,0.0010675,-0.0033575,1742106025.2068632,user_2
-0.02125,0.115,-0.03375,-0.0434575,0.00972,0.0075375,0.0875,-0.0875,-0.00125,0.0021825,-3e-05,-0.0009775,1742106025.309831,user_2
-0.0325,0.1025,-0.09375,-0.0234525,0.018815,0.00435,0.09375,-0.085,-0.0,-6e-05,-0.001175,0.0013575,1742106025.426664,user_2
-0.0325,0.10875,-0.11125,0.022065,-0.029145,-0.00325,0.09,-0.08,0.00875,-0.0048375,-0.004745,0.003585,1742106025.54604,user_2
-0.0175,0.1275,0.0725,0.0278775,0.0384225,-0.0042725,0.09375,-0.0675,0.00875,-0.0033275,0.0018475,-0.00122,1742106025.651697,user_2
-0.03625,0.08875,-0.09,-0.0089425,0.030792499,0.0018925001,0.095,-0.08,0.00625,-0.00058,0.0007025,4.5e-05,1742106025.7666,user_2
-0.03625,0.10875,-0.1125,0.01091,-0.015685,-0.0010525,0.0925,-0.08,0.0075,-0.0011900001,-0.0001975,0.00029,1742106025.886326,user_2
-0.02625,0.1225,0.105,0.036255002,-0.005265,-0.002,0.09375,-0.07,0.0025,-0.0048525,0.003555,0.000655,1742106025.992641,user_2
-0.0275,0.10625,-0.0675,-0.003525,0.03386,0.0019375,0.0925,-0.08375,0.0025,0.0007025,0.0013275,0.00016750001,1742106026.109015,user_2
-0.0275,0.10125,-0.0725,0.0060125,0.00048750002,-0.0016625,0.09375,-0.0825,0.005,0.000275,0.0012050001,0.0013575,1742106026.226594,user_2
-0.02125,0.1,-0.07875,0.018555,-0.0442975,-0.0027625,0.0975,-0.08875,0.0125,-0.001725,0.000565,-0.0013425,1742106026.334135,user_2
-0.02625,0.1175,-0.03125,-0.032975,0.0146325,0.00708,0.0925,-0.08125,0.00125,0.00142,0.00093,-0.0009925,1742106026.4475038,user_2
-0.03,0.10875,-0.08625,-0.0142525,0.0128325,0.0033875,0.0975,-0.07875,-0.0,0.0007025,-6e-05,0.000245,1742106026.567704,user_2
-0.03625,0.1175,-0.09875,0.018889999,-0.019975001,-0.0038,0.09375,-0.07875,0.00375,0.00052,-0.0001975,-0.0002125,1742106026.686687,user_2
-0.01125,0.10625,0.0275,0.028382499,0.025375,-0.0018,0.08625,-0.06375,-0.005,-0.00319,0.0025325,0.0006875,1742106026.789726,user_2
-0.03625,0.09625,-0.0725,-0.0107875,0.02768,0.00052,0.0975,-0.0775,-0.00375,0.0013275,0.0009775,0.001145,1742106026.906415,user_2
-0.03125,0.10125,-0.07625,0.0023800002,0.0014500001,0.0004125,0.09625,-0.07625,-0.0025,0.00087,0.00064,0.0013425,1742106027.026399,user_2
-0.035,0.1075,-0.0625,0.0225675,-0.0614925,-0.0028225,0.1,-0.07375,-0.00375,0.0047750003,0.002105,0.0072775004,1742106027.1314828,user_2
-0.02625,0.12,-0.0375,-0.016235001,0.0335075,0.0047750003,0.09625,-0.07375,-0.0075,0.00045750002,0.0009925,-0.0004275,1742106027.24691,user_2
-0.03375,0.10875,-0.07875,-0.003905,0.0052175,-0.0001225,0.10125,-0.07625,-0.00625,0.00064,-0.000107500004,0.0001225,1742106027.3661,user_2
-0.02625,0.10625,-0.0775,0.019455,-0.0470725,-0.0036925,0.095,-0.0925,0.00375,-0.0022125002,-0.00048750002,-0.0019075,1742106027.4747012,user_2
-0.02125,0.1075,-0.0375,-0.0431225,0.0020899998,0.0061500003,0.09625,-0.07375,-0.0075,0.00084,0.0004275,-0.0013275,1742106027.5882812,user_2
-0.0325,0.11,-0.08125,-0.015335,0.0081325,0.0034475,0.10125,-0.07375,-0.00625,0.001145,0.000245,0.0004125,1742106027.707068,user_2
-0.03375,0.1125,-0.0925,0.01645,-0.031845,-0.002075,0.1,-0.0725,-0.00625,0.0001225,0.000365,0.000365,1742106027.827001,user_2
-0.005,0.06875,-0.0225,0.017075,0.026245002,-0.0018625,0.1025,-0.0625,-0.00625,-0.0009625,0.0004275,-0.0004275,1742106027.929738,user_2
-0.03375,0.10375,-0.065,-0.01181,0.02266,0.0018625,0.10125,-0.0725,-0.00875,0.00064,3e-05,0.000245,1742106028.046704,user_2
-0.03375,0.11,-0.08125,-0.0024875,0.0016925,0.0009775,0.1,-0.07,-0.0075,0.00035,0.0,0.00026,1742106028.166092,user_2
-0.04125,0.115,-0.02125,0.0254375,-0.048355,-0.0019824998,0.105,-0.06875,-0.0125,0.00033500002,0.0018150001,0.007415,1742106028.2715478,user_2
-0.0275,0.1275,-0.0325,-0.01596,0.039490003,0.0025775002,0.1,-0.0725,-0.0125,0.000625,0.000655,-0.0008075,1742106028.386696,user_2
-0.0375,0.10875,-0.07875,-0.0054175,0.0117025,0.001145,0.10375,-0.07,-0.01,0.0008075,3e-05,0.000275,1742106028.5062542,user_2
-0.02625,0.10375,-0.0875,0.026702499,-0.0553125,-0.00737,0.09375,-0.09875,-0.005,-0.005585,0.0001525,-0.0043800003,1742106028.613735,user_2
-0.015,0.12125,-0.02625,-0.0399325,-0.00734,0.0036624998,0.1,-0.065,-0.00875,0.0001375,-4.5e-05,-0.0019525,1742106028.72772,user_2
-0.02875,0.11,-0.06875,-0.026702499,0.022765,0.00302,0.10375,-0.07,-0.01,0.0005025,-0.00048750002,0.00029,1742106028.846915,user_2
-0.0325,0.11625,-0.10875,0.018860001,-0.0224925,-0.0072175004,0.10125,-0.06875,-0.00875,0.00035,-6e-05,0.000245,1742106028.966723,user_2
-0.00625,0.1175,0.06125,0.033997502,0.036515,-0.0015725,0.10875,-0.0425,-0.01125,-0.0063925,0.0005025,0.000855,1742106029.069612,user_2
-0.025,0.10375,-0.045,-0.016465,0.0355375,0.0014500001,0.1,-0.07875,-0.0125,0.000275,-0.000305,-0.0001975,1742106029.1866062,user_2
-0.03,0.1075,-0.08625,-0.0020150002,0.0075525,0.00048750002,0.10125,-0.06875,-0.01,0.00058,-0.0001375,-0.0001525,1742106029.305818,user_2
-0.0325,0.1075,-0.07875,0.0249175,-0.06517,-0.0027774998,0.10625,-0.0625,-0.01125,0.003585,0.00122,0.0071575,1742106029.411474,user_2
-0.02375,0.12625,-0.04125,-0.021575,0.0308075,0.0041799997,0.1,-0.07375,-0.0125,0.0010675,0.00059500005,-0.0021675,1742106029.526144,user_2
-0.03125,0.10875,-0.07875,-0.0055549997,0.013625,0.002365,0.105,-0.0675,-0.00875,0.00079250004,-0.000275,0.0003825,1742106029.645484,user_2
-0.02125,0.1025,-0.09,0.033675,-0.0487825,-0.0059825,0.10625,-0.07875,0.005,-0.00113,-0.00093,-0.00059500005,1742106029.753608,user_2
-0.0225,0.1275,-0.03875,-0.03662,0.00679,0.00711,0.1,-0.06875,-0.01125,0.00125,0.0,-0.0025625,1742106029.8675258,user_2
-0.03,0.11375,-0.07625,-0.01953,0.012055,0.0048525,0.105,-0.0675,-0.01125,0.0007775,-4.5e-05,0.0003975,1742106029.986725,user_2
-0.02375,0.1075,-0.08375,0.025512502,-0.0369575,-0.007385,0.0975,-0.0925,-0.01125,-0.0054925,0.00058,-0.0019225,1742106030.095642,user_2
-0.0075,0.09375,-0.03,-0.0337075,0.00026,0.003585,0.10125,-0.065,-0.01,0.0006725,-3e-05,-0.0018300001,1742106030.209602,user_2
-0.02875,0.11,-0.07375,-0.0240325,0.0184025,0.002885,0.105,-0.0675,-0.01125,0.0004125,-4.5e-05,4.5e-05,1742106030.327221,user_2
-0.02875,0.115,-0.105,0.0206,-0.025162501,-0.0046075,0.1025,-0.0675,-0.01125,0.0001825,4.5e-05,-0.0001525,1742106030.446549,user_2
-0.02625,0.12875,0.0725,0.016755,0.0269625,0.0001225,0.105,-0.0525,-0.01125,-0.0010975,0.00016750001,-0.0010675,1742106030.551643,user_2
-0.035,0.1025,-0.075,-0.018142499,0.032302503,0.0010525,0.10375,-0.06625,-0.01375,0.00058,0.0001375,-0.00023,1742106030.6665668,user_2
-0.03125,0.10875,-0.09375,0.0068975003,-0.0072775004,-0.0007175,0.1025,-0.06625,-0.01125,0.00029,-0.0003975,-0.00029,1742106030.786808,user_2
-0.0275,0.1125,-0.04,0.0248425,-0.047287498,-0.0020299999,0.105,-0.06625,-0.01625,0.0007325,0.0018475,0.005065,1742106030.894484,user_2
-0.02375,0.12375,-0.0325,-0.0184175,0.0319375,0.0013425,0.10125,-0.07,-0.0175,0.000365,0.0004725,-0.0005025,1742106031.0074549,user_2
-0.02875,0.10875,-0.08125,-0.007995,0.0093075,0.0016625,0.10375,-0.0675,-0.01125,0.00023,-4.5e-05,-0.00033500002,1742106031.130094,user_2
-0.0275,0.11125,-0.07375,0.021575,-0.03241,-0.0061950004,0.1025,-0.06875,-0.01125,-6e-05,-4.5e-05,-0.0003975,1742106031.247217,user_2
-0.0025,0.09,-0.02,-0.0143275,0.027602501,0.002365,0.09875,-0.07125,-0.01375,0.0016175,-0.00026,-0.0019225,1742106031.349628,user_2
-0.03375,0.11625,-0.1075,-0.016145,0.0206,0.0026099999,0.10625,-0.065,-0.015,0.00058,0.0001375,-0.0009,1742106031.4671528,user_2
-0.0275,0.10875,-0.07625,0.0231475,-0.034544997,-0.005355,0.10125,-0.0675,-0.00875,3e-05,-0.0006725,-6e-05,1742106031.588566,user_2
0.00125,0.085,-0.01625,0.0139325,0.0322725,-3e-05,0.10125,-0.0575,-0.0125,0.000305,-0.000305,-0.0025175,1742106031.691626,user_2
-0.02625,0.10125,-0.06875,-0.01349,0.021865,0.0013875001,0.105,-0.06625,-0.0125,0.0008075,-0.00055,1.5e-05,1742106031.8070002,user_2
-0.02375,0.115,-0.08375,0.0078425,-0.009475,-0.0010075001,0.10125,-0.06875,-0.01125,9.25e-05,-0.00033500002,0.0,1742106031.927882,user_2
-0.02875,0.1225,0.09625,0.023697501,0.01204,0.00174,0.1075,-0.05,-0.015,-0.0072925,0.0004125,0.002135,1742106032.033574,user_2
-0.025,0.1125,-0.0525,-0.0004425,0.027129998,-0.0027474998,0.10375,-0.07,-0.01375,-0.0002125,-0.00035,0.0004425,1742106032.147625,user_2
-0.02375,0.10875,-0.065,0.0009,0.0031275,-0.000245,0.1025,-0.06625,-0.01,0.00016750001,-0.00064,-0.0001225,1742106032.267999,user_2
-0.02,0.11125,-0.06125,0.0152125,-0.046354998,-0.0024875,0.09875,-0.0675,-0.005,0.00583,0.0001375,0.00232,1742106032.387824,user_2
-0.025,0.1275,-0.02375,-0.031555,0.020325001,0.0065774997,0.1,-0.07125,-0.015,0.00032,0.00026,-0.0012050001,1742106032.48853,user_2
-0.02875,0.11625,-0.08125,-0.0083325,0.01027,-0.0003975,0.105,-0.06625,-0.01,0.00026,-0.000275,-0.0002125,1742106032.610062,user_2
-0.0225,0.10625,-0.07625,0.0228125,-0.039505,-0.0069575,0.1,-0.08875,-0.01,-0.00264,-0.0010975,-0.001465,1742106032.727693,user_2
-0.015,0.1075,-0.0325,-0.0195775,0.0152275,0.0029749998,0.09875,-0.07125,-0.01,0.0018300001,-0.0004425,-0.0030675002,1742106032.830549,user_2
-0.02375,0.10875,-0.075,-0.020325001,0.018477501,0.003555,0.10625,-0.0675,-0.01125,0.00052,-0.00035,-0.00023,1742106032.947528,user_2
-0.0225,0.11125,-0.08375,0.02034,-0.02681,-0.0058125,0.10125,-0.0675,-0.00875,9.25e-05,-0.0003975,-0.0001225,1742106033.068151,user_2
-0.00375,0.0975,-0.0025,0.0060575,0.031432502,-0.0001975,0.1025,-0.05625,-0.00875,0.00058,-0.00023,-0.002655,1742106033.1726022,user_2
-0.02625,0.105,-0.06875,-0.0149375,0.0260475,0.0013725,0.105,-0.0675,-0.01125,0.000855,-0.00029,4.5e-05,1742106033.287526,user_2
-0.02125,0.115,-0.0875,0.010284999,-0.014405,-0.0014500001,0.10125,-0.06875,-0.00875,0.00016750001,-0.00055,-7.75e-05,1742106033.406997,user_2
-0.035,0.12,0.0775,0.0152425,-0.0068675,-0.00032,0.1075,-0.05,-0.01375,-0.00525,0.001115,0.0019675,1742106033.5272691,user_2
-0.0225,0.1125,-0.0625,-0.0060875,0.0289925,-0.00148,0.10375,-0.07,-0.0125,-0.0001375,-0.00026,0.000107500004,1742106033.6308842,user_2
-0.01875,0.10625,-0.07375,0.0018300001,0.0016775,0.0010825,0.1025,-0.0675,-0.01,0.0002125,-0.00033500002,3e-05,1742106033.747503,user_2
-0.0175,0.1125,-0.06125,0.02365,-0.04953,-0.00354,0.1,-0.07,-0.00625,0.005065,0.0015575,0.0048074997,1742106033.867511,user_2
-0.0225,0.13125,-0.025,-0.024185,0.029907499,0.0057225,0.1,-0.07375,-0.01375,0.0004425,0.000245,-0.00229,1742106033.97047,user_2
-0.03,0.115,-0.07625,-0.0131075,0.014495,0.0039224997,0.105,-0.06625,-0.01,0.00035,0.0001825,0.0001525,1742106034.08967,user_2
-0.02125,0.10375,-0.08375,0.026977502,-0.0466625,-0.006775,0.0975,-0.09125,-0.01,-0.0048674997,-0.00016750001,-0.0021525,1742106034.2074602,user_2
-0.0125,0.10375,-0.02625,-0.035354998,0.00508,0.0060425,0.09875,-0.07125,-0.01,0.001115,-0.00026,-0.002685,1742106034.3114822,user_2
-0.03,0.1125,-0.085,-0.0204175,0.0151675,0.0040749996,0.10625,-0.06625,-0.01125,0.0001975,3e-05,-7.75e-05,1742106034.42758,user_2
-0.0275,0.115,-0.08625,0.020477502,-0.0301525,-0.0066075,0.1025,-0.06625,-0.00875,0.0001825,-0.00033500002,-4.5e-05,1742106034.547267,user_2
0.0,0.09,-0.00125,0.0078724995,0.027145,0.0011900001,0.10125,-0.0625,-0.01125,0.0007775,-0.0001525,-0.0024425,1742106034.654251,user_2
-0.0275,0.10625,-0.0775,-0.0175625,0.020202499,0.0024725,0.105,-0.06625,-0.01125,0.0006875,0.0,0.000245,1742106034.767426,user_2
-0.02125,0.10625,-0.0675,0.001525,-0.0037850002,0.00125,0.10125,-0.0675,-0.01,0.0002125,-0.00048750002,0.00029,1742106034.8875651,user_2
-0.0425,0.11875,0.03125,0.019805001,-0.0508725,-0.00177,0.1075,-0.0575,-0.01875,-0.0018300001,0.0022725,0.0054475004,1742106035.0073018,user_2
-0.02,0.11875,-0.0375,-0.011779999,0.0352325,0.00023,0.10125,-0.07625,-0.01375,0.0005025,0.00023,-0.0007175,1742106035.109814,user_2
-0.0275,0.105,-0.08125,-0.0060875,0.011825,0.00302,0.105,-0.06375,-0.01125,0.0001975,0.000107500004,0.000565,1742106035.227863,user_2
-0.02125,0.10125,-0.09375,0.0269925,-0.060365003,-0.007645,0.10625,-0.07125,0.00625,0.000945,-0.000825,0.00125,1742106035.347324,user_2
-0.01875,0.125,-0.0375,-0.043212503,0.00879,0.0058125,0.10375,-0.065,-0.01125,0.0004425,-0.000107500004,-0.0038,1742106035.451457,user_2
-0.03625,0.11375,-0.0825,-0.023545,0.0248575,0.0087575,0.10875,-0.06125,-0.01,0.00035,-0.0003975,0.0007325,1742106035.568552,user_2
-0.0325,0.1075,-0.10375,0.0260775,-0.0352475,-0.0103,0.10375,-0.0675,-0.01,0.0004275,-0.00016750001,-0.000275,1742106035.687674,user_2
0.00875,0.05875,-0.0075,0.03334,0.03653,-0.002305,0.1075,-0.04625,-0.01375,-0.00116,-0.00033500002,-0.0023800002,1742106035.7935512,user_2
-0.03375,0.10625,-0.05875,-0.020569999,0.031799998,0.0052175,0.105,-0.06875,-0.01125,0.00032,-0.000625,0.00064,1742106035.907365,user_2
-0.03125,0.1125,-0.0925,0.0041799997,-0.00325,-0.0010675,0.1025,-0.065,-0.01125,0.000365,-0.000275,-3e-05,1742106036.027133,user_2
-0.06625,0.145,0.14875,0.0384075,-0.0078575,3e-05,0.11,-0.04375,-0.02,-0.00499,0.00148,0.0058125,1742106036.1472871,user_2
-0.025,0.11625,-0.04375,-0.0081475,0.0364675,-0.0018,0.1025,-0.08,-0.015,0.0010675,0.00032,-0.0010525,1742106036.249346,user_2
-0.03,0.1075,-0.08125,-0.00534,0.01323,0.0018,0.105,-0.065,-0.01,0.0002125,-0.0001375,-0.0005025,1742106036.366862,user_2
-0.02875,0.11,-0.0925,0.030685,-0.0705875,-0.00737,0.0975,-0.06875,0.00125,0.0079499995,-0.000245,0.0030825,1742106036.487095,user_2
-0.02,0.1325,-0.04125,-0.0398875,0.01451,0.007675,0.09875,-0.07625,-0.01375,0.0016325001,0.00023,-0.0043800003,1742106036.591261,user_2
-0.02875,0.11625,-0.0725,-0.0149225,0.018035,0.0043800003,0.1075,-0.06,-0.0075,3e-05,-0.00035,-7.75e-05,1742106036.707718,user_2
-0.0225,0.10875,-0.095,0.032455,-0.05867,-0.0101775,0.09875,-0.06875,0.00125,0.006165,-0.0009625,0.001175,1742106036.827213,user_2
-0.02375,0.1325,-0.045,-0.049165,0.008880001,0.0068675,0.1,-0.0725,-0.01125,0.0012050001,0.0001375,-0.0038599998,1742106036.933229,user_2
-0.0325,0.115,-0.075,-0.0220325,0.01262,0.0050975,0.1075,-0.0625,-0.01,0.0001975,-4.5e-05,0.000245,1742106037.0475352,user_2
-0.0275,0.1075,-0.09375,0.0219275,-0.0358575,-0.006805,0.09875,-0.0975,-0.0125,-0.0024725,0.0001975,-0.00171,1742106037.167047,user_2
-0.00375,0.07625,-0.02625,-0.029145,0.0111225005,0.005325,0.09875,-0.06625,-0.00875,0.000365,-0.0007175,-0.0036775,1742106037.287582,user_2
-0.0425,0.105,-0.075,-0.0193625,0.024092501,0.005875,0.10625,-0.06375,-0.01125,0.000365,0.0001975,0.000535,1742106037.389114,user_2
-0.03,0.11625,-0.09375,0.01271,-0.02449,-0.004685,0.10125,-0.06625,-0.01,0.00058,-0.00033500002,0.0004125,1742106037.507243,user_2
-0.01875,0.135,0.11,0.037657503,0.0336,-0.0018925001,0.1075,-0.04375,-0.01625,-0.00354,0.0003825,0.0,1742106037.61784,user_2
-0.02375,0.105,-0.0675,0.0059975,0.0225675,-0.0046225,0.105,-0.07,-0.01375,0.000365,-0.000107500004,-0.0001975,1742106037.731358,user_2
-0.01875,0.11625,-0.06375,0.0066225,-0.0133975,-0.0007775,0.1025,-0.0675,-0.01,0.00032,-4.5e-05,0.0001225,1742106037.847471,user_2
-0.01125,0.11625,0.02625,0.0195625,0.020979999,-0.000825,0.11,-0.04625,-0.0125,-0.00467,0.0003975,0.000855,1742106037.966964,user_2
-0.02375,0.10625,-0.05125,-0.012984999,0.02652,0.0006875,0.105,-0.06625,-0.0125,9.25e-05,-0.0001825,0.00059500005,1742106038.0732522,user_2
-0.02125,0.1075,-0.07125,0.0007175,0.0019075,0.0003825,0.1025,-0.06625,-0.0125,0.000107500004,-0.000305,-0.0003975,1742106038.1873448,user_2
-0.02,0.11125,-0.06625,0.02301,-0.0494075,-0.0036624998,0.10125,-0.06875,-0.00875,0.005035,0.0009625,0.0038299998,1742106038.3072262,user_2
-0.02375,0.13,-0.0325,-0.0266575,0.023605,0.004135,0.10125,-0.07375,-0.01625,0.000565,4.5e-05,-0.0016925,1742106038.427496,user_2
-0.02375,0.11,-0.08375,-0.006455,0.0083625,0.002365,0.10625,-0.06375,-0.01,0.00033500002,-9.25e-05,-0.0006875,1742106038.529346,user_2
-0.02375,0.115,-0.07,0.0254675,-0.0295875,-0.003845,0.10375,-0.07875,0.0,-0.003585,-0.000365,-0.0021675,1742106038.645837,user_2
-0.0125,0.1075,-0.0325,-0.031462498,0.0031575,0.0043325,0.10125,-0.07125,-0.0125,0.0004125,0.0005025,-0.000855,1742106038.76719,user_2
-0.03875,0.11,-0.08375,-0.0217275,0.0163425,0.006835,0.10625,-0.0625,-0.01,0.00048750002,3e-05,0.00052,1742106038.8711522,user_2
-0.02875,0.10625,-0.085,0.022444999,-0.0328825,-0.008485,0.10375,-0.0675,-0.01125,-1.5e-05,-0.0004125,-0.0002125,1742106038.9870772,user_2
0.00375,0.0725,-0.01375,0.01654,0.031462498,-0.0014500001,0.1025,-0.05375,-0.0125,0.0004425,0.000535,-0.0014500001,1742106039.109854,user_2
-0.03125,0.10375,-0.0525,-0.0169375,0.0314025,0.0048225,0.105,-0.06375,-0.015,0.0012975,-0.000535,-0.0001825,1742106039.213247,user_2
-0.035,0.12375,-0.095,0.012345,-0.0080725,-0.0040749996,0.10375,-0.065,-0.00875,0.000565,-0.00142,-0.00032,1742106039.327189,user_2
-0.04875,0.1275,0.06,0.0230725,-0.0233,0.000825,0.10875,-0.05875,-0.0175,-0.0048975,0.002075,0.0046550003,1742106039.446943,user_2
-0.03,0.11375,-0.0525,-0.01236,0.034775,0.0069875,0.10375,-0.06625,-0.015,0.0001825,-6e-05,-0.0001975,1742106039.5677938,user_2
-0.03625,0.10625,-0.06625,-0.00229,0.0069425,0.0024875,0.10375,-0.06625,-0.01375,0.001235,-0.0004425,-0.000565,1742106039.66923,user_2
-0.04375,0.10875,-0.0825,0.026014999,-0.0417175,-0.009765,0.10375,-0.08375,-0.00875,-0.00023,-6e-05,-0.00084,1742106039.787283,user_2
-0.0125,0.0775,-0.0275,-0.0081325,0.0239875,0.0021825,0.1,-0.06125,-0.01375,0.0029749998,-0.0001225,-0.0034175,1742106039.906802,user_2
-0.0375,0.105,-0.06125,-0.0219725,0.024995001,0.0051125004,0.105,-0.065,-0.015,0.001465,-0.0002125,0.0001375,1742106040.0111191,user_2
-0.04375,0.12,-0.10375,0.003815,-0.00473,-0.0010825,0.1025,-0.065,-0.01375,0.0007025,-0.0001525,0.0001375,1742106040.130582,user_2
-0.08,0.1275,0.1125,0.04387,-0.040817503,-0.00079250004,0.10875,-0.05375,-0.02625,-0.0086975,0.00328,0.0092325,1742106040.247361,user_2
-0.02875,0.12,-0.02625,-0.009185,0.0538175,0.0058125,0.1025,-0.075,-0.02125,0.0010375,0.00087,-0.00091500004,1742106040.35314,user_2
-0.03875,0.1075,-0.08375,-0.0036324998,0.01262,-0.00016750001,0.10625,-0.065,-0.015,0.000855,-0.0003975,-0.00052,1742106040.467584,user_2
-0.0375,0.10875,-0.065,0.0251775,-0.070985004,-0.0086825,0.0975,-0.07125,-0.00375,0.0063625,-0.0013725,-0.00064,1742106040.588832,user_2
-0.03625,0.12875,-0.01125,-0.0472725,0.0154275,0.0077525,0.09875,-0.07125,-0.01875,0.00154,-6e-05,-0.0036775,1742106040.707402,user_2
-0.03625,0.1125,-0.07625,-0.021057501,0.0143275,0.0046550003,0.10625,-0.0625,-0.0175,0.000365,-0.0004725,3e-05,1742106040.809163,user_2
-0.04625,0.11375,-0.08875,0.02922,-0.0497125,-0.012680001,0.1025,-0.0875,-0.01125,-0.000885,-0.00061,-0.00029,1742106040.9273732,user_2
-0.005,0.0675,-0.0125,-0.0293125,0.012604999,0.0043175,0.1,-0.06,-0.01375,0.0016475001,-0.0010825,-0.003845,1742106041.047126,user_2
-0.03625,0.10875,-0.06,-0.0125575,0.0272225,0.0038599998,0.10625,-0.06375,-0.01625,0.000825,-0.0004425,-0.0001525,1742106041.1512792,user_2
-0.04,0.12125,-0.0925,0.0193775,-0.028732501,-0.0086675,0.10125,-0.0675,-0.015,-3e-05,-0.00033500002,-0.0001375,1742106041.267234,user_2
-0.00125,0.06875,0.00875,0.0029000002,0.0249025,0.00296,0.10375,-0.05375,-0.015,0.0004125,-0.0010975,-0.0033275,1742106041.387177,user_2
-0.0375,0.11375,-0.05875,-0.0021199998,0.030305,0.0009775,0.10625,-0.06375,-0.01625,0.0010225,-0.00029,0.0003975,1742106041.4931252,user_2
-0.035,0.12125,-0.085,0.01027,-0.0152275,-0.0040275003,0.1025,-0.065,-0.015,-3e-05,-0.00016750001,0.000245,1742106041.609904,user_2
-0.0375,0.13125,0.1175,0.038772497,0.024139998,0.000535,0.10875,-0.04,-0.02125,-0.0044549997,0.0010375,0.0010375,1742106041.72708,user_2
-0.03625,0.11125,-0.0425,-0.0007475,0.041595,0.001755,0.105,-0.0675,-0.0175,0.0001975,1.5e-05,-7.75e-05,1742106041.847425,user_2
-0.035,0.115,-0.08375,0.0042425,-0.0045925,-0.0031424998,0.10375,-0.065,-0.0175,0.00032,1.5e-05,-1.5e-05,1742106041.9491682,user_2
-0.05,0.1125,-0.00875,0.0326075,-0.05922,-0.0048225,0.10875,-0.055,-0.02375,-0.003905,0.0027474998,0.0061500003,1742106042.068311,user_2
-0.02625,0.12625,-0.025,-0.021317499,0.037657503,-0.0033575,0.10375,-0.07125,-0.02,-0.0005025,0.000945,-0.00055,1742106042.187098,user_2
-0.02125,0.1025,-0.0775,-0.012025,0.018142499,0.0041799997,0.10625,-0.0625,-0.01625,0.000305,-0.00055,-7.75e-05,1742106042.291121,user_2
-0.03,0.11375,-0.07875,0.028365,-0.0472725,-0.0021199998,0.10375,-0.09125,-0.01125,-0.0031275,-0.0001975,-0.0013125,1742106042.40688,user_2
-0.0125,0.08625,0.015,-0.0054325,0.024825001,0.0065774997,0.09875,-0.0675,-0.01875,0.0007175,0.0001225,-0.002655,1742106042.526975,user_2
-0.04,0.11375,-0.0725,-0.0108175,0.032837503,0.0071725002,0.10625,-0.0625,-0.0175,0.00093,0.0001375,-0.0001375,1742106042.64656,user_2
-0.04,0.1175,-0.07875,0.025512502,-0.0384075,-0.00966,0.1025,-0.06625,-0.01625,0.00032,-0.000365,-6e-05,1742106042.747294,user_2
-0.01875,0.10375,0.06375,0.0295725,0.0405875,0.0021525,0.10625,-0.045,-0.0175,-0.000855,6e-05,-0.002595,1742106042.867347,user_2
-0.045,0.10875,-0.07,-0.00177,0.04042,0.0027925,0.10625,-0.06375,-0.01875,0.0009,-0.00064,0.0004275,1742106042.983916,user_2
-0.03,0.11375,-0.085,0.0151375,-0.021117501,-0.0049125,0.1025,-0.06625,-0.0175,0.000245,-0.0004275,0.00029,1742106043.0892951,user_2
-0.0175,0.0975,0.07125,0.05951,0.0243825,-0.000107500004,0.11125,-0.03875,-0.0225,-0.004685,0.0007175,-3e-05,1742106043.207785,user_2
-0.04,0.12,-0.04625,0.01152,0.038650002,-0.0033875,0.10375,-0.0675,-0.02,0.0007775,-0.0007175,0.000107500004,1742106043.3272908,user_2
-0.03375,0.1125,-0.05,0.0025175,0.005005,0.00079250004,0.1025,-0.06625,-0.0175,0.00033500002,-0.000625,1.5e-05,1742106043.431058,user_2
-0.03375,0.11625,-0.04875,0.0125875,-0.059189998,-0.01001,0.09625,-0.0725,-0.01,0.005005,-0.0012975,-0.0026099999,1742106043.547164,user_2
-0.03625,0.13375,-0.01875,-0.0401775,0.0176075,0.008575,0.09875,-0.0725,-0.02125,0.0015875,-0.0001525,-0.0030825,1742106043.667062,user_2
-0.03375,0.1175,-0.0675,-0.0245675,0.01825,0.0054025003,0.10625,-0.0625,-0.01625,0.00026,-0.00059500005,6e-05,1742106043.7730508,user_2
-0.0375,0.115,-0.08375,0.026275,-0.043045,-0.012085,0.105,-0.0925,-0.0125,-0.001115,-0.0019375,-0.0001375,1742106043.887399,user_2
-0.0025,0.05875,-0.01,-0.0178975,0.0121625,0.0018150001,0.10125,-0.06,-0.0125,0.0006875,-0.00084,-0.004195,1742106044.007199,user_2
-0.03375,0.1075,-0.06375,-0.0154125,0.023635,0.0030675002,0.10625,-0.0625,-0.0175,0.0007475,-0.0007175,0.000625,1742106044.1150012,user_2
-0.02875,0.11625,-0.07625,0.003005,-0.0127725,-0.001405,0.1025,-0.06625,-0.01375,9.25e-05,-0.0004425,0.000535,1742106044.229054,user_2
-0.04875,0.14375,0.09875,0.0199125,-0.0206,-0.0001975,0.11,-0.045,-0.0175,-0.0048975,-1.5e-05,0.0013275,1742106044.3474162,user_2
-0.035,0.11,-0.06625,-0.0099325,0.031997498,0.0025325,0.10625,-0.0625,-0.0175,0.0001975,-0.0004725,0.00029,1742106044.4674811,user_2
-0.03125,0.10375,-0.065,0.002715,-0.000855,0.000945,0.1025,-0.065,-0.015,0.0,-0.00087,0.00029,1742106044.5709682,user_2
-0.035,0.11,-0.06125,0.01381,-0.0302425,-0.0043800003,0.10375,-0.0675,-0.015,-0.00064,0.0001525,6e-05,1742106044.687561,user_2
-0.0175,0.11,-0.01125,0.0022125002,0.028212499,-0.0001225,0.10125,-0.06625,-0.01875,0.0001225,0.0003975,-0.0006875,1742106044.807337,user_2
-0.04,0.1,-0.09375,-0.008117501,0.0207675,0.0,0.1075,-0.06125,-0.01625,0.000565,-0.00026,-0.000655,1742106044.913207,user_2
-0.03125,0.11,-0.09375,0.02382,-0.0270225,-0.0063625,0.10375,-0.065,-0.0125,0.0003825,-0.00079250004,0.000305,1742106045.026984,user_2
-0.015,0.0975,0.0425,0.0302125,0.0193625,-0.0006725,0.10625,-0.0475,-0.015,0.0,-0.0001375,-0.0022425,1742106045.1463082,user_2
-0.0325,0.11375,-0.0575,-0.0043175,0.0264575,0.00052,0.105,-0.065,-0.01625,0.0009625,-0.00048750002,-0.0002125,1742106045.2673569,user_2
-0.025,0.1125,-0.06625,0.00299,-0.0010525,-0.0002125,0.10375,-0.065,-0.015,0.0001225,-0.00059500005,-0.0001825,1742106045.369062,user_2
-0.04,0.125,0.0575,0.0143125,-0.01738,6e-05,0.11,-0.0475,-0.01875,-0.0045775,0.001755,0.0030525,1742106045.487568,user_2
-0.0225,0.1175,-0.04,-0.0060875,0.030257499,0.0025025,0.105,-0.06875,-0.0175,-0.0001975,-0.0001525,-0.0004425,1742106045.609668,user_2
-0.0325,0.10875,-0.06375,-0.0043800003,0.00792,0.0044699996,0.10375,-0.06375,-0.01625,0.0001375,-0.0004425,-3e-05,1742106045.7111,user_2
-0.04,0.115,-0.07375,0.0083925,-0.0219725,-1.5e-05,0.10375,-0.065,-0.01375,-0.000107500004,9.25e-05,-0.00079250004,1742106045.826738,user_2
-0.03125,0.11625,0.03875,0.010255001,-0.0137950005,-3e-05,0.105,-0.0575,-0.01625,0.0004425,-9.25e-05,-0.00142,1742106045.947113,user_2
-0.04,0.11125,-0.0775,-0.002395,0.0195,0.00079250004,0.10625,-0.0625,-0.015,0.00055,-0.0001525,-0.0004725,1742106046.053086,user_2
-0.0325,0.11,-0.07,0.011155,-0.018555,-0.0054175,0.10375,-0.065,-0.015,0.0001525,-0.00059500005,0.0004125,1742106046.16732,user_2
-0.0125,0.08875,-0.00375,0.00592,0.016082501,0.0016325001,0.1025,-0.06375,-0.01625,-0.00033500002,0.00033500002,-0.0016775,1742106046.287301,user_2
-0.03375,0.11375,-0.05,-0.008485,0.0178825,0.002075,0.105,-0.065,-0.01625,0.00052,-0.000245,0.00016750001,1742106046.407201,user_2
-0.0325,0.11375,-0.06875,0.005295,-0.00357,-0.00264,0.1025,-0.065,-0.015,-0.0001975,-0.00026,-4.5e-05,1742106046.509152,user_2
-0.0475,0.13125,0.025,0.017700002,-0.0137950005,-0.0030525,0.10875,-0.0475,-0.01875,-0.0012675,0.0001525,0.000305,1742106046.630478,user_2
-0.025,0.115,-0.045,-0.0004125,0.021102501,0.0022274998,0.10375,-0.0675,-0.0175,0.0003975,-0.000305,-0.0001225,1742106046.7472908,user_2
-0.03,0.11375,-0.05875,0.00026,0.0066075,0.0008075,0.10375,-0.065,-0.015,0.0001825,-0.00033500002,-6e-05,1742106046.8509529,user_2
-0.02375,0.11125,-0.055,0.013335,-0.03769,-0.0057825,0.105,-0.06375,-0.0175,0.0004275,0.001785,0.0049125,1742106046.966454,user_2
-0.025,0.12,-0.045,-0.0048825,0.0184175,0.00293,0.105,-0.06875,-0.01625,-0.00032,3e-05,-0.00033500002,1742106047.088564,user_2
-0.0275,0.1175,-0.05875,-0.0018,0.0020299999,-0.000535,0.10375,-0.065,-0.01625,0.00023,-0.00091500004,0.0001375,1742106047.192877,user_2
-0.0325,0.1175,-0.02625,0.00911,-0.030989999,-0.005325,0.10875,-0.05,-0.02,1.5e-05,0.0013425,0.0042275,1742106047.307483,user_2
-0.0225,0.12,-0.04125,-0.00148,0.019989999,0.0036925,0.105,-0.0675,-0.01625,-3e-05,7.75e-05,-0.0001975,1742106047.427706,user_2
-0.03375,0.11625,-0.05375,-0.0048825,0.009765,0.00079250004,0.105,-0.065,-0.015,0.0,-0.0001525,-0.000245,1742106047.535494,user_2
-0.02125,0.11125,-0.06375,0.01422,-0.032485,-0.00917,0.1,-0.07125,-0.01,0.0007175,-0.0004725,-0.0007025,1742106047.648967,user_2
-0.02875,0.12625,-0.03125,-0.02475,0.00711,0.0021975,0.1025,-0.0675,-0.01875,-0.000107500004,0.0001525,-0.000885,1742106047.767354,user_2
-0.025,0.11375,-0.06375,-0.0119624995,0.0116725,0.002075,0.105,-0.0625,-0.01375,0.000275,-0.000275,0.0001375,1742106047.886958,user_2
-0.03125,0.11625,-0.075,0.0171975,-0.02243,-0.0047150003,0.10375,-0.075,-0.015,-0.001175,-0.000825,-0.0007025,1742106047.9911182,user_2
-0.00875,0.07875,-0.02,0.002045,0.017075,-0.0010375,0.10125,-0.05875,-0.01375,-0.00058,-7.75e-05,-0.0020899998,1742106048.1095,user_2
-0.02875,0.10875,-0.0475,-0.0081775,0.02353,0.0037375,0.10625,-0.06375,-0.01625,0.000565,1.5e-05,0.0007175,1742106048.227059,user_2
-0.03125,0.11375,-0.065,0.0008075,0.0066374997,0.0013575,0.1025,-0.06375,-0.015,-3e-05,-6e-05,-0.0003825,1742106048.333098,user_2
-0.02625,0.11125,-0.05375,0.0369875,-0.0420075,-0.008805,0.10625,-0.06,-0.0175,0.001725,0.0019375,0.0043325,1742106048.4467762,user_2
-0.0275,0.12,-0.00625,-0.016082501,0.031905,0.0075525,0.10375,-0.0675,-0.01875,-6e-05,-4.5e-05,-0.00045750002,1742106048.567734,user_2
-0.03,0.1225,-0.055,-0.006165,0.0051875,9.25e-05,0.105,-0.06375,-0.0175,0.00035,-0.000305,-0.0002125,1742106048.686999,user_2
-0.025,0.11875,-0.0375,0.016617501,-0.0509175,-0.0075525,0.10625,-0.065,-0.0175,0.00357,0.0018625,0.0036475,1742106048.788812,user_2
-0.0225,0.12375,-0.0125,-0.01332,0.0234525,0.0072175004,0.1025,-0.06875,-0.02125,4.5e-05,0.0002125,-0.00087,1742106048.9071438,user_2
-0.02625,0.125,-0.03625,-0.0094,0.0107425,0.0025625,0.10625,-0.06375,-0.01625,0.0003825,-0.00035,-0.000275,1742106049.0269282,user_2
-0.02625,0.12375,-0.05625,0.014587499,-0.037552502,-0.0081325,0.10125,-0.07875,-0.01125,0.0007625,-0.0012975,-0.00148,1742106049.130958,user_2
-0.02125,0.115,-0.02,-0.02925,0.0099325,0.0025025,0.10125,-0.06625,-0.0175,0.0004125,0.0001975,-0.002105,1742106049.2468858,user_2
-0.02375,0.11125,-0.05,-0.015457501,0.017547501,0.005265,0.1075,-0.06125,-0.015,0.00016750001,-0.00033500002,0.00048750002,1742106049.367144,user_2
-0.035,0.12875,-0.07625,0.0031575,-0.0113075,-0.001465,0.10375,-0.06375,-0.015,0.0,-0.0003825,-0.0007625,1742106049.47306,user_2
-0.03,0.13125,0.0925,0.0290975,0.02533,-0.0001525,0.11,-0.0425,-0.0175,-0.0021199998,-0.00023,-0.0009,1742106049.588442,user_2
-0.03,0.11625,-0.04375,0.018905,0.038099997,0.0049125,0.105,-0.065,-0.015,0.00087,-0.00029,0.000245,1742106049.707138,user_2
-0.03375,0.11875,-0.03,0.0051725,0.002685,-0.00113,0.1025,-0.06625,-0.01625,-9.25e-05,-0.0004425,0.00029,1742106049.8267891,user_2
-0.02375,0.115,-0.0475,0.015685,-0.0361025,-0.00908,0.1025,-0.07,-0.015,0.0021975,-0.0001825,0.0003825,1742106049.928767,user_2
-0.02875,0.1225,-0.015,-0.0279075,0.0222625,0.004945,0.10375,-0.065,-0.01875,-0.00026,-4.5e-05,-0.000855,1742106050.047258,user_2
-0.02375,0.1175,-0.0525,-0.008195,0.00473,0.0006875,0.105,-0.06375,-0.01625,0.0002125,-0.000365,-0.0004425,1742106050.166722,user_2
-0.0225,0.11625,-0.05625,0.0196225,-0.038665,-0.0048975,0.09875,-0.07375,-0.01,0.00296,-6e-05,0.000625,1742106050.270785,user_2
-0.03125,0.13375,-0.01875,-0.035400003,0.0167225,0.0089875,0.1,-0.07375,-0.0175,-0.00064,-0.0004725,-0.002135,1742106050.38682,user_2
-0.03875,0.1225,-0.06375,-0.018815,0.0119325,0.0044250004,0.105,-0.06375,-0.01375,-0.000655,-0.0004725,-0.0010975,1742106050.50613,user_2
-0.03125,0.1125,-0.06875,0.0266575,-0.041702498,-0.0098275,0.105,-0.07625,-0.00125,-0.0021525,-0.0039224997,-0.0028675,1742106050.612991,user_2
-0.02625,0.12,-0.0175,-0.0216825,-0.0010675,0.0043175,0.1,-0.07375,-0.00375,-0.0013725,0.00029,0.00016750001,1742106050.726767,user_2
-0.00875,0.11125,0.02,0.04541,0.037842497,0.0034325,0.10125,-0.065,-0.01125,0.0001975,0.0010975,0.0012050001,1742106050.8466618,user_2
-0.03125,0.125,0.0425,0.0384225,0.03682,0.01854,0.10375,-0.06625,-0.00875,0.0023800002,0.0019225,0.000825,1742106050.9667609,user_2
-0.0325,0.09375,-0.005,-0.053467497,0.0051875,0.002305,0.08875,-0.07125,0.02125,0.0054475004,0.00531,0.0054475004,1742106122.0272708,user_3
-0.035,0.09875,-0.07375,-0.032532502,0.02678,0.0081625,0.09625,-0.0725,0.0125,-0.0024100002,0.007005,0.00769,1742106122.137203,user_3
-0.0525,0.10875,-0.1075,0.030777501,-0.042815,-0.0008075,0.1,-0.07,0.00625,0.001435,0.0040749996,0.0028225,1742106122.251295,user_3
-0.04,0.13875,0.12375,0.0290975,0.055985,-0.0071725002,0.09875,-0.07875,0.0125,0.001435,-0.0010375,0.0019525,1742106122.3668082,user_3
-0.03875,0.09125,-0.0575,-0.008712499,0.045455,0.0019375,0.11,-0.06875,0.01,0.00325,0.0083325,0.0080875,1742106122.486478,user_3
-0.04625,0.105,-0.07,0.00079250004,0.00045750002,0.0018475,0.09625,-0.08125,-0.0025,0.0040125,0.0037850002,0.001725,1742106122.593083,user_3
-0.08625,0.10625,0.035,0.033005003,-0.096405,-0.00563,0.105,-0.0625,0.005,3e-05,0.00032,0.0019525,1742106122.7089338,user_3
-0.03375,0.11625,-0.02125,-0.0113825,0.0538175,0.00016750001,0.09875,-0.06125,0.02125,-0.000245,-0.0052024997,-0.0055225003,1742106122.8265688,user_3
-0.055,0.1075,-0.0775,-0.0092775,0.00972,0.0058125,0.105,-0.0625,0.0025,0.0086825,0.002625,-0.001405,1742106122.935199,user_3
-0.065,0.11,-0.0725,0.0309,-0.092300005,-0.0037850002,0.11625,-0.05875,-0.0,0.0019225,0.0044400003,0.0015875,1742106123.04927,user_3
-0.05375,0.13125,0.00875,-0.0503225,0.02826,0.009095,0.10875,-0.09625,0.00125,-0.0010225,0.0028375,0.0001225,1742106123.167368,user_3
-0.0475,0.1125,-0.06875,-0.016555,0.020385,0.0040425,0.1075,-0.05125,-0.0075,-0.0033575,0.003585,0.000825,1742106123.277211,user_3
-0.0425,0.1025,-0.06625,0.0286875,-0.0697625,-0.0054475004,0.10875,-0.05875,-0.01125,0.0007175,0.00154,0.00232,1742106123.3912792,user_3
-0.01625,0.08375,-0.01,-0.033355,0.0208425,0.0051875,0.1075,-0.06,-0.01,0.00026,-0.00016750001,0.0016175,1742106123.506314,user_3
-0.03875,0.115,-0.05375,-0.0204925,0.019775,0.00151,0.11,-0.045,-0.01875,-0.0101475,0.00302,0.0040275003,1742106123.626909,user_3
-0.03125,0.12375,-0.07375,0.012635,-0.03073,-0.0033875,0.11,-0.05625,-0.015,-0.0008075,-0.0002125,0.0015875,1742106123.733227,user_3
-0.01,0.0975,0.02375,0.016692499,0.04448,-0.0040749996,0.10875,-0.0575,-0.01125,0.000945,-0.0004725,0.000245,1742106123.847832,user_3
-0.045,0.11,-0.04375,-0.008545,0.0275275,0.0025325,0.10875,-0.05875,-0.0175,-0.00647,0.00557,0.0078425,1742106123.967178,user_3
-0.03625,0.1175,-0.07375,0.0078575,-0.0087275,0.0018775001,0.10875,-0.06,-0.01625,-0.0021199998,-0.00026,0.0016475001,1742106124.075097,user_3
-0.08,0.15375,0.19,0.02974,0.0117025,-0.0002125,0.11,-0.05375,-0.015,0.0004725,-0.00033500002,0.0001825,1742106124.189153,user_3
-0.04875,0.125,-0.03,-0.0036,0.0367125,0.0007475,0.11125,-0.06875,-0.0075,0.014785,0.0018300001,0.0002125,1742106124.306676,user_3
-0.04,0.11,-0.0525,-0.0028074998,0.00331,0.0022125002,0.10375,-0.0625,-0.025,0.00377,0.00087,-0.00061,1742106124.417186,user_3
-0.055,0.12,-0.04375,0.021835,-0.077194996,-0.0036925,0.11,-0.05375,-0.0175,0.0004125,-0.0007775,-0.0009925,1742106124.531262,user_3
-0.0375,0.13125,-0.00875,-0.0348675,0.04042,0.007995,0.09625,-0.07375,-0.0125,0.00058,-0.0028375,-0.0030825,1742106124.6459892,user_3
-0.04125,0.1175,-0.0575,-0.0092325,0.008225,0.0009925,0.10625,-0.05625,-0.015,0.0072775004,-0.0010675,-0.0051125004,1742106124.766423,user_3
-0.04625,0.1125,-0.05,0.0205525,-0.067565,-0.0029749998,0.11125,-0.05375,-0.0175,0.0009925,0.000245,-1.5e-05,1742106124.873183,user_3
-0.04875,0.115,0.02625,-0.03212,0.028245,0.008805,0.11,-0.06,-0.01375,-0.0003825,-0.0004725,-0.0006725,1742106124.987125,user_3
-0.03625,0.11875,-0.05375,-0.0174875,0.014175001,0.0018775001,0.1125,-0.03875,-0.01625,-0.0044549997,0.0012825,-0.000565,1742106125.106347,user_3
-0.04,0.1075,-0.0475,0.0228725,-0.056137502,-0.0051275003,0.11125,-0.05125,-0.02,0.0001375,0.0007325,0.00087,1742106125.215285,user_3
-0.03,0.10375,0.00125,-0.026549999,0.019897498,0.0051424997,0.10875,-0.055,-0.015,0.0009,-0.00035,-0.0008075,1742106125.329107,user_3
-0.0375,0.11875,-0.055,-0.020399999,0.018692499,0.0013725,0.11125,-0.03875,-0.02125,-0.0104375,0.0021525,0.00264,1742106125.4467368,user_3
-0.035,0.10875,-0.0575,0.019012501,-0.0568075,-0.0040275003,0.11125,-0.0525,-0.02,0.0007325,-0.000107500004,0.00079250004,1742106125.557424,user_3
-0.0175,0.0925,-0.015,-0.0332025,0.0092,0.0030525,0.10875,-0.05625,-0.02125,0.0006875,-0.0008075,-0.000885,1742106125.671076,user_3
-0.0325,0.1125,-0.04875,-0.0158075,0.0141,0.001235,0.1125,-0.03625,-0.02375,-0.010375,0.0024875,0.0034325,1742106125.786698,user_3
-0.0325,0.11625,-0.04875,-0.00113,-0.00714,0.00023,0.11,-0.055,-0.02125,0.0003975,-0.000245,0.00093,1742106125.906487,user_3
-0.05125,0.1125,0.12375,0.00473,-0.017424999,-0.0065450002,0.10625,-0.05625,-0.0225,0.00093,-0.0007625,-0.00032,1742106126.013185,user_3
-0.03375,0.115,-0.04125,-0.0037850002,0.02539,0.00299,0.10875,-0.06375,-0.01375,0.006835,0.0022125002,0.004685,1742106126.127222,user_3
-0.03,0.1075,-0.04875,0.0036175,0.0019075,0.0021825,0.10375,-0.0625,-0.025,0.00113,-0.0001525,-0.0013425,1742106126.245656,user_3
-0.03625,0.11625,-0.05125,0.018280001,-0.056900002,-0.00093,0.11,-0.05375,-0.02375,0.0010525,-0.00033500002,0.0001375,1742106126.3551931,user_3
-0.04,0.1275,0.0,-0.034957502,0.021879999,0.00911,0.10875,-0.07625,-0.0175,-0.00174,-0.0019225,-0.0021825,1742106126.4690711,user_3
-0.03625,0.1175,-0.0575,-0.009185,0.009582501,0.0031575,0.1075,-0.04875,-0.02125,0.00415,-0.0006725,-0.0037850002,1742106126.58641,user_3
-0.04,0.115,-0.0675,0.0210875,-0.042662498,-0.0025175,0.11,-0.05375,-0.0225,0.0013425,0.00026,0.000107500004,1742106126.6972458,user_3
-0.01375,0.08375,-0.0125,0.0009625,0.027817499,0.0001975,0.1075,-0.05375,-0.02125,7.75e-05,-0.00058,-0.0003975,1742106126.811077,user_3
-0.04,0.1175,-0.04375,-0.0119325,0.0245675,0.0003975,0.11375,-0.03625,-0.0275,-0.0106975,0.00267,0.0060425,1742106126.926564,user_3
-0.03125,0.12125,-0.07125,0.013305,-0.016235001,-0.005905,0.11,-0.0525,-0.02375,-0.00033500002,-0.00048750002,0.000825,1742106127.0465658,user_3
-0.01875,0.1125,0.06125,0.021805,0.04445,-0.0024100002,0.10875,-0.05125,-0.02375,0.0007175,-0.0007475,-0.000655,1742106127.152909,user_3
-0.0325,0.11625,-0.0375,-0.002135,0.026885001,-0.00435,0.11,-0.0475,-0.03,-0.008880001,0.00348,0.0083475,1742106127.267162,user_3
-0.0225,0.11375,-0.04125,-0.0033425,0.0095525,-0.0001225,0.1075,-0.0625,-0.02625,-0.0013575,9.25e-05,0.00064,1742106127.386915,user_3
-0.03,0.11375,-0.0525,0.0225225,-0.06018,-0.003205,0.10875,-0.05375,-0.0225,0.00023,-0.00064,-0.0001525,1742106127.4951968,user_3
-0.03,0.1325,-0.0025,-0.0346525,0.0223225,0.00537,0.10625,-0.08625,-0.01875,-0.0033275,-0.00174,-0.0034175,1742106127.609102,user_3
-0.03,0.115,-0.0575,-0.01146,0.009582501,0.003875,0.10625,-0.0575,-0.0225,0.0038,-0.00058,-0.0036624998,1742106127.7293062,user_3
-0.035,0.1325,-0.08,0.01117,-0.0261225,-0.000565,0.11,-0.0525,-0.0225,0.0012050001,0.0001825,0.0004725,1742106127.837328,user_3
0.00125,0.105,0.0375,0.01065,0.040955003,-0.0013125,0.1075,-0.05375,-0.02125,0.000107500004,-0.0010825,-0.0010825,1742106127.9508,user_3
-0.035,0.11125,-0.08,-0.0077675,0.01677,0.0021675,0.11,-0.0475,-0.0275,-0.0036175,0.001785,0.00685,1742106128.066713,user_3
-0.03,0.1125,-0.065,0.0020299999,-0.005905,0.0012975,0.11,-0.0525,-0.02,-0.0007175,-0.0003825,0.0006875,1742106128.178111,user_3
-0.05875,0.13,0.03,0.03279,-0.0367275,-0.0025775002,0.10875,-0.05375,-0.02375,0.0004125,-0.0007625,-0.000275,1742106128.2919831,user_3
-0.0275,0.1225,-0.02875,-0.008025,0.0364675,-0.0006875,0.1075,-0.05625,-0.01375,0.0077825,0.0003975,0.00612,1742106128.4066792,user_3
-0.03125,0.11,-0.0575,0.0034949998,0.00734,-0.0013275,0.105,-0.06125,-0.025,9.25e-05,0.00016750001,-0.00059500005,1742106128.5268831,user_3
-0.03375,0.1125,-0.07,0.0281075,-0.043,-0.0069875,0.11125,-0.05125,-0.0225,0.000625,-9.25e-05,0.0004275,1742106128.6342,user_3
-0.02625,0.10875,0.00875,-0.021879999,0.0157775,0.0060275,0.10875,-0.055,-0.02,0.0001975,-0.0001525,-0.000535,1742106128.748116,user_3
-0.0325,0.11875,-0.06625,-0.018280001,0.014145001,0.0025025,0.1125,-0.0375,-0.0225,-0.000945,-0.00016750001,-0.0018,1742106128.866987,user_3
-0.02875,0.11375,-0.065,0.02742,-0.0455025,-0.0064850003,0.11125,-0.05375,-0.02125,0.0009,1.5e-05,-0.0001225,1742106128.9761548,user_3
-0.03375,0.1225,0.00875,-0.0366375,0.0166325,0.00679,0.1075,-0.05375,-0.02125,-1.5e-05,-0.0005025,-0.0004425,1742106129.089919,user_3
-0.02875,0.11875,-0.06375,-0.015595,0.0148175005,0.00154,0.1075,-0.04875,-0.02125,0.000365,-0.0006875,-0.0029749998,1742106129.208458,user_3
-0.02875,0.12,-0.06,1.5e-05,-0.008515,0.0013875001,0.11125,-0.05375,-0.0225,0.001115,0.0001825,-1.5e-05,1742106129.318128,user_3
-0.0525,0.12875,0.1075,0.0346975,-0.0078425,-0.00154,0.1075,-0.0525,-0.02,-0.0001525,-0.0004275,-0.0003825,1742106129.432094,user_3
-0.03,0.115,-0.045,-0.008025,0.0320125,-0.00023,0.10875,-0.05625,-0.0275,0.00673,0.0015875,0.0054475004,1742106129.546179,user_3
-0.0275,0.10875,-0.05625,4.5e-05,0.0009625,0.0012975,0.10875,-0.05875,-0.025,-0.00033500002,0.0001225,-0.0001225,1742106129.666937,user_3
-0.0325,0.11625,-0.05875,0.0195775,-0.051025003,-0.00348,0.11,-0.0525,-0.02375,0.0007025,-0.0001375,-0.0004275,1742106129.7741902,user_3
-0.03,0.125,-0.0025,-0.029907499,0.021225,0.0046075,0.105,-0.08125,-0.0225,-0.00348,-0.00048750002,-0.0027625,1742106129.887986,user_3
-0.03,0.12,-0.0625,-0.011855,0.0107425,0.0010525,0.105,-0.0575,-0.025,0.0021825,-0.0008075,-0.0025025,1742106130.005883,user_3
-0.035,0.12375,-0.075,0.017075,-0.028275,-0.0038599998,0.11,-0.0525,-0.02375,0.000535,0.0001525,-3e-05,1742106130.116102,user_3
0.00375,0.08125,0.01,0.0027774998,0.0264275,0.00087,0.10875,-0.0525,-0.02,-0.000107500004,-0.00032,-0.000365,1742106130.229873,user_3
-0.02625,0.11375,-0.0525,-0.0098575,0.0196375,0.0020899998,0.11375,-0.0375,-0.0275,-0.0061500003,0.0015875,0.003555,1742106130.3468668,user_3
-0.0275,0.1175,-0.07,0.00998,-0.020477502,-0.0009775,0.11,-0.05375,-0.02125,0.0003975,-0.00023,-7.75e-05,1742106130.458286,user_3
-0.01875,0.125,0.05625,0.012955,0.027602501,-0.00045750002,0.10875,-0.0525,-0.02375,0.0001975,-0.00048750002,-0.0007175,1742106130.571903,user_3
-0.03,0.1125,-0.0525,-0.01085,0.0181725,0.0018150001,0.11375,-0.03875,-0.025,-0.0032950002,0.0022125002,0.004395,1742106130.687835,user_3
-0.02375,0.1125,-0.055,0.0019075,-0.00554,0.00052,0.11,-0.05375,-0.0225,-0.000275,-0.0001525,0.0004425,1742106130.806963,user_3
-0.0475,0.1275,0.04,0.02658,-0.037720002,-0.0018,0.10875,-0.0525,-0.025,0.0004125,-0.000365,-0.00023,1742106130.913982,user_3
-0.02625,0.12375,-0.02625,-0.0054175,0.0243825,-0.00048750002,0.10625,-0.0575,-0.0175,0.0051875,0.00064,0.0040425,1742106131.0281248,user_3
-0.02625,0.1175,-0.055,-0.0030525,0.0072025,7.75e-05,0.10625,-0.0575,-0.02625,-0.0002125,0.0001375,-0.000305,1742106131.146768,user_3
-0.0275,0.12,-0.05625,0.018662501,-0.0347125,-0.003525,0.11,-0.05125,-0.025,0.00052,9.25e-05,-0.00016750001,1742106131.255978,user_3
-0.02125,0.11375,-0.0075,-0.025557501,0.012069999,0.004105,0.10875,-0.05625,-0.02125,0.000107500004,-0.0001225,-0.0010375,1742106131.369931,user_3
-0.0275,0.12125,-0.06,-0.01538,0.013335,0.00322,0.11,-0.04375,-0.02375,0.001235,-0.00052,-0.002,1742106131.486869,user_3
-0.02875,0.12,-0.06125,0.012925,-0.019897498,-0.001525,0.11,-0.05375,-0.0225,0.000825,0.0002125,6e-05,1742106131.5980108,user_3
-0.00375,0.09875,0.005,0.015105,0.028350001,-0.0016175,0.1075,-0.0525,-0.02125,1.5e-05,-0.0008075,-0.0004425,1742106131.711862,user_3
-0.02875,0.11375,-0.0475,-0.012435,0.01918,0.0028525,0.11375,-0.03875,-0.025,-0.00415,0.00177,0.0039975,1742106131.827262,user_3
-0.02875,0.11375,-0.0525,9.25e-05,-0.0033575,0.0010975,0.11,-0.0525,-0.0225,-7.75e-05,-0.000535,0.0004275,1742106131.947082,user_3
-0.02875,0.12,-0.02875,0.02301,-0.041564997,-0.0045925,0.10875,-0.05125,-0.02375,0.000305,-0.00045750002,-0.00048750002,1742106132.0540328,user_3
-0.02375,0.12375,-0.01625,-0.01384,0.02948,0.0034625002,0.11125,-0.055,-0.01375,0.000855,-0.0010975,-0.0012975,1742106132.167991,user_3
-0.02875,0.1175,-0.0575,-0.0018625,0.0063024997,0.00061,0.10625,-0.0575,-0.025,-0.000245,0.0001225,-0.0007175,1742106132.286879,user_3
-0.0275,0.11875,-0.05125,0.0167075,-0.033585,-0.0047,0.11125,-0.05,-0.025,0.00033500002,0.0001375,0.000305,1742106132.396016,user_3
-0.02125,0.11375,-0.00875,-0.0187675,0.008042499,0.0043325,0.10875,-0.055,-0.02125,0.0001375,-0.0001975,-0.00059500005,1742106132.509996,user_3
-0.0275,0.12,-0.05125,-0.01509,0.0118875,0.0022125002,0.11125,-0.04,-0.0225,0.0001375,-0.0003825,-0.0016325001,1742106132.626556,user_3
-0.0275,0.12,-0.05625,0.004395,-0.01036,-0.000655,0.11125,-0.0525,-0.0225,0.000625,-0.0001825,0.0001375,1742106132.737988,user_3
-0.03375,0.1275,0.09,0.02626,-0.019012501,-0.001115,0.10875,-0.05125,-0.02125,6e-05,-0.00023,-0.0001225,1742106132.851968,user_3
-0.03125,0.125,-0.02625,-0.0101925,0.0272225,0.00122,0.11125,-0.04875,-0.02625,0.0021525,0.001405,0.0045324997,1742106132.9670742,user_3
-0.02,0.11375,-0.0475,0.0001825,0.0060575,0.00059500005,0.11,-0.055,-0.02375,-0.00029,-0.000107500004,-1.5e-05,1742106133.0869172,user_3
-0.025,0.12,-0.05125,0.019515,-0.0372475,-0.0034625002,0.11,-0.05125,-0.025,0.00059500005,-0.00035,0.0,1742106133.194018,user_3
-0.01375,0.10625,-0.005,-0.030365,0.0072625,0.0048525,0.10875,-0.0575,-0.02125,0.0001375,-0.0002125,-0.0007625,1742106133.3078752,user_3
-0.02625,0.115,-0.05625,-0.018615,0.0148,0.003905,0.1075,-0.0475,-0.0225,0.0013125,-0.0002125,-0.0027625,1742106133.427299,user_3
-0.02875,0.12,-0.065,0.00737,-0.015685,-0.0012050001,0.11125,-0.0525,-0.02125,0.00048750002,-6e-05,0.0001975,1742106133.535979,user_3
-0.02125,0.1325,0.08625,0.02774,-0.005035,0.0016925,0.10875,-0.0525,-0.02125,0.00016750001,-0.000565,-0.00033500002,1742106133.649814,user_3
-0.025,0.1275,-0.025,-0.0033575,0.023682501,0.000625,0.11125,-0.05,-0.025,-0.0001525,0.00151,0.0042875,1742106133.766558,user_3
-0.025,0.11875,-0.04625,0.00061,-9.25e-05,0.000245,0.10875,-0.05875,-0.025,-0.0001975,-4.5e-05,-0.0006725,1742106133.877882,user_3
-0.03125,0.11875,-0.04,0.0205225,-0.0388025,-0.00319,0.11,-0.05125,-0.0225,0.00035,0.00016750001,-0.0001825,1742106133.99199,user_3
-0.02125,0.13125,-0.0125,-0.019897498,0.019685,0.00377,0.10875,-0.06,-0.0125,0.0027474998,-0.001405,0.0001375,1742106134.106854,user_3
-0.03,0.1225,-0.05375,-0.00966,0.011779999,0.001435,0.1075,-0.0575,-0.0275,-0.000275,0.0001975,-0.002105,1742106134.219877,user_3
-0.02875,0.12,-0.06875,0.0139625,-0.026535,-0.0030975002,0.11125,-0.04875,-0.02125,0.000535,0.000275,0.0001975,1742106134.3339572,user_3
-0.0,0.07875,-0.00625,0.0142525,0.027985001,-0.000885,0.10875,-0.055,-0.02125,0.0001975,-0.000365,-0.00064,1742106134.447863,user_3
-0.02875,0.1125,-0.0525,-0.0106975,0.02176,0.002915,0.115,-0.0325,-0.025,-0.0033875,0.000655,0.0010375,1742106134.567088,user_3
-0.025,0.1175,-0.05625,0.0022574998,-0.0050975,0.00016750001,0.11125,-0.055,-0.02,0.0002125,-0.0004725,-0.000107500004,1742106134.6758158,user_3
-0.03375,0.13125,0.0875,0.0272375,0.0045475,-0.00061,0.10875,-0.0525,-0.02375,0.00032,-0.0004725,-0.00026,1742106134.7897012,user_3
-0.02625,0.1225,-0.03125,-0.0056925,0.02327,0.002395,0.11,-0.05,-0.02375,0.0013725,0.0013875001,0.00499,1742106134.9069529,user_3
-0.02625,0.11375,-0.04625,-0.00177,0.004165,0.0001975,0.10875,-0.05875,-0.0225,-0.00058,-0.0001825,-0.0007175,1742106135.0178618,user_3
-0.025,0.11625,-0.0625,0.01825,-0.039825,-0.0040599997,0.11,-0.0525,-0.025,0.000245,-0.00029,-0.000245,1742106135.131883,user_3
-0.0275,0.13125,-0.02875,-0.0220175,0.0059499997,0.0033725,0.10625,-0.07625,-0.02375,-0.0031575,0.000305,-0.0025775002,1742106135.250413,user_3
-0.02875,0.12,-0.04375,-0.01355,0.00711,0.00331,0.10625,-0.055,-0.02375,0.000107500004,0.000365,-0.0018150001,1742106135.366493,user_3
-0.02875,0.12125,-0.05625,0.011445,-0.017409999,-0.0046225,0.11125,-0.05125,-0.02125,0.0004425,0.0,0.00045750002,1742106135.473888,user_3
-0.01,0.085,-0.0075,0.000245,0.010375,-0.00058,0.10875,-0.05375,-0.02375,0.0001525,-0.000275,-0.000625,1742106135.5878232,user_3
-0.03125,0.115,-0.03375,-0.01587,0.0213925,0.0031575,0.115,-0.03375,-0.0225,-0.0012675,0.00061,-0.0005025,1742106135.709963,user_3
-0.02875,0.11875,-0.06875,0.0001225,-0.00055,-0.0005025,0.10875,-0.06,-0.02375,0.0007475,-0.00033500002,0.0007025,1742106135.815874,user_3
-0.04875,0.11625,0.07875,0.024292499,-0.0196525,0.00116,0.1075,-0.05375,-0.025,0.0003975,0.0001225,-0.000535,1742106135.929712,user_3
-0.0275,0.11625,-0.035,-0.0036475,0.023835,-0.00064,0.10875,-0.05375,-0.02125,0.0037075,0.0009625,0.0062725,1742106136.047819,user_3
-0.02625,0.115,-0.0525,0.000825,0.0049125,0.0013425,0.1075,-0.06375,-0.025,-0.00016750001,-6e-05,-0.001755,1742106136.157707,user_3
-0.02625,0.11625,-0.0775,0.0246125,-0.048905,-0.007355,0.11,-0.05,-0.02375,0.0004125,6e-05,-0.00033500002,1742106136.27194,user_3
-0.02375,0.135,-0.025,-0.02002,0.0139475,0.0043025,0.11,-0.07625,-0.0175,-0.0021825,-0.00113,-0.0024249998,1742106136.3873658,user_3
-0.0275,0.12125,-0.04375,-0.01265,0.011855,0.0037375,0.10625,-0.0575,-0.025,0.00029,0.0001825,-0.0031275,1742106136.506735,user_3
-0.02875,0.1225,-0.06125,0.01619,-0.0181725,-0.00325,0.1125,-0.04875,-0.02,7.75e-05,-1.5e-05,0.00064,1742106136.613824,user_3
-0.005,0.0775,-0.02125,-0.008255,0.0109250005,0.00264,0.10875,-0.05375,-0.0225,0.00045750002,-0.00035,-0.00016750001,1742106136.7303228,user_3
-0.02625,0.11375,-0.03625,-0.011275,0.017455,0.001405,0.115,-0.03,-0.02375,-0.0021525,0.000245,-0.0010375,1742106136.847716,user_3
-0.0275,0.12,-0.06375,0.0016175,-0.006455,-0.001145,0.11,-0.05625,-0.02125,0.000655,-0.000535,0.00055,1742106136.955849,user_3
-0.03625,0.12625,0.115,0.0237875,-0.0036,0.00351,0.10875,-0.05125,-0.025,0.00016750001,-0.000245,-6e-05,1742106137.069621,user_3
-0.02375,0.11125,-0.02875,-0.0025325,0.025969999,-0.00093,0.11125,-0.0475,-0.02375,0.00267,0.0015725,0.006805,1742106137.188492,user_3
-0.02875,0.11625,-0.0525,-0.009582501,0.0137175,0.00177,0.105,-0.065,-0.0275,4.5e-05,0.00023,-0.002595,1742106137.2977312,user_3
-0.025,0.115,-0.0925,0.028182501,-0.05223,-0.008315,0.11125,-0.04875,-0.0225,0.000305,9.25e-05,-0.0006725,1742106137.4117918,user_3
-0.02375,0.14125,-0.02875,-0.0225375,0.017212499,0.0037375,0.10875,-0.08625,-0.01875,-0.0045625,-0.000107500004,-0.003815,1742106137.52767,user_3
-0.02875,0.1175,-0.05125,-0.0139475,0.014907501,0.003005,0.105,-0.055,-0.02375,0.0012975,-0.000365,-0.0054325,1742106137.6471071,user_3
-0.0275,0.12,-0.07125,0.0166325,-0.0214225,-0.0030375,0.1125,-0.0475,-0.02125,0.00026,-0.0004425,0.0009625,1742106137.754004,user_3
-0.0025,0.09375,0.0125,0.018737499,0.033127498,-0.00293,0.1075,-0.05375,-0.02375,0.00023,-0.0004425,-0.0004125,1742106137.868004,user_3
-0.02625,0.11125,-0.04375,-0.015305,0.0213775,0.0018150001,0.11625,-0.02625,-0.02625,-0.0040749996,0.0020150002,0.0059975,1742106137.987662,user_3
-0.03,0.11625,-0.06875,0.0010525,-0.0034325,-0.000275,0.10875,-0.06125,-0.02375,0.0,-0.000535,0.0004725,1742106138.095979,user_3
-0.0425,0.1475,0.1375,0.03302,-0.0287025,0.0021675,0.1075,-0.05375,-0.02375,0.000245,-6e-05,-0.0004425,1742106138.2096431,user_3
-0.01625,0.12,-0.02125,0.0016325001,0.0254525,-0.0013275,0.1075,-0.0525,-0.02125,0.0048825,0.0007175,0.008805,1742106138.3274848,user_3
-0.02875,0.11875,-0.045,-0.0075675,0.0125275,0.0027625,0.105,-0.06625,-0.0275,0.0010225,0.0004725,-0.0042275,1742106138.446743,user_3
-0.01875,0.115,-0.07625,0.020782499,-0.0364075,-0.0055075004,0.11125,-0.0475,-0.02,0.00035,-0.0004125,-0.0001225,1742106138.551821,user_3
-0.02125,0.1325,-0.0375,-0.02832,0.0018475,0.00563,0.1025,-0.08,-0.0275,-0.0040275003,-0.0001825,-0.0028375,1742106138.667598,user_3
-0.02375,0.11875,-0.0325,-0.016815001,0.011275,0.00351,0.105,-0.05,-0.02,-0.0007025,-0.00045750002,-0.0037850002,1742106138.7876182,user_3
-0.0275,0.125,-0.0675,0.0042425,-0.0050500003,-0.0010075001,0.1125,-0.04875,-0.02,-0.0002125,-0.00026,0.00154,1742106138.8938408,user_3
-0.0325,0.1525,0.12125,0.035705,0.0193025,-0.0010975,0.1075,-0.0525,-0.025,0.000107500004,-0.00033500002,-0.000565,1742106139.00761,user_3
-0.025,0.11125,-0.035,-0.011229999,0.0216975,0.0014500001,0.11375,-0.03625,-0.0275,0.002715,0.0016625,0.0081025,1742106139.126934,user_3
-0.025,0.11625,-0.06375,0.0018925001,-0.0007025,0.0004275,0.10625,-0.06625,-0.02375,-0.00023,-0.00023,-0.000535,1742106139.235708,user_3
-0.05875,0.13125,0.1075,0.0326375,-0.0413975,-0.0021825,0.11,-0.05125,-0.02375,0.000245,7.75e-05,-0.00084,1742106139.3497128,user_3
-0.0175,0.12,-0.02375,-6e-05,0.024155,0.0018775001,0.1075,-0.055,-0.02,0.00473,0.00035,0.0074625,1742106139.467992,user_3
-0.03,0.1225,-0.0575,-0.00537,0.008315,0.002045,0.105,-0.06375,-0.02875,0.00084,0.0003825,-0.00322,1742106139.577755,user_3
-0.02375,0.1175,-0.075,0.027084999,-0.048722498,-0.0063625,0.1125,-0.0475,-0.02125,0.00048750002,4.5e-05,-7.75e-05,1742106139.69202,user_3
-0.02125,0.13125,-0.02625,-0.0119775,0.018860001,0.0042125,0.1125,-0.06625,-0.01125,0.0016175,-0.0016925,-0.00093,1742106139.807434,user_3
-0.0275,0.1225,-0.045,-0.0074775,0.014785,0.0016475001,0.10625,-0.05625,-0.02375,0.000625,0.00052,-0.003175,1742106139.927407,user_3
-0.02625,0.12,-0.0775,0.017455,-0.020584999,-0.00534,0.1125,-0.0475,-0.02125,0.00029,-4.5e-05,4.5e-05,1742106140.033911,user_3
0.00125,0.07,-0.01375,0.012665,0.028397499,-0.0020599999,0.10875,-0.05375,-0.02375,0.00045750002,-0.000275,-0.00035,1742106140.147624,user_3
-0.025,0.11375,-0.04,-0.016495,0.0136425,0.0019525,0.11625,-0.0275,-0.025,-0.0030375,0.00125,0.0022425,1742106140.266613,user_3
-0.02625,0.1175,-0.05875,-0.0020899998,-0.0007325,3e-05,0.11,-0.0575,-0.0225,0.0004275,-0.00035,0.00113,1742106140.375817,user_3
-0.0525,0.125,0.095,0.024872499,-0.0146175,0.00116,0.10875,-0.0525,-0.025,0.000275,-0.00016750001,-0.0005025,1742106140.48949,user_3
-0.02,0.1225,-0.025,-0.0003825,0.02304,-0.00016750001,0.10875,-0.0525,-0.02125,0.0036175,0.00091500004,0.006805,1742106140.60693,user_3
-0.025,0.1175,-0.05,-0.0028525,0.00798,0.0019375,0.10625,-0.0625,-0.02625,-0.000305,3e-05,-0.001465,1742106140.717601,user_3
-0.02,0.115,-0.06,0.023285,-0.03273,-0.004395,0.11125,-0.05,-0.0225,0.00035,0.00032,-6e-05,1742106140.831702,user_3
-0.02375,0.13375,-0.03,-0.030365,0.00033500002,0.003555,0.105,-0.07125,-0.025,-0.0022125002,-0.0004125,-0.0016325001,1742106140.947389,user_3
-0.0275,0.12,-0.0425,-0.0175775,0.0131075,0.0036624998,0.1075,-0.04375,-0.02,-0.000305,0.0001525,-0.002395,1742106141.067532,user_3
-0.0275,0.12125,-0.06625,0.0025475,-0.0057225,-0.00064,0.1125,-0.04875,-0.02,1.5e-05,-0.0004275,0.001525,1742106141.173708,user_3
-0.045,0.13625,0.12,0.032455,-0.0001525,-0.0005025,0.10875,-0.05125,-0.025,0.0001825,-0.000305,-0.0004725,1742106141.28766,user_3
-0.02375,0.12,-0.02125,0.00122,0.0281525,0.0007025,0.11125,-0.04625,-0.02375,0.0043025,0.0008075,0.0061950004,1742106141.407048,user_3
-0.025,0.12,-0.05125,-0.0027474998,0.0073249997,0.0004725,0.10875,-0.06,-0.02375,-0.00064,-0.00033500002,-0.0011900001,1742106141.515602,user_3
-0.02125,0.115,-0.06625,0.0290375,-0.04889,-0.005355,0.11125,-0.04875,-0.025,0.00032,0.000107500004,-0.000305,1742106141.629719,user_3
-0.02375,0.13625,-0.01375,-0.0219275,0.013854999,0.0040749996,0.11125,-0.06875,-0.015,-0.0037525,-0.00059500005,-0.003005,1742106141.750666,user_3
-0.02625,0.125,-0.0475,-0.0089724995,0.0106975,0.0025175,0.105,-0.0575,-0.025,0.000855,0.0003825,-0.00322,1742106141.857617,user_3
-0.025,0.12375,-0.06,0.013625,-0.02452,-0.0024725,0.1125,-0.04625,-0.02125,0.0001825,0.0004275,0.0007325,1742106141.9717178,user_3
-0.0075,0.09375,-0.02375,-0.026337499,0.0024725,0.0019824998,0.10875,-0.0525,-0.02125,7.75e-05,-0.00052,-0.000885,1742106142.0871391,user_3
-0.0225,0.11375,-0.0375,-0.017350001,0.010865,0.002655,0.11625,-0.02875,-0.02375,-0.00302,0.0007475,-0.00116,1742106142.1996632,user_3
-0.02625,0.12,-0.06125,-0.005295,0.001725,0.0010375,0.11125,-0.05375,-0.02125,0.00059500005,-0.00029,0.00113,1742106142.31367,user_3
-0.045,0.12375,0.01375,0.0273425,-0.035462502,-0.000655,0.10875,-0.0525,-0.025,4.5e-05,-0.0001525,-0.000305,1742106142.427972,user_3
-0.02375,0.125,-0.0225,-0.0055075004,0.026504999,0.0020599999,0.10875,-0.05375,-0.02,0.0045175,-0.0007775,0.0037075,1742106142.546724,user_3
-0.02875,0.1225,-0.04625,0.0015875,0.0095675,0.0018150001,0.10625,-0.06,-0.02625,-0.00061,-0.0002125,-0.001175,1742106142.655634,user_3
-0.02625,0.11875,-0.05125,0.0264275,-0.0320425,-0.0063175,0.11125,-0.0475,-0.02375,0.00048750002,0.00033500002,-6e-05,1742106142.769727,user_3
-0.01875,0.11375,-0.01375,-0.024139998,0.0056775,0.0029749998,0.1075,-0.0575,-0.0225,0.0001525,-0.00035,-0.000565,1742106142.887406,user_3
-0.02625,0.11625,-0.04,-0.017272498,0.0145425,0.0012050001,0.11125,-0.04,-0.02375,0.0,-4.5e-05,-0.00296,1742106143.00628,user_3
-0.02375,0.11625,-0.055,-0.0004125,-0.0066075,-0.00091500004,0.11125,-0.0525,-0.02125,0.0005025,-0.0003825,0.000655,1742106143.11191,user_3
-0.0525,0.1325,0.10125,0.0329425,-0.009095,0.0004725,0.10875,-0.0525,-0.02625,0.0001975,-0.0004425,-0.0001975,1742106143.229729,user_3
-0.0225,0.12125,-0.01375,-0.0072025,0.030715,0.002685,0.10875,-0.055,-0.02,0.00354,0.00084,0.0060125,1742106143.346787,user_3
-0.02875,0.11875,-0.05375,-0.0056149997,0.0099475,0.002075,0.1075,-0.06125,-0.0275,-0.00035,0.00032,-0.0012975,1742106143.4535098,user_3
-0.02375,0.11375,-0.06125,0.023772499,-0.0396575,-0.0055225003,0.1125,-0.0475,-0.0225,0.0004425,0.000107500004,-0.00045750002,1742106143.5677152,user_3
-0.0225,0.11125,-0.00125,-0.026475001,0.0077049998,0.0036475,0.11,-0.0525,-0.02125,0.0003975,-0.00035,-0.0003975,1742106143.688344,user_3
-0.02875,0.12,-0.05875,-0.0143275,0.0157775,0.0021825,0.1075,-0.0475,-0.02375,0.001115,-0.00016750001,-0.002915,1742106143.795658,user_3
-0.0275,0.11875,-0.06,0.0077675,-0.01767,-0.0020150002,0.1125,-0.05,-0.02125,0.0003975,4.5e-05,0.00023,1742106143.909582,user_3
-0.02625,0.13,0.08375,0.0299825,0.027985001,-0.00059500005,0.10875,-0.05125,-0.0225,-4.5e-05,-0.0006725,-0.000275,1742106144.027355,user_3
-0.0325,0.12125,-0.02625,-0.005585,0.031692497,0.00059500005,0.11375,-0.04,-0.025,-0.00087,0.00116,0.00348,1742106144.137644,user_3
-0.025,0.1175,-0.05375,0.005035,-0.003235,-0.0007025,0.11125,-0.0525,-0.02125,-0.0002125,-0.00045750002,0.0004125,1742106144.25158,user_3
-0.03875,0.125,-0.00125,0.0296475,-0.0358275,0.0002125,0.10875,-0.0525,-0.025,0.000365,-0.0003825,9.25e-05,1742106144.3672562,user_3
-0.02875,0.125,-0.02125,-0.0148,0.027405001,0.0026099999,0.11,-0.05875,-0.015,0.0030825,-0.00058,0.0022125002,1742106144.487496,user_3
-0.03125,0.11875,-0.055,-0.001755,0.00351,0.00229,0.10875,-0.05625,-0.0275,-0.0001525,6e-05,-0.00016750001,1742106144.593508,user_3
-0.03125,0.1175,-0.05375,0.01645,-0.03157,-0.0010375,0.11125,-0.05,-0.02375,0.000535,0.0002125,-0.0004125,1742106144.7094688,user_3
-0.01625,0.0975,-0.01875,-0.023025,0.00502,0.0010075001,0.11125,-0.05125,-0.02,0.000275,-0.000275,-0.0001225,1742106144.8273978,user_3
-0.03,0.11125,-0.04625,-0.0119025,0.01857,0.00319,0.11375,-0.0375,-0.02375,-0.00171,0.000625,-9.25e-05,1742106144.93557,user_3
-0.03,0.1125,-0.04625,-0.00035,0.0013875001,0.0024575,0.11125,-0.05125,-0.02125,0.000655,-0.00032,0.000655,1742106145.049503,user_3
-0.03875,0.1225,-0.0425,0.02475,-0.047957502,-0.0010375,0.10875,-0.05,-0.02375,0.00029,-0.000565,0.0001375,1742106145.167271,user_3
-0.03375,0.12875,-0.01625,-0.0254675,0.018737499,0.0022574998,0.105,-0.065,-0.0225,0.0009625,-0.0010375,-0.002685,1742106145.277524,user_3
-0.03625,0.12125,-0.04875,-0.0078125,0.00702,0.0020299999,0.105,-0.05625,-0.02625,-0.00035,-0.0001525,-0.00055,1742106145.391537,user_3
-0.03125,0.11625,-0.055,0.0230875,-0.0316475,-0.0041799997,0.1125,-0.04625,-0.0225,0.00026,0.0004125,0.00029,1742106145.506592,user_3
-0.03125,0.11625,-0.01375,-0.0320125,-0.0071725002,0.0016175,0.11125,-0.05125,-0.02125,0.00026,-0.0003975,-0.00029,1742106145.627056,user_3
-0.03375,0.11125,-0.04125,-0.021302499,0.015319999,0.0024575,0.11,-0.04,-0.0225,-0.0015875,0.00055,-0.001495,1742106145.7335198,user_3
-0.03625,0.1175,-0.0725,-0.0013875001,-0.00331,0.0016775,0.1125,-0.05,-0.02125,0.0001225,-1.5e-05,0.001175,1742106145.847842,user_3
-0.08,0.14625,0.10875,0.033982497,-0.0174875,0.0010075001,0.11,-0.04875,-0.02375,0.0001975,-0.0004125,-0.0001525,1742106145.967381,user_3
-0.02875,0.125,-0.02375,0.0072175004,0.03125,0.0001525,0.11125,-0.05875,-0.0175,0.0028525,0.00055,0.0013425,1742106146.075412,user_3
-0.0325,0.11,-0.045,-0.003175,0.00978,0.0054025003,0.11,-0.0525,-0.02625,-0.0012825,0.00023,-0.0003975,1742106146.18952,user_3
-0.0375,0.12125,-0.05,0.027207501,-0.04628,-0.00467,0.1125,-0.04625,-0.0225,0.000275,0.000107500004,-0.000107500004,1742106146.3075578,user_3
-0.0375,0.13,-0.015,-0.028549999,0.0133525,0.00267,0.1075,-0.06125,-0.02375,0.00035,-0.002,-0.0016025,1742106146.4175591,user_3
-0.0375,0.1175,-0.045,-0.015319999,0.0142375,0.0025775002,0.1075,-0.04875,-0.0225,0.0027474998,0.0,-0.003815,1742106146.5314429,user_3
-0.04,0.11375,-0.0725,0.021362498,-0.0281975,-0.0072325002,0.11375,-0.04375,-0.0225,-7.75e-05,0.000275,0.00084,1742106146.646927,user_3
-0.0125,0.06375,-0.0,-0.0178675,0.0142675,0.0018775001,0.11,-0.04875,-0.0225,0.0004275,-0.0001225,-0.0001975,1742106146.7666812,user_3
-0.0425,0.11375,-0.03875,-0.0107725,0.03041,0.00267,0.11875,-0.0275,-0.025,-0.0065450002,0.0021825,0.00467,1742106146.873565,user_3
-0.03375,0.115,-0.07125,0.006515,-0.011657501,-0.0016925,0.11125,-0.04875,-0.025,0.0010975,-0.0001525,0.00033500002,1742106146.987815,user_3
-0.07625,0.14625,0.135,0.0343775,-0.002915,-0.00122,0.11125,-0.0475,-0.025,0.00048750002,-0.0001525,-0.0004425,1742106147.1073909,user_3
-0.03625,0.1175,-0.03125,0.0013725,0.029815001,0.001235,0.115,-0.0525,-0.01875,0.0024725,0.0022425,0.00267,1742106147.215467,user_3
-0.035,0.11125,-0.0375,-0.00348,0.010605,0.00052,0.11,-0.05375,-0.02875,-0.0018475,0.0001975,0.0004725,1742106147.329535,user_3
-0.0325,0.11125,-0.065,0.0237875,-0.0394125,-0.0042425,0.1125,-0.04625,-0.025,0.0001375,-1.5e-05,-0.00023,1742106147.447579,user_3
-0.035,0.11375,-0.00375,-0.043855,-0.0033725,0.00154,0.1125,-0.0475,-0.025,3e-05,-0.000107500004,-0.00045750002,1742106147.557773,user_3
-0.0325,0.10875,-0.0475,-0.0189675,0.0130625,-0.00023,0.115,-0.03125,-0.025,-0.0013125,0.00026,-0.0020150002,1742106147.671525,user_3
-0.03375,0.11375,-0.0675,-0.000825,-0.00142,0.000855,0.1125,-0.0475,-0.025,0.000885,-6e-05,0.00061,1742106147.787473,user_3
-0.06625,0.145,0.0575,0.031495,-0.0292825,0.00052,0.11,-0.04875,-0.025,0.00023,-0.00045750002,-4.5e-05,1742106147.907466,user_3
-0.04,0.12,-0.0325,-0.017335,0.027069999,-0.0025175,0.1075,-0.06125,-0.02,0.0040275003,0.00055,-0.0002125,1742106148.013537,user_3
-0.03125,0.11,-0.06375,-0.0042275,0.0083925,0.0016625,0.11,-0.05375,-0.03,-0.0018475,0.000305,0.000305,1742106148.12744,user_3
-0.0375,0.11375,-0.07,0.0322575,-0.0396725,-0.00377,0.1125,-0.045,-0.02625,0.0001825,-7.75e-05,-0.0001525,1742106148.241565,user_3
-0.02875,0.1075,-0.0,-0.039794996,0.0072175004,0.00061,0.1125,-0.05,-0.02125,0.0008075,-0.000625,-0.00058,1742106148.3554602,user_3
-0.03125,0.105,-0.05125,-0.0143575,0.023559999,0.004195,0.11625,-0.03125,-0.02375,-0.0016625,0.0004275,-0.0013575,1742106148.469457,user_3
-0.035,0.11875,-0.0725,0.00441,-0.0089425,-0.00033500002,0.1125,-0.04875,-0.02125,0.0009,-0.000625,0.0006725,1742106148.587425,user_3
-0.06875,0.1475,0.145,0.043,0.0077049998,-0.001405,0.11,-0.04875,-0.02625,0.00033500002,-0.00052,-0.0003825,1742106148.6973472,user_3
-0.03375,0.115,-0.0275,-0.0034949998,0.0370625,-0.0002125,0.1125,-0.05375,-0.02,0.000535,0.0019375,0.0045175,1742106148.81165,user_3
-0.035,0.1125,-0.0525,-0.0030675002,0.0113825,0.00093,0.11125,-0.05375,-0.025,-0.0016025,-0.0001825,0.000305,1742106148.927549,user_3
-0.03,0.10875,-0.0575,0.0267175,-0.0525825,-0.0040125,0.1125,-0.045,-0.025,0.0005025,-0.0003825,-0.000565,1742106149.0478332,user_3
-0.03375,0.12125,0.0075,-0.04454,0.0109875,0.001175,0.1125,-0.04875,-0.0225,0.000275,-0.00033500002,-0.00016750001,1742106149.153422,user_3
-0.03,0.10875,-0.0575,-0.024780001,0.0189525,0.0036775,0.11125,-0.03875,-0.02375,-0.0009625,-0.0001525,-0.0020299999,1742106149.267413,user_3
-0.04125,0.1175,-0.0925,0.010605,-0.0204175,0.001785,0.11375,-0.04625,-0.02125,-0.0001225,0.0,0.000535,1742106149.387939,user_3
-0.06625,0.13,0.16125,0.042205002,0.02745,-0.0007025,0.11125,-0.045,-0.0225,0.000107500004,-0.000535,-0.0003825,1742106149.495328,user_3
-0.04125,0.1125,-0.02,-0.000305,0.048919998,0.0006725,0.11625,-0.0475,-0.02125,-0.005035,0.0030525,0.007675,1742106149.609426,user_3
-0.03625,0.105,-0.06875,-0.004395,0.007735,0.0025775002,0.11125,-0.055,-0.02875,-0.0024100002,0.0004125,0.001785,1742106149.7297971,user_3
-0.045,0.11375,-0.05375,0.038009997,-0.064849995,-0.0037075,0.1125,-0.0475,-0.02375,0.00059500005,-0.0001525,-0.0007025,1742106149.837546,user_3
-0.0475,0.1175,0.0025,-0.049652502,0.0214375,0.0020150002,0.11625,-0.05375,-0.01875,-0.00061,-0.0007175,-6e-05,1742106149.951257,user_3
-0.0425,0.1175,-0.065,-0.017959999,0.010162501,0.0046550003,0.11,-0.0375,-0.0225,-0.00032,-0.0001825,-0.0027774998,1742106150.0672572,user_3
-0.04625,0.11375,-0.0625,0.0225225,-0.04013,-0.0069425,0.11375,-0.04375,-0.02125,0.000565,0.0001525,0.00061,1742106150.188362,user_3
-0.02625,0.08125,0.0425,-0.0099949995,0.028885,0.00023,0.11125,-0.04875,-0.02125,0.0,-0.0007775,-0.0007175,1742106150.293257,user_3
-0.045,0.115,-0.04875,-0.01587,0.031205,0.000855,0.11875,-0.025,-0.0275,-0.0069274995,0.0032650002,0.0061500003,1742106150.407872,user_3
-0.03375,0.11,-0.055,-0.00079250004,-0.0015575,-0.0004275,0.115,-0.04375,-0.0225,0.0014500001,-0.000565,-0.0004275,1742106150.52724,user_3
-0.04625,0.11375,-0.035,0.042907503,-0.075592496,-0.0038299998,0.11,-0.0475,-0.025,0.0002125,-0.00026,-0.0001975,1742106150.635556,user_3
-0.035,0.1275,-0.02,-0.0372625,0.0396575,0.0024425,0.1025,-0.0575,-0.02625,0.0046375,-0.0018925001,-0.0031424998,1742106150.7508569,user_3
-0.0375,0.11125,-0.055,-0.014175001,0.020370001,0.0024249998,0.10625,-0.05375,-0.03,0.004485,-0.0011900001,-0.00499,1742106150.867289,user_3
-0.03875,0.1075,-0.08,0.03131,-0.04631,-0.0054025003,0.11375,-0.0425,-0.02375,0.0004275,0.000365,0.00058,1742106150.977458,user_3
-0.02125,0.065,0.04625,-0.02008,0.0246125,-0.00348,0.1125,-0.04625,-0.02375,0.000107500004,3e-05,-0.00058,1742106151.091375,user_3
-0.04125,0.11,-0.04,-0.0202175,0.0356,0.0027625,0.12,-0.02,-0.03125,-0.0096275,0.0042725,0.008865,1742106151.2090912,user_3
-0.03125,0.10625,-0.04625,-0.006515,0.00949,-0.00142,0.11375,-0.04875,-0.0225,0.0007775,-0.0010225,0.00035,1742106151.327683,user_3
-0.035,0.10625,-0.07875,0.0337975,-0.0658725,-0.0015725,0.11,-0.045,-0.0275,-0.000107500004,-0.0001375,-0.0010375,1742106151.4334998,user_3
-0.0325,0.11625,0.00375,-0.0361325,0.0069575,-0.0019225,0.11375,-0.04625,-0.02375,-0.00087,7.75e-05,-0.0015575,1742106151.547651,user_3
-0.03375,0.11375,-0.03875,-0.0279075,0.02211,0.001235,0.12125,-0.02625,-0.03,-0.008117501,0.00232,0.0024100002,1742106151.667198,user_3
-0.03375,0.11125,-0.0625,-0.0045775,0.0018150001,0.003175,0.11375,-0.04375,-0.0225,0.0012975,-0.00122,0.00122,1742106151.7754052,user_3
-0.08125,0.11875,0.03625,0.03711,-0.0720225,0.0016175,0.11,-0.05,-0.025,-6e-05,-0.0001525,-0.0003825,1742106151.889232,user_3
-0.03625,0.12625,-0.01125,-0.023545,0.0469525,-0.00023,0.10375,-0.0625,-0.02125,0.0065450002,-0.0015725,-0.0033425,1742106152.006599,user_3
-0.035,0.11375,-0.05375,-0.0072325002,0.0139475,0.001495,0.105,-0.06,-0.03125,0.0054775,-0.0010225,-0.0058125,1742106152.117273,user_3
-0.04,0.11375,-0.07,0.027940001,-0.0562125,-0.003815,0.1125,-0.0425,-0.02375,0.0007625,0.000945,0.0001525,1742106152.231418,user_3
-0.005,0.085,0.07375,-0.06256,-0.012680001,-0.0187225,0.1225,-0.0125,0.01,-0.0005025,0.0004125,0.00058,1742107849.518983,user_4
-0.01,0.1025,0.04875,-0.028245,-0.020370001,-0.009095,0.12375,0.0,0.00375,-0.0007175,0.00154,0.0003975,1742107849.63568,user_4
-0.0175,0.11875,0.0575,0.004195,-0.03914,-0.0040749996,0.12375,-0.01125,0.00625,0.00091500004,-0.00059500005,-0.00016750001,1742107849.755017,user_4
-0.005,0.12,0.0475,-0.01944,0.027282499,0.002915,0.1225,-0.01,0.00875,-0.0001975,-0.0001825,-0.00032,1742107849.860172,user_4
0.00375,0.1325,0.00125,-0.0066825,0.0057225,0.0012050001,0.12375,0.0025,0.005,-0.0007325,0.0020899998,-0.0003975,1742107849.974918,user_4
-0.01125,0.125,0.03375,0.017792499,-0.042175,-0.002685,0.12375,-0.01125,0.0075,0.0007175,-6e-05,-0.00016750001,1742107850.094364,user_4
-0.0025,0.11125,0.04625,-0.0101175,0.0224925,0.00409,0.1225,-0.01,0.00625,-0.000565,0.0003975,-0.00045750002,1742107850.202107,user_4
-0.0025,0.13125,0.00125,-0.00917,0.01152,0.0034625002,0.125,0.0,0.00375,-0.001145,0.00151,7.75e-05,1742107850.3158689,user_4
-0.01125,0.125,0.01875,0.011779999,-0.0358125,-0.00084,0.1225,-0.00875,0.00625,0.0006725,0.0001825,-0.00016750001,1742107850.434774,user_4
-0.00125,0.11125,0.035,-0.0146025,0.0168,0.0030525,0.12375,-0.01,0.00625,-3e-05,0.00058,-0.00026,1742107850.5430138,user_4
-0.00375,0.12375,0.005,-0.0139925005,0.0093375,0.0039975,0.12375,0.00375,0.005,-0.00232,0.001495,0.00045750002,1742107850.656821,user_4
-0.01375,0.1275,0.01,0.0084224995,-0.0372475,-0.0028074998,0.12375,-0.0075,0.005,0.0010525,0.000107500004,-9.25e-05,1742107850.775028,user_4
-0.01,0.12,0.03125,-0.011779999,0.01683,0.0036475,0.12375,-0.0075,0.00375,4.5e-05,0.0001825,-0.00026,1742107850.895799,user_4
-0.0075,0.12625,0.0,-0.0128175,0.012055,0.0018625,0.125,0.00625,0.0025,-0.00177,0.001725,0.00142,1742107850.997819,user_4
-0.00875,0.12375,-0.005,0.0143125,-0.0285025,-0.0039975,0.1225,-0.0075,0.005,0.00016750001,-0.0003975,-0.00048750002,1742107851.115703,user_4
0.00125,0.10125,0.0375,0.0001225,0.0169975,0.0010825,0.12375,-0.00625,0.005,-0.0001225,0.00023,-0.00016750001,1742107851.2356422,user_4
-0.00375,0.12,0.00625,-0.0086825,0.0133675,0.00087,0.12125,0.00625,0.00625,-0.0025175,0.0010375,0.002305,1742107851.338762,user_4
-0.005,0.125,-0.0,0.0128175,-0.018889999,-0.002885,0.1225,-0.00625,0.005,-0.0005025,-1.5e-05,-6e-05,1742107851.455596,user_4
0.00375,0.0975,0.04375,-0.00023,0.0233925,0.000365,0.12375,-0.005,0.005,0.000365,0.0001225,0.000107500004,1742107851.566625,user_4
-0.005,0.125,0.0075,-0.0057825,0.013505,0.0014500001,0.1225,0.00875,0.00375,-0.001525,0.001405,0.002,1742107851.678763,user_4
-0.005,0.125,-0.00375,0.012984999,-0.026014999,-0.000275,0.1225,-0.0075,0.00375,-0.00059500005,-0.00035,-0.000245,1742107851.795168,user_4
-0.0,0.0975,0.0425,-0.00528,0.021302499,0.00059500005,0.12375,-0.005,0.005,0.000107500004,-0.000275,0.0001825,1742107851.915879,user_4
-0.0025,0.12,0.0125,-0.003875,0.0148475,0.0021675,0.12,0.005,0.0075,-0.002045,0.0001975,0.0021975,1742107852.018772,user_4
-0.00875,0.13375,-0.0025,0.0104975,-0.021514999,-0.0009,0.12375,-0.005,0.0025,-0.0006875,-0.00052,-4.5e-05,1742107852.136546,user_4
-0.0,0.09375,0.05125,0.0077199996,0.020537501,0.000365,0.12375,-0.00375,0.005,0.00029,-0.000107500004,0.00026,1742107852.256196,user_4
-0.00875,0.12375,0.00375,-0.0084375,0.01213,0.0018300001,0.12,-0.00125,0.00625,-0.00058,-0.000305,0.0025475,1742107852.360023,user_4
-0.0075,0.12875,-0.00625,0.0075075002,-0.016875,-0.00264,0.12375,-0.0075,0.00125,-0.0013575,-0.0002125,-0.0004125,1742107852.475766,user_4
-0.00875,0.0925,0.0425,0.01822,0.0260775,-0.0033425,0.12375,-0.00375,0.00375,6e-05,-7.75e-05,0.000365,1742107852.5951722,user_4
-0.005,0.1175,0.01375,-0.0038299998,0.0139475,-0.0007625,0.12,-0.0,0.00625,-0.002075,0.0002125,0.0024249998,1742107852.701836,user_4
-0.00625,0.12875,-0.01,0.0045625,-0.0136875,-0.00026,0.12375,-0.0075,0.0025,-0.00151,-0.00023,-0.00016750001,1742107852.8163,user_4
-0.00625,0.09875,0.04,0.01001,0.024459999,-0.00151,0.12375,-0.0025,0.0025,0.0001525,-0.0001525,0.0004425,1742107852.9355562,user_4
-0.00625,0.1175,0.015,-0.006745,0.012665,0.000365,0.125,-0.00875,0.00125,0.00091500004,-0.000275,-6e-05,1742107853.0440252,user_4
-0.005,0.1275,-0.00625,-0.0034625002,0.0013725,0.0012050001,0.125,-0.01,-0.00375,0.0030825,0.00064,-0.0015725,1742107853.1579049,user_4
-0.015,0.1325,0.01375,0.01056,-0.0384375,-0.001525,0.125,-0.005,-0.0,0.00026,-0.0007325,0.00016750001,1742107853.276248,user_4
-0.01,0.12625,0.03125,-0.012069999,0.021362498,0.0030375,0.1225,-0.005,0.005,-0.00033500002,-0.000565,-0.0003825,1742107853.396291,user_4
-0.01125,0.1275,-0.01375,-0.0046550003,0.009155,0.0025325,0.12625,0.0175,0.0025,-0.0055225003,0.0027325,0.002135,1742107853.499767,user_4
-0.01,0.12625,-0.0075,0.021255,-0.04808,-0.0027474998,0.12375,0.0025,0.0025,0.0019225,4.5e-05,-0.000365,1742107853.615957,user_4
-0.0125,0.12,0.04,-0.027084999,0.0366975,0.003555,0.12375,-0.005,0.005,0.0007475,-0.0005025,-0.00061,1742107853.736118,user_4
0.00125,0.11625,-0.02875,-0.0063925,0.0146475,-0.0043800003,0.11875,0.01,0.0075,-0.0031125,0.002135,0.0029000002,1742107853.840848,user_4
-0.00625,0.1225,-0.0075,0.0093225,-0.038955003,0.0039975,0.12375,-0.0025,0.00375,-0.002135,-0.0007025,-0.000275,1742107853.956183,user_4
0.00375,0.075,0.05625,-0.0044699996,0.036544997,6e-05,0.12375,-0.005,0.00375,0.00032,-9.25e-05,-9.25e-05,1742107854.0799968,user_4
-0.0075,0.12125,-0.0175,-0.008805,0.0249025,-0.0015575,0.12375,-0.01875,0.00375,0.0026099999,-0.0001375,0.0027325,1742107854.196518,user_4
-0.00125,0.125,-0.03625,0.00946,-0.017045,0.0010525,0.12375,-0.01,-0.005,0.00093,-0.0005025,-0.0007025,1742107854.296957,user_4
-0.05875,0.1325,0.1375,0.011445,0.021057501,-0.0074625,0.1225,-0.0025,0.005,-0.0003975,-0.00061,-0.0001825,1742107854.416854,user_4
-0.0125,0.1225,-0.0025,-0.0012975,0.0310825,-0.00116,0.125,-0.0175,-0.00125,0.002045,-0.0001375,0.0010375,1742107854.538464,user_4
0.00125,0.11875,-0.02875,0.002715,-0.0094,0.0036175,0.12625,-0.0075,-0.0075,0.0045925,0.000365,-0.0019075,1742107854.6387908,user_4
-0.045,0.13,0.04375,0.016495,-0.055435,-0.0009775,0.12375,-0.00625,0.00125,-0.0004725,-0.0006725,6e-05,1742107854.756905,user_4
-0.00375,0.12125,0.0125,-0.0095675,0.0325475,-0.00059500005,0.12375,-0.01,0.00625,-0.001525,-0.0007775,-0.00093,1742107854.876649,user_4
-0.00125,0.125,-0.0275,-0.00177,-0.0039825,0.0018475,0.125,0.00875,-0.00125,-1.5e-05,0.0019225,-0.0009925,1742107854.980881,user_4
-0.01125,0.135,-0.0025,0.01471,-0.0630025,0.0036624998,0.12375,-0.0075,0.00125,0.0016775,-0.000655,0.0001525,1742107855.095976,user_4
-0.02125,0.1425,0.02875,-0.0322725,0.03804,-0.000365,0.1225,-0.00375,0.005,0.0001825,-0.000365,-0.0004275,1742107855.216598,user_4
-0.00125,0.12125,-0.0375,-0.00647,0.0107725,0.0018625,0.1225,0.0175,0.005,-0.003175,0.0025175,0.0018775001,1742107855.325978,user_4
-0.015,0.12375,-0.01,0.0154425,-0.0576625,0.0044549997,0.12375,-0.0025,0.00375,-0.00023,-0.00059500005,-0.0006725,1742107855.43698,user_4
-0.00875,0.0725,0.035,-0.028825,0.0405575,-7.75e-05,0.12375,-0.0025,0.005,0.000535,-0.00059500005,-0.0001225,1742107855.559299,user_4
-0.00125,0.12125,-0.02625,-0.011445,0.029129999,0.001755,0.125,-0.0175,0.0025,0.0039375,-0.0010375,0.0018150001,1742107855.676939,user_4
-0.0075,0.12875,-0.0325,0.012925,-0.021790002,-0.0001825,0.12375,-0.00875,-0.0025,0.001785,-0.0001975,-0.0015575,1742107855.778974,user_4
-0.05,0.12125,0.1325,0.03131,-0.0048525,-0.0019075,0.12375,-0.0025,0.005,-7.75e-05,-0.0002125,0.000107500004,1742107855.8969758,user_4
-0.01625,0.125,-0.00375,-0.00113,0.036422502,-0.0016625,0.1275,-0.01,0.00125,-0.00055,-0.0007025,-0.00058,1742107856.0178912,user_4
-0.00625,0.12,-0.03,0.0025775002,-0.0006725,0.0016025,0.125,0.01125,0.00125,-7.75e-05,0.0009775,-0.001405,1742107856.1207738,user_4
-0.02875,0.1375,-0.00875,0.0172575,-0.0842275,0.002335,0.12375,-0.0075,0.00375,0.000625,0.0001975,7.75e-05,1742107856.2368572,user_4
-0.0175,0.13125,0.01625,-0.0299225,0.0405875,0.0047150003,0.12375,-0.00125,0.0025,-0.0001825,0.0003975,-1.5e-05,1742107856.3562438,user_4
-0.01125,0.12125,-0.02125,-0.008195,0.0121625,0.004135,0.12375,0.01625,0.005,-0.00499,0.0021825,0.0012975,1742107856.463171,user_4
-0.02,0.1225,-0.0025,0.015105,-0.060425,0.004365,0.1225,0.00125,0.005,0.0007625,-1.5e-05,-9.25e-05,1742107856.580717,user_4
-0.025,0.12,0.03125,-0.033355,0.0426175,0.005325,0.12375,-0.0025,0.0025,0.0001525,0.0002125,-0.0001375,1742107856.696994,user_4
-0.00875,0.1225,-0.0225,-0.019195,0.0163125,0.0024875,0.12375,-0.00375,0.00375,0.0021199998,-1.5e-05,0.0020299999,1742107856.817158,user_4
-0.01625,0.125,-0.04625,0.006745,-0.03302,-0.0003825,0.12375,-0.0025,0.00125,-0.00232,-0.0007625,1.5e-05,1742107856.9177878,user_4
-0.02,0.0575,0.0675,0.0213775,0.054015,0.003175,0.12375,-0.0,0.00125,3e-05,-0.000107500004,-6e-05,1742107857.0391529,user_4
-0.02375,0.11125,-0.02375,0.0022274998,0.034805,-0.0030375,0.1225,-0.0125,-0.00125,0.0010975,-1.5e-05,0.0018775001,1742107857.156918,user_4
-0.01125,0.12,-0.04125,0.001755,-0.00998,0.00093,0.12375,-0.00125,-0.00125,-0.00055,-0.000245,-7.75e-05,1742107857.260014,user_4
-0.09,0.1525,0.15,0.0334325,0.0244,-0.0058449996,0.12375,0.00125,-0.0,-6e-05,0.0,0.00016750001,1742107857.376954,user_4
-0.02125,0.11875,-0.01875,0.01825,0.0314175,-0.0075525,0.1225,-0.00625,0.005,0.000305,3e-05,0.00061,1742107857.497216,user_4
-0.00375,0.115,-0.015,-0.0015875,-0.00142,0.0001225,0.125,-0.00125,-0.005,0.000565,0.00084,-4.5e-05,1742107857.600794,user_4
-0.06125,0.14,0.075,-0.0025025,-0.02803,-0.0037375,0.12375,0.00125,0.00125,-0.00023,-1.5e-05,0.00035,1742107857.717029,user_4
-0.0175,0.11125,-0.00125,-0.0109399995,0.0270225,-0.0015725,0.125,-0.00375,0.0025,-0.00148,-0.0007625,-0.0004725,1742107857.8371751,user_4
-0.02,0.12,-0.0325,-0.0022725,0.0040275003,0.0010225,0.12625,0.00625,-0.005,0.0008075,0.0007775,0.00045750002,1742107857.956972,user_4
-0.01875,0.13,-0.0225,0.0015725,-0.06569,0.0095525,0.12375,0.0,0.0,-0.000275,0.0006725,0.00059500005,1742107858.0599492,user_4
-0.02875,0.13625,-0.0,-0.01384,0.0269175,-0.0031125,0.12375,0.005,-0.00125,-0.00026,4.5e-05,0.0012825,1742107858.177378,user_4
-0.015,0.1225,-0.02625,-0.0057225,0.0090625,-0.0024575,0.1225,0.015,-0.0025,-0.0007175,0.0022725,0.0022274998,1742107858.297376,user_4
-0.01875,0.11375,-0.025,0.018934999,-0.05182,0.007385,0.12375,0.01,-0.00125,0.0009925,-0.0003825,0.001525,1742107858.397579,user_4
-0.02375,0.1325,0.00625,-0.0251,0.02176,0.0002125,0.12375,0.01,-0.0025,0.0006725,-0.0004725,0.0019225,1742107858.5184808,user_4
-0.015,0.125,-0.03625,-0.001725,0.0069125,-0.0012675,0.11875,0.01,0.00375,-0.0001225,-0.0003825,0.003875,1742107858.636864,user_4
-0.01625,0.1175,-0.04375,0.0164025,-0.03012,0.0021525,0.12375,0.02125,-0.0,-0.000655,-0.001145,0.0012050001,1742107858.738692,user_4
-0.00125,0.0725,0.0325,0.0054925,0.04959,-0.0065774997,0.1225,0.0175,0.00125,0.00093,-0.00029,-0.00032,1742107858.85698,user_4
-0.00375,0.12625,-0.0375,-0.009582501,0.02002,-0.002135,0.12375,0.00125,-0.00125,0.00059500005,0.0,0.0015725,1742107858.977012,user_4
-0.015,0.125,-0.0475,0.005585,-0.01561,0.0009625,0.12375,0.0175,-0.00375,-0.000245,-0.00087,-0.000245,1742107859.080914,user_4
-0.0575,0.14625,0.1425,0.0270075,0.0012975,-0.002625,0.1225,0.01625,0.0,0.00029,-1.5e-05,-0.0004125,1742107859.1974258,user_4
-0.0225,0.12125,-0.02,0.00801,0.028382499,-0.0066675,0.12,0.00625,0.00375,0.00023,0.0001525,0.00064,1742107859.3175051,user_4
-0.01,0.11875,-0.035,0.0069724997,-0.0101925,0.00093,0.12375,0.015,-0.00625,0.0012050001,0.0003825,-0.0004425,1742107859.420573,user_4
-0.09,0.14625,0.13875,0.028565,-0.0310525,0.0040749996,0.1225,0.01375,-0.00125,-0.000275,-1.5e-05,-0.00016750001,1742107859.539814,user_4
-0.03,0.13125,-0.00875,0.0024875,0.030625,-0.0051125004,0.12625,0.00875,0.0025,-0.0016925,-0.0007625,-0.0006725,1742107859.657786,user_4
-0.005,0.11875,-0.02625,0.0010975,0.0018475,-0.001145,0.125,0.02,-0.0075,0.0022725,0.001115,-0.0004275,1742107859.777984,user_4
-0.01125,0.1225,-0.0125,0.013305,-0.077010006,0.008805,0.1225,0.0125,-0.0,0.0001525,0.000245,3e-05,1742107859.877687,user_4
-0.0275,0.14,0.00625,-0.02336,0.0317525,-0.00299,0.1225,0.01625,-0.00125,0.0001825,-0.00032,-0.000365,1742107859.998016,user_4
-0.01375,0.12625,-0.025,-0.0043175,0.0074625,-0.0025475,0.12125,0.03375,0.00375,-0.0028074998,0.00084,0.002365,1742107860.117566,user_4
-0.015,0.12125,-0.01,0.0210875,-0.042755,0.0037850002,0.1225,0.0175,0.00375,0.0007325,-0.000535,-0.0003825,1742107860.217878,user_4
-0.01125,0.105,0.01,-0.02861,0.036575,0.0018300001,0.1225,0.015,-0.0,0.0004425,-7.75e-05,-0.000565,1742107860.338449,user_4
-0.00875,0.12125,-0.02375,0.001175,0.019057501,-0.00032,0.1225,0.01,-0.00125,-0.0004275,-0.0004275,0.0022125002,1742107860.458988,user_4
-0.0125,0.12625,-0.02625,0.01892,-0.030792499,0.000365,0.1225,0.01375,-0.0025,-0.0011900001,-0.0010975,-0.00087,1742107860.560925,user_4
-0.03625,0.1025,0.1075,0.028959999,0.0555275,-0.0072925,0.1225,0.01875,0.00125,-9.25e-05,-4.5e-05,3e-05,1742107860.6794949,user_4
-0.0225,0.11875,-0.01625,1.5e-05,0.029709999,-0.001725,0.11875,0.00375,-0.005,0.0020299999,-0.0001375,0.0019075,1742107860.801301,user_4
-0.0075,0.13,-0.02875,0.01004,-0.01384,-0.0012825,0.12375,0.00875,-0.0075,0.000655,-0.0007475,-0.00122,1742107860.900645,user_4
-0.0575,0.1275,0.14125,0.0429525,0.0057525,0.0007175,0.1225,0.0175,0.00125,-0.0001525,-0.000107500004,0.0004725,1742107861.014612,user_4
-0.025,0.12125,0.00375,-0.0037525,0.029692499,-0.0063775,0.12125,0.0175,0.00125,0.000305,-3e-05,-0.0001225,1742107861.13987,user_4
-0.00625,0.1175,-0.0075,-0.00267,0.0072925,-0.000107500004,0.12375,0.03375,-0.0,-0.002715,0.002105,0.0016625,1742107861.2426171,user_4
-0.015,0.12375,-0.0075,0.0154275,-0.06166,0.007735,0.12375,0.01875,0.00125,0.0018925001,-0.000625,0.00059500005,1742107861.358346,user_4
-0.01625,0.11875,0.02125,-0.0466625,0.022782499,0.003585,0.12875,0.01625,-0.00125,0.00032,-0.000305,0.001725,1742107861.481956,user_4
-0.01125,0.12375,-0.0125,-0.010955,0.0133675,0.000855,0.1175,0.025,0.00375,-0.0007325,-0.0030525,0.00023,1742107861.584654,user_4
-0.01125,0.12375,-0.02375,0.0002125,-0.00528,0.00354,0.11875,0.01625,-0.0025,0.0020150002,0.00026,0.0007325,1742107861.701888,user_4
-0.0975,0.175,0.125,0.0193025,-0.022979999,-0.0022574998,0.12125,0.02375,0.00125,0.001435,-0.0005025,-0.001235,1742107861.821574,user_4
-0.02125,0.125,0.00375,0.0039375,0.0279075,-0.00441,0.11625,0.02375,0.00625,-0.0012675,-0.0009,-0.0021825,1742107861.941332,user_4
-0.01375,0.11375,-0.02,-0.0007475,0.005585,0.000855,0.12625,0.01875,0.0025,-0.0010075001,0.0009625,-0.00035,1742107862.040352,user_4
