L-AccX,L-AccY,L-AccZ,L-GyrX,L-GyrY,L-GyrZ,R-AccX,R-AccY,R-AccZ,R-GyrX,R-GyrY,R-GyrZ,timestamp
-0.25,0.10499999999999998,0.5249999999999999,0.043460000000000054,0.14844000000000013,0.0031799999999999606,-0.47,0.08000000000000007,-0.745,-0.12291999999999992,-0.14281999999999995,-0.10839999999999994,1742248710.139715
-0.32499999999999996,0.41999999999999993,0.25,-0.12818000000000007,0.13416000000000006,0.052240000000000064,0.02499999999999991,-0.43999999999999995,-0.17000000000000004,0.031500000000000083,-0.08177999999999996,-0.10777999999999999,1742248710.25265
-0.18999999999999995,0.4650000000000001,0.125,0.01746000000000003,0.10131999999999985,-0.07299999999999995,-0.22999999999999998,-0.18500000000000005,-0.33499999999999996,0.1520999999999999,0.0329600000000001,-0.03967999999999994,1742248710.366679
-0.38,0.635,0.040000000000000036,-0.03942000000000001,-0.19128,-0.18762,-0.55,0.15999999999999992,-0.66,0.08740000000000014,0.10119999999999996,0.21972000000000014,1742248710.480511
-0.17500000000000004,0.040000000000000036,0.48,0.06420000000000003,0.18432000000000004,0.0626199999999999,-0.42500000000000004,0.04499999999999993,-0.54,0.0036599999999999966,0.07068000000000008,-0.22655999999999998,1742248710.594539
-0.31499999999999995,0.22999999999999998,0.27,-0.10096000000000005,0.056279999999999886,0.08776000000000006,-0.16500000000000004,-0.10999999999999999,-0.18500000000000005,-0.07641999999999993,-0.07568000000000008,-0.06847999999999999,1742248710.708912
-0.33499999999999996,0.4750000000000001,-0.04500000000000004,0.0017000000000000348,-0.04296,0.07933999999999997,-0.20499999999999996,-0.08499999999999996,-0.35,0.14379999999999993,0.01537999999999995,-0.04039999999999999,1742248710.822571
-0.43500000000000005,0.56,0.135,-0.01978000000000002,-0.15796,-0.11926000000000003,-0.525,0.15500000000000003,-0.505,0.16369999999999996,0.0674999999999999,0.10070000000000001,1742248710.939674
-0.21999999999999997,0.20999999999999996,0.3599999999999999,0.2288800000000002,0.14757999999999982,0.0686,-0.33499999999999996,0.21999999999999997,-0.38,0.006340000000000012,0.03614000000000006,-0.11351999999999995,1742248711.050532
-0.30000000000000004,0.17999999999999994,0.28,-0.27368000000000003,-0.10462000000000005,0.01415999999999995,-0.20499999999999996,0.14000000000000012,-0.16000000000000003,-0.19787999999999994,-0.10218000000000005,-0.09838000000000002,1742248711.164844
-0.495,0.405,0.05499999999999994,0.007560000000000011,0.06811999999999996,0.26502000000000003,-0.245,-0.19500000000000006,-0.355,-0.04724000000000006,-0.022820000000000062,-0.08448,1742248711.280306
-0.47,0.585,0.040000000000000036,0.10533999999999999,-0.1325599999999999,-0.09605999999999992,-0.375,0.1499999999999999,-0.48,0.17188000000000003,0.06433999999999984,0.09045999999999998,1742248711.392483
-0.17000000000000004,0.07000000000000006,0.26,0.13305999999999996,-0.07398000000000005,-0.031000000000000028,-0.31499999999999995,0.24,-0.42500000000000004,0.06579999999999986,-0.06981999999999988,-0.051019999999999954,1742248711.506641
-0.17999999999999994,0.1299999999999999,0.25,-0.08118000000000003,-0.0010999999999999899,0.04688000000000003,-0.31000000000000005,0.20999999999999996,-0.41500000000000004,-0.06323999999999996,-0.09729999999999994,-0.0858199999999999,1742248711.6208792
-0.30499999999999994,0.18500000000000005,0.1299999999999999,-0.13012,0.03807999999999989,0.04735999999999985,-0.09999999999999998,-0.07999999999999996,-0.20999999999999996,0.05298000000000003,0.012939999999999952,-0.09777999999999998,1742248711.735371
-0.39,0.4950000000000001,0.21999999999999997,0.12390000000000012,0.08203999999999989,-0.09741999999999995,-0.17999999999999994,0.06000000000000005,-0.375,-0.031240000000000046,0.01195999999999997,0.12744,1742248711.848504
-0.4,0.47,0.1299999999999999,-0.05506,-0.15489999999999993,-0.14037999999999995,-0.385,0.2250000000000001,-0.59,-0.04137999999999997,0.07835999999999999,0.2058199999999999,1742248711.9625118
-0.21499999999999997,0.15999999999999992,0.405,0.09533999999999998,0.1408600000000002,-0.03979999999999995,-0.355,0.1299999999999999,-0.4,-0.17176000000000002,0.05479999999999996,0.005980000000000096,1742248712.076724
-0.255,0.26,0.3599999999999999,-0.12818000000000007,0.1395200000000001,-0.014900000000000024,-0.265,-0.07499999999999996,-0.5,-0.32458,-0.058479999999999976,0.018059999999999965,1742248712.1906612
-0.32000000000000006,0.5350000000000001,0.09499999999999997,-0.051019999999999954,0.22706000000000004,0.08081999999999989,-0.09499999999999997,-0.35,-0.24,0.08776000000000006,-0.020139999999999936,-0.05896000000000001,1742248712.304822
-0.31000000000000005,0.45500000000000007,0.14000000000000012,0.14966000000000013,-0.20496000000000003,-0.0232,-0.28,0.0,-0.31499999999999995,0.20288000000000017,0.13318000000000008,0.12890000000000001,1742248712.420553
-0.24,0.2250000000000001,0.2749999999999999,0.11621999999999999,-0.10875999999999997,0.0035399999999998766,-0.28,0.29499999999999993,-0.51,0.18579999999999997,-0.020019999999999927,-0.11438000000000004,1742248712.532659
-0.14,0.1200000000000001,0.30000000000000004,0.11414000000000013,0.08531999999999984,0.13880000000000003,-0.37,0.09499999999999997,-0.485,-0.10655999999999999,-0.04125999999999996,-0.12524000000000002,1742248712.646688
-0.29000000000000004,0.22999999999999998,0.31000000000000005,-0.3884200000000001,0.031380000000000186,-0.028679999999999928,-0.07999999999999996,-0.15000000000000002,-0.265,-0.010739999999999972,-0.05164000000000002,-0.16491999999999996,1742248712.761236
-0.32499999999999996,0.625,0.09000000000000008,-0.06541999999999992,-0.019279999999999964,-0.031240000000000046,-0.25,-0.03500000000000003,-0.4,0.048699999999999966,0.04455999999999993,0.16602000000000006,1742248712.876456
-0.37,0.41999999999999993,0.02499999999999991,-0.051019999999999954,-0.21777999999999997,-0.12548000000000004,-0.4,0.2250000000000001,-0.585,0.1372,0.02185999999999999,0.17321999999999993,1742248712.988426
-0.245,0.1200000000000001,0.405,0.1457599999999999,0.049919999999999964,-0.07689999999999997,-0.16500000000000004,0.19999999999999996,-0.385,-0.08629999999999993,-0.04932000000000003,-0.06347999999999998,1742248713.104543
-0.17999999999999994,0.135,0.3599999999999999,-0.04834000000000005,0.014399999999999968,0.035760000000000014,-0.31000000000000005,0.05499999999999994,-0.395,-0.27088,-0.06323999999999996,-0.12854,1742248713.2212732
-0.38,0.345,0.21500000000000008,-0.24853999999999998,0.16662,0.09766000000000008,-0.10499999999999998,-0.33499999999999996,-0.35,0.034540000000000015,0.03807999999999989,-0.015020000000000033,1742248713.3304992
-0.35,0.605,0.18500000000000005,0.07116000000000011,-0.14281999999999995,-0.13378,-0.17500000000000004,-0.13,-0.365,0.03638000000000008,0.043339999999999934,0.17590000000000017,1742248713.444548
-0.28,0.33499999999999996,0.2849999999999999,-0.009519999999999973,-0.26868000000000003,-0.15161999999999998,-0.365,0.32499999999999996,-0.575,0.17113999999999985,-0.03088000000000002,0.04259999999999997,1742248713.563023
-0.21499999999999997,0.08000000000000007,0.345,0.10875999999999997,0.11583999999999994,0.043220000000000036,-0.30000000000000004,0.14500000000000002,-0.44999999999999996,0.04699999999999993,-0.06274000000000002,-0.09277999999999997,1742248713.6725051
-0.275,0.10000000000000009,0.30000000000000004,-0.021480000000000055,0.03723999999999994,0.07885999999999993,-0.17500000000000004,0.0,-0.365,-0.07740000000000002,-0.012319999999999998,-0.15772000000000008,1742248713.7866602
-0.45500000000000007,0.45999999999999996,0.125,0.0048799999999999955,-0.037839999999999985,0.08275999999999994,-0.21499999999999997,-0.18999999999999995,-0.44999999999999996,-0.03260000000000007,0.020499999999999963,0.12098000000000009,1742248713.902102
-0.37,0.48,0.135,-0.1532,-0.26844,-0.03601999999999994,-0.375,0.16999999999999993,-0.475,0.13354,0.04944000000000015,0.22533999999999987,1742248714.021791
-0.245,0.1200000000000001,0.41500000000000004,0.14344,0.054079999999999906,-0.046499999999999986,-0.275,0.22999999999999998,-0.41999999999999993,-0.04920000000000002,-0.0029199999999999227,-0.05262,1742248714.128603
-0.265,0.25,0.3799999999999999,-0.12475999999999998,0.09361999999999981,0.018059999999999965,-0.245,0.05499999999999994,-0.37,-0.27061999999999997,-0.07898000000000005,-0.17236000000000007,1742248714.242569
-0.29000000000000004,0.43999999999999995,0.18500000000000005,-0.11634,0.012939999999999952,0.1620999999999999,-0.025000000000000022,-0.3400000000000001,-0.255,0.07933999999999997,-0.02198,-0.06494000000000011,1742248714.362627
-0.31499999999999995,0.53,0.125,0.10461999999999994,-0.14686,-0.06176000000000004,-0.20999999999999996,0.030000000000000027,-0.4099999999999999,0.11340000000000017,0.13707999999999987,0.13232,1742248714.4703
-0.32499999999999996,0.31000000000000005,0.345,-0.08008000000000004,-0.17188000000000003,-0.10631999999999997,-0.375,0.24,-0.42999999999999994,0.22718000000000016,0.1924999999999999,0.02611999999999992,1742248714.5847838
-0.22999999999999998,0.1499999999999999,0.29499999999999993,0.05396000000000001,0.0295399999999999,0.0295399999999999,-0.38,0.1499999999999999,-0.51,-0.19713999999999998,-0.03539999999999999,-0.04625999999999997,1742248714.702901
-0.28,0.18500000000000005,0.14000000000000012,-0.09655999999999998,0.1287799999999999,-0.07020000000000004,-0.24,-0.15500000000000003,-0.33000000000000007,-0.21251999999999993,0.02611999999999992,-0.012820000000000054,1742248714.8126678
-0.32000000000000006,0.5150000000000001,0.03499999999999992,0.05675999999999992,0.10827999999999993,-0.012580000000000036,-0.24,-0.15500000000000003,-0.375,0.006220000000000114,0.00878000000000001,0.05371999999999999,1742248714.926445
-0.30499999999999994,0.4099999999999999,0.16500000000000004,-0.15477999999999992,-0.18212000000000006,-0.06458000000000008,-0.41999999999999993,-0.05500000000000005,-0.3400000000000001,0.08776000000000006,0.07079999999999997,0.1277999999999999,1742248715.043874
-0.13,0.2650000000000001,0.20999999999999996,0.023679999999999923,0.017340000000000133,-0.05408000000000002,-0.42500000000000004,0.1299999999999999,-0.4099999999999999,-0.15710000000000002,0.02293999999999996,-0.0041599999999999415,1742248715.154542
-0.17000000000000004,0.31000000000000005,0.25,-0.10863999999999996,0.11364000000000019,0.016240000000000032,-0.30499999999999994,-0.08999999999999997,-0.235,-0.19238,-0.06152000000000002,-0.06774000000000002,1742248715.268831
-0.22499999999999998,0.5049999999999999,0.040000000000000036,0.054079999999999906,0.07702000000000009,0.12548000000000004,-0.04500000000000004,-0.48,-0.19500000000000006,0.12182000000000004,-0.01537999999999995,-0.09533999999999998,1742248715.382704
-0.22499999999999998,0.595,0.08000000000000007,0.21386000000000016,-0.08496000000000004,-0.01085999999999998,-0.345,-0.19500000000000006,-0.30499999999999994,0.08923999999999999,0.13636000000000004,0.15026000000000006,1742248715.5027032
-0.29000000000000004,0.45999999999999996,0.30499999999999994,0.06591999999999998,-0.10863999999999996,-0.06811999999999996,-0.595,0.2549999999999999,-0.62,0.22974000000000006,0.11340000000000017,-0.039919999999999956,1742248715.610425
-0.21499999999999997,0.2549999999999999,0.2749999999999999,-0.029899999999999927,0.07740000000000014,0.0035399999999998766,-0.45500000000000007,0.07499999999999996,-0.43999999999999995,-0.12866,-0.10462000000000005,-0.10729999999999995,1742248715.7246
-0.365,0.49,0.17500000000000004,-0.13879999999999992,0.07567999999999997,0.05054000000000003,-0.26,-0.08999999999999997,-0.28,-0.13329999999999997,-0.01305999999999996,-0.08898000000000006,1742248715.842425
-0.375,0.5150000000000001,-0.06000000000000005,0.05896000000000012,-0.023679999999999923,0.12963999999999998,-0.245,-0.09499999999999997,-0.31499999999999995,0.15013999999999994,0.04614000000000007,-0.03417999999999999,1742248715.9525928
-0.32000000000000006,0.5249999999999999,0.09000000000000008,0.03942000000000001,-0.1986,-0.006460000000000021,-0.4,-0.04500000000000004,-0.355,0.05896000000000012,0.10875999999999997,0.23926000000000003,1742248716.066568
-0.29000000000000004,0.28,0.20500000000000007,0.06922000000000006,-0.032220000000000026,-0.04382000000000008,-0.55,0.19500000000000006,-0.4,-0.17468000000000006,0.0013400000000001189,0.13683999999999985,1742248716.183192
-0.22499999999999998,0.29499999999999993,0.24,-0.1482,0.13305999999999996,-0.03186,-0.39,0.030000000000000027,-0.14500000000000002,-0.35388,-0.04589999999999994,0.09935999999999989,1742248716.2945678
-0.30000000000000004,0.565,-0.0050000000000000044,-0.010499999999999954,0.1663800000000002,0.0307599999999999,-0.050000000000000044,-0.395,-0.11499999999999999,0.014399999999999968,0.06225999999999998,-0.053220000000000045,1742248716.4083788
-0.19999999999999996,0.4849999999999999,0.04499999999999993,0.10498000000000007,-0.025880000000000014,-0.027959999999999985,-0.21499999999999997,-0.24,-0.26,0.20092,0.10340000000000016,0.052119999999999944,1742248716.524126
-0.14,0.42999999999999994,0.06499999999999995,-0.03417999999999999,-0.11512,-0.08350000000000002,-0.65,0.18999999999999995,-0.495,0.03161999999999998,0.0341800000000001,0.06407999999999991,1742248716.643774
-0.08999999999999997,0.30000000000000004,0.18500000000000005,-0.01867999999999992,0.09266000000000019,0.08166000000000007,-0.55,-0.04500000000000004,-0.27,-0.10997999999999997,-0.23303999999999991,-0.13476,1742248716.7506108
-0.21499999999999997,0.375,0.04499999999999993,-0.17601999999999995,0.13904000000000005,0.13196000000000008,-0.15000000000000002,-0.41999999999999993,0.014999999999999902,0.06603999999999988,-0.10021999999999998,-0.25048000000000004,1742248716.8645692
-0.30000000000000004,0.6299999999999999,-0.07499999999999996,0.007200000000000095,0.017819999999999947,-0.005120000000000013,-0.32000000000000006,-0.235,-0.22499999999999998,0.12890000000000001,0.09631999999999996,0.03698000000000001,1742248716.983354
-0.20999999999999996,0.5150000000000001,0.0,-0.10010000000000008,-0.23363999999999996,-0.16601999999999995,-0.635,0.09000000000000008,-0.545,0.16016000000000008,0.054200000000000026,0.07385999999999981,1742248717.0922618
-0.13,0.21500000000000008,0.2250000000000001,0.10644000000000009,0.0014600000000000168,-0.05479999999999996,-0.605,0.07000000000000006,-0.515,-0.1799400000000001,-0.10010000000000008,-0.027700000000000058,1742248717.206536
-0.235,0.3999999999999999,0.21500000000000008,0.06800000000000006,0.26757999999999993,0.10655999999999999,-0.245,-0.17500000000000004,-0.19500000000000006,-0.23962000000000006,-0.16771999999999998,0.06030000000000002,1742248717.3242571
-0.30000000000000004,0.54,-0.09499999999999997,0.23253999999999997,0.13746000000000014,0.04370000000000007,-0.040000000000000036,-0.35,-0.28,0.11485999999999996,-0.006720000000000059,0.013299999999999867,1742248717.444021
-0.20499999999999996,0.42500000000000004,0.1499999999999999,-0.13439999999999996,-0.21105999999999991,-0.06115999999999999,-0.45999999999999996,0.050000000000000044,-0.55,0.19763999999999982,-0.010379999999999945,0.09129999999999994,1742248717.548339
-0.04500000000000004,0.2749999999999999,0.33499999999999996,0.030999999999999917,0.054200000000000026,-0.015619999999999967,-0.49,-0.010000000000000009,-0.33000000000000007,-0.24096000000000006,0.05298000000000003,0.044440000000000035,1742248717.664831
-0.16000000000000003,0.395,0.18500000000000005,-0.04248000000000007,0.10314000000000001,0.13318000000000008,-0.38,-0.15000000000000002,-0.38,-0.1189,-0.07496000000000003,-0.13463999999999998,1742248717.784659
-0.255,0.48,-0.07999999999999996,0.13683999999999985,0.12657999999999991,0.12731999999999988,-0.15500000000000003,-0.45500000000000007,-0.14,0.07225999999999999,0.033320000000000016,-0.07641999999999993,1742248717.890324
-0.19999999999999996,0.645,-0.03500000000000003,0.17149999999999999,-0.021480000000000055,-0.10399999999999998,-0.25,-0.21999999999999997,-0.22999999999999998,0.21350000000000002,0.03492000000000006,0.08630000000000004,1742248718.004429
-0.15000000000000002,0.30000000000000004,0.17999999999999994,0.07288000000000006,-0.17786000000000002,-0.14915999999999996,-0.59,0.135,-0.625,0.08311999999999986,0.007319999999999993,0.07728000000000002,1742248718.1239948
-0.06499999999999995,0.30499999999999994,0.2749999999999999,0.0329600000000001,0.09533999999999998,0.03968000000000016,-0.395,-0.125,-0.345,-0.21838000000000002,-0.13160000000000005,0.012939999999999952,1742248718.232438
-0.04500000000000004,0.41500000000000004,0.04499999999999993,-0.057740000000000014,0.04699999999999993,0.059700000000000086,-0.22499999999999998,-0.12,-0.33499999999999996,0.14978000000000002,-0.24218000000000006,-0.1604,1742248718.3464189
-0.26,0.5249999999999999,0.08000000000000007,0.19300000000000006,0.16076000000000001,0.09522000000000008,-0.135,-0.24,-0.43500000000000005,0.06994000000000011,-0.01758000000000004,0.0031799999999999606,1742248718.464844
-0.22999999999999998,0.45500000000000007,0.10000000000000009,0.028200000000000003,-0.20811999999999997,-0.03917999999999999,-0.38,0.17500000000000004,-0.43999999999999995,0.30066000000000015,-0.015859999999999985,-0.01648000000000005,1742248718.574311
-0.04500000000000004,0.15500000000000003,0.30499999999999994,0.059579999999999966,-0.03283999999999998,-0.04161999999999999,-0.32499999999999996,0.1299999999999999,-0.385,-0.017340000000000022,0.06603999999999988,-0.009279999999999955,1742248718.6883242
-0.13,0.2749999999999999,0.32000000000000006,-0.03539999999999999,0.05468000000000006,0.13074000000000008,-0.33000000000000007,-0.07000000000000006,-0.41500000000000004,-0.08081999999999989,0.03492000000000006,-0.1593,1742248718.8059788
-0.345,0.41999999999999993,0.16500000000000004,-0.052240000000000064,-0.030399999999999983,0.08142000000000005,-0.17999999999999994,-0.26,-0.255,0.027839999999999865,0.07385999999999981,-0.10131999999999997,1742248718.924978
-0.32499999999999996,0.7050000000000001,0.29499999999999993,-0.12927999999999995,-0.03527999999999998,-0.05003999999999997,-0.21999999999999997,-0.08999999999999997,-0.42500000000000004,-0.11315999999999993,0.16405999999999987,0.16247999999999996,1742248719.030293
-0.29000000000000004,0.41500000000000004,0.30000000000000004,-0.2424400000000001,-0.22474000000000005,-0.18579999999999997,-0.44500000000000006,-0.0050000000000000044,-0.525,-0.07141999999999993,0.12292000000000014,0.15638000000000019,1742248719.144654
-0.11499999999999999,0.17500000000000004,0.3900000000000001,-0.08862000000000003,0.01635999999999993,-0.12268000000000001,-0.53,-0.010000000000000009,-0.405,-0.3061600000000001,0.17590000000000017,0.11840000000000006,1742248719.265187
-0.08499999999999996,0.365,0.16999999999999993,-0.11791999999999991,0.08496000000000015,-0.01415999999999995,-0.365,-0.14500000000000002,-0.2849999999999999,-0.21692,-0.021720000000000073,-0.019279999999999964,1742248719.373625
-0.25,0.49,-0.030000000000000027,0.04747999999999997,0.09826000000000001,0.03723999999999994,-0.07499999999999996,-0.44500000000000006,-0.06000000000000005,-0.17676000000000003,0.10376000000000007,0.049919999999999964,1742248719.487333
-0.17000000000000004,0.645,0.020000000000000018,0.023440000000000127,0.09349999999999992,-0.02210000000000001,-0.39,-0.29499999999999993,-0.030000000000000027,0.08814000000000011,0.1236600000000001,0.08911999999999987,1742248719.608193
-0.09999999999999998,0.4849999999999999,0.14500000000000002,-0.05152000000000001,-0.21594000000000002,-0.15722000000000003,-0.545,-0.030000000000000027,-0.43999999999999995,0.26879999999999993,-0.021360000000000046,-0.005859999999999976,1742248719.725558
-0.03500000000000003,0.2749999999999999,0.21999999999999997,0.13647999999999993,-0.001960000000000073,0.05152000000000001,-0.515,-0.08499999999999996,-0.43500000000000005,-0.22814,-0.10375999999999996,0.03905999999999987,1742248719.829461
-0.21499999999999997,0.405,0.09499999999999997,-0.25952,0.10925999999999991,0.01635999999999993,-0.14500000000000002,-0.41500000000000004,-0.245,-0.22620000000000007,-0.12279999999999991,-0.017820000000000058,1742248719.945745
-0.28,0.7050000000000001,-0.2849999999999999,-0.14415999999999995,-0.059940000000000104,0.049919999999999964,-0.385,-0.29000000000000004,-0.030000000000000027,0.13050000000000006,0.21031999999999984,-0.03858000000000006,1742248720.067054
-0.09999999999999998,0.385,0.30000000000000004,-0.19520000000000004,-0.18238,0.03917999999999999,-0.49,0.004999999999999893,-0.24,0.16833999999999993,0.10376000000000007,-0.09533999999999998,1742248720.1732311
-0.050000000000000044,0.43999999999999995,0.125,-0.014780000000000015,-0.13672000000000006,0.016960000000000086,-0.63,-0.030000000000000027,-0.31000000000000005,-0.10875999999999997,0.06030000000000002,0.056400000000000006,1742248720.2859268
-0.15000000000000002,0.42500000000000004,0.06000000000000005,-0.1272000000000001,0.026619999999999866,0.07275999999999994,-0.405,-0.21499999999999997,-0.16500000000000004,-0.22692,-0.10560000000000003,0.07385999999999981,1742248720.4059782
-0.255,0.4849999999999999,-0.17500000000000004,0.06529999999999991,0.1915199999999999,0.023320000000000007,-0.20499999999999996,-0.4,-0.015000000000000013,0.05066000000000015,0.016720000000000068,-0.019039999999999946,1742248720.513346
-0.18500000000000005,0.56,-0.09499999999999997,0.20751999999999993,0.08448000000000011,-0.12890000000000001,-0.13,-0.17500000000000004,-0.21499999999999997,0.21716000000000002,0.12316000000000016,0.11426000000000003,1742248720.627166
-0.04500000000000004,0.49,-0.07999999999999996,0.12657999999999991,-0.14454,-0.04259999999999997,-0.62,-0.06000000000000005,-0.505,0.049799999999999844,-0.04259999999999997,0.06811999999999996,1742248720.7454238
-0.07000000000000006,0.30499999999999994,0.14000000000000012,0.016119999999999912,0.059579999999999966,0.009279999999999955,-0.515,-0.125,-0.29499999999999993,-0.22363999999999995,-0.15136000000000005,0.06909999999999994,1742248720.865804
-0.20499999999999996,0.52,0.03499999999999992,-0.25024,0.13770000000000016,0.0035399999999998766,-0.12,-0.38,-0.11499999999999999,-0.16931999999999992,-0.15674,0.036619999999999875,1742248720.969422
-0.24,0.7050000000000001,-0.29499999999999993,-0.06262000000000001,-0.0122000000000001,0.011479999999999935,-0.41500000000000004,-0.36,-0.08499999999999996,0.17223999999999995,0.13134,-0.0009799999999999809,1742248721.0879622
-0.15000000000000002,0.575,0.23499999999999988,-0.040159999999999973,-0.13415999999999995,-0.009759999999999991,-0.665,-0.07499999999999996,-0.27,0.32386000000000004,0.10424000000000011,-0.14954,1742248721.205792
-0.06000000000000005,0.355,0.21999999999999997,0.10596000000000005,-0.05603999999999998,-0.03210000000000002,-0.555,0.07499999999999996,-0.43500000000000005,-0.1261,0.03929999999999989,0.015859999999999985,1742248721.311133
-0.20999999999999996,0.4650000000000001,0.19500000000000006,-0.1174400000000001,0.17113999999999985,0.12342000000000009,-0.31000000000000005,-0.14,-0.25,-0.1632,-0.15881999999999996,0.0032999999999998586,1742248721.426252
-0.20999999999999996,0.4650000000000001,-0.14,0.11840000000000006,0.18554000000000004,0.13513999999999982,-0.10499999999999998,-0.52,0.0,-0.00537999999999994,0.016000000000000014,-0.0036599999999999966,1742248721.5463
-0.17500000000000004,0.675,-0.27,0.13990000000000014,-0.11438000000000004,-0.08996000000000004,-0.135,-0.28,-0.135,0.07409999999999983,0.21058,0.10046,1742248721.653135
-0.07499999999999996,0.5550000000000002,0.020000000000000018,-0.02966000000000002,-0.18286000000000002,-0.13927999999999996,-0.765,-0.14500000000000002,-0.395,0.08814000000000011,0.10289999999999999,0.010140000000000038,1742248721.767148
-0.09499999999999997,0.355,0.19999999999999996,0.014399999999999968,0.03479999999999994,-0.04125999999999996,-0.56,-0.15000000000000002,-0.26,-0.16503999999999996,-0.13781999999999994,-0.030399999999999983,1742248721.8854358
-0.07000000000000006,0.29000000000000004,0.010000000000000009,-0.14636000000000005,0.23521999999999998,0.07469999999999999,-0.17500000000000004,-0.22499999999999998,-0.18500000000000005,-0.24048000000000003,-0.24353999999999998,-0.01966000000000001,1742248722.005356
-0.275,0.635,-0.32000000000000006,-0.056520000000000015,0.09498000000000006,0.005619999999999958,-0.19500000000000006,-0.42999999999999994,-0.06000000000000005,0.00537999999999994,0.1299999999999999,0.05553999999999992,1742248722.10916
-0.21499999999999997,0.52,-0.040000000000000036,0.06872000000000011,-0.24146,-0.06872,-0.41999999999999993,-0.16500000000000004,-0.17000000000000004,0.2058199999999999,0.15393999999999997,-0.12060000000000004,1742248722.226164
-0.015000000000000013,0.3400000000000001,0.04499999999999993,0.027220000000000022,-0.13270000000000004,-0.13073999999999997,-0.555,-0.12,-0.29000000000000004,-0.10486000000000006,0.02929999999999988,0.16247999999999996,1742248722.344665
-0.07000000000000006,0.4099999999999999,0.15500000000000003,-0.06591999999999998,0.14525999999999994,0.029179999999999984,-0.41500000000000004,-0.22999999999999998,-0.050000000000000044,-0.27088,-0.1814,0.007940000000000058,1742248722.451252
-0.12,0.42500000000000004,-0.15000000000000002,0.00035999999999991594,0.1959200000000001,0.0623800000000001,-0.06499999999999995,-0.44500000000000006,0.08000000000000007,-0.048820000000000086,-0.07922000000000007,-0.037839999999999985,1742248722.567413
-0.14500000000000002,0.6800000000000002,-0.32499999999999996,0.1567400000000001,-0.17271999999999998,-0.009039999999999937,-0.375,-0.275,-0.08499999999999996,0.21667999999999998,0.14808,0.020019999999999927,1742248722.6858938
-0.07000000000000006,0.44500000000000006,-0.09999999999999998,-0.07701999999999998,-0.29822000000000004,-0.07886000000000004,-0.535,-0.08999999999999997,-0.49,0.20228000000000002,-0.02210000000000001,0.05750000000000011,1742248722.793156
-0.06000000000000005,0.3400000000000001,0.135,0.10899999999999999,-0.022340000000000027,-0.015739999999999976,-0.33499999999999996,-0.11499999999999999,-0.365,-0.02624000000000004,-0.26794000000000007,0.028200000000000003,1742248722.907201
-0.10999999999999999,0.3500000000000001,0.050000000000000044,0.11559999999999993,0.08704,0.08203999999999989,-0.21499999999999997,-0.06499999999999995,-0.495,0.08448000000000011,-0.18811999999999995,-0.10962000000000005,1742248723.025346
-0.16500000000000004,0.42999999999999994,0.06000000000000005,0.11035999999999979,0.13403999999999994,0.18640000000000012,-0.22999999999999998,-0.41999999999999993,-0.20999999999999996,0.04809999999999981,-0.009519999999999973,-0.06922000000000006,1742248723.145196
-0.20499999999999996,0.655,0.05499999999999994,0.19763999999999982,-0.010499999999999954,-0.10462000000000005,-0.22999999999999998,-0.18500000000000005,-0.26,0.046640000000000015,0.11194000000000015,0.13647999999999993,1742248723.249065
-0.07000000000000006,0.47,0.3500000000000001,-0.012580000000000036,-0.15552,-0.12315999999999994,-0.44999999999999996,-0.04500000000000004,-0.45999999999999996,-0.1850599999999999,0.10277999999999987,0.11853999999999987,1742248723.365934
-0.03500000000000003,0.3700000000000001,0.16999999999999993,-0.1849400000000001,0.07764000000000015,-0.019159999999999955,-0.44500000000000006,-0.22499999999999998,-0.25,-0.15148000000000006,-0.04358000000000006,-0.051019999999999954,1742248723.486063
-0.135,0.3799999999999999,-0.0050000000000000044,-0.15552,0.03845999999999994,0.04296000000000011,-0.025000000000000022,-0.49,0.135,-0.006840000000000068,0.016119999999999912,-0.06298000000000004,1742248723.591253
-0.16500000000000004,0.625,-0.030000000000000027,0.0007399999999999629,-0.08068000000000008,-0.011960000000000082,-0.21499999999999997,-0.33499999999999996,-0.245,0.14966000000000013,0.13573999999999997,-0.019279999999999964,1742248723.705292
-0.15000000000000002,0.51,0.25,-0.06640000000000001,-0.07653999999999994,-0.040899999999999936,-0.5,-0.125,-0.22999999999999998,0.14026000000000005,0.14148000000000005,0.006839999999999957,1742248723.8258948
-0.06000000000000005,0.43500000000000005,0.19999999999999996,-0.04858000000000007,-0.08508000000000004,-0.02100000000000002,-0.525,-0.10499999999999998,-0.33000000000000007,-0.09498000000000006,0.07166000000000006,0.020620000000000083,1742248723.933147
-0.12,0.5350000000000001,0.07499999999999996,-0.04394000000000009,0.07445999999999997,0.029179999999999984,-0.4099999999999999,-0.19999999999999996,-0.345,-0.11536000000000002,-0.13525999999999994,-0.0012199999999999989,1742248724.047314
-0.08999999999999997,0.41500000000000004,-0.06499999999999995,-0.019399999999999973,0.07567999999999997,0.009640000000000093,-0.125,-0.45999999999999996,0.07000000000000006,0.05479999999999996,-0.08251999999999993,-0.011960000000000082,1742248724.166316
-0.135,0.6299999999999999,0.004999999999999893,0.14392000000000005,0.06457999999999986,-0.07568000000000008,-0.20499999999999996,-0.28,-0.09999999999999998,0.14427999999999996,0.038819999999999855,0.007440000000000113,1742248724.285033
-0.14,0.6299999999999999,0.18999999999999995,0.10583999999999993,-0.03355999999999992,-0.06408000000000003,-0.515,-0.06000000000000005,-0.44500000000000006,0.26329999999999987,0.09448000000000012,-0.017340000000000022,1742248724.389132
-0.06000000000000005,0.3500000000000001,0.25,0.09802,0.0039000000000000146,-0.05577999999999994,-0.5,0.02499999999999991,-0.42999999999999994,-0.0968,-0.022580000000000044,-0.05700000000000005,1742248724.5055912
-0.16500000000000004,0.45500000000000007,0.16999999999999993,0.11621999999999999,0.08311999999999986,0.12561999999999984,-0.375,-0.135,-0.27,-0.18176000000000003,-0.10668000000000011,-0.053220000000000045,1742248724.625052
-0.16500000000000004,0.51,0.0,0.016240000000000032,0.06128,0.14061999999999997,-0.15500000000000003,-0.45999999999999996,-0.17000000000000004,-0.07496000000000003,0.05711999999999984,0.035640000000000116,1742248724.7311108
-0.22499999999999998,0.655,-0.020000000000000018,0.06188000000000016,0.01208000000000009,-0.05408000000000002,-0.35,-0.19999999999999996,-0.16500000000000004,0.10875999999999997,0.10546000000000011,0.04845999999999995,1742248724.845023
-0.20499999999999996,0.43999999999999995,0.28,-0.12805999999999995,-0.14318000000000008,-0.050779999999999936,-0.43999999999999995,-0.15500000000000003,-0.36,0.21106000000000003,0.07996000000000003,0.03807999999999989,1742248724.965107
-0.07499999999999996,0.395,0.14500000000000002,-0.03295999999999999,-0.11512,-0.09692,-0.47,0.030000000000000027,-0.405,-0.07238,0.026859999999999884,0.01758000000000015,1742248725.07305
-0.12,0.49,0.10499999999999998,-0.06103999999999998,0.03698000000000001,0.028079999999999883,-0.43999999999999995,-0.13,-0.35,-0.11839999999999995,-0.07141999999999993,-0.05408000000000002,1742248725.187244
-0.08499999999999996,0.405,0.020000000000000018,0.048960000000000115,0.09240000000000004,0.07264000000000004,-0.12,-0.39,-0.18999999999999995,-0.04577999999999993,-0.05003999999999997,0.022460000000000147,1742248725.304804
-0.17000000000000004,0.6200000000000001,0.050000000000000044,0.17479999999999984,0.1212200000000001,-0.015739999999999976,-0.2849999999999999,-0.275,-0.22499999999999998,0.16405999999999987,-0.12841999999999998,0.011600000000000055,1742248725.4253922
-0.15500000000000003,0.4750000000000001,0.09000000000000008,0.08692000000000011,-0.02746000000000004,-0.015619999999999967,-0.355,0.03499999999999992,-0.41999999999999993,0.29259999999999997,0.00035999999999991594,-0.036619999999999986,1742248725.529032
-0.06499999999999995,0.27,0.2549999999999999,0.04845999999999995,-0.015020000000000033,-0.025639999999999996,-0.385,0.1200000000000001,-0.4,-0.06541999999999992,-0.03149999999999997,-0.02636000000000005,1742248725.645191
-0.16000000000000003,0.41500000000000004,0.27,-0.05176000000000003,0.01110000000000011,0.06359999999999988,-0.30499999999999994,0.010000000000000009,-0.29499999999999993,-0.13488,-0.04637999999999998,-0.07910000000000006,1742248725.76451
-0.125,0.3700000000000001,0.19500000000000006,-0.06103999999999998,0.02171999999999996,0.04699999999999993,-0.17999999999999994,-0.35,-0.38,-0.1224400000000001,-0.017080000000000095,-0.033440000000000025,1742248725.871243
-0.27,0.55,0.040000000000000036,-0.02076,0.027579999999999938,0.03381999999999996,-0.24,-0.29499999999999993,-0.32000000000000006,0.07128000000000001,-0.018059999999999965,0.04845999999999995,1742248725.985332
-0.20999999999999996,0.375,0.125,-0.13794000000000006,-0.16027999999999998,-0.023799999999999932,-0.4,-0.05500000000000005,-0.38,0.13990000000000014,0.07421999999999995,0.05944000000000016,1742248726.108211
-0.125,0.27,0.29000000000000004,0.022460000000000147,-0.006960000000000077,-0.04798000000000002,-0.49,0.04499999999999993,-0.495,-0.12353999999999998,0.048699999999999966,0.007440000000000113,1742248726.213138
-0.15000000000000002,0.47,0.20999999999999996,-0.12927999999999995,0.05896000000000012,0.005619999999999958,-0.395,-0.125,-0.26,-0.18701999999999996,-0.03601999999999994,-0.0075599999999999,1742248726.32721
-0.19999999999999996,0.47,0.125,-0.13684000000000007,0.0684800000000001,-0.035760000000000014,-0.11499999999999999,-0.29499999999999993,-0.15500000000000003,-0.05712000000000006,0.018320000000000114,-0.0043999999999999595,1742248726.446125
-0.135,0.595,0.10000000000000009,0.0307599999999999,0.007319999999999993,-0.0035399999999999876,-0.275,-0.29000000000000004,-0.135,0.10340000000000016,0.07225999999999999,0.041140000000000176,1742248726.5549362
-0.18999999999999995,0.5249999999999999,0.030000000000000027,-0.03283999999999998,-0.11096000000000006,-0.06555999999999995,-0.4650000000000001,-0.08499999999999996,-0.48,0.13074000000000008,0.11914000000000002,0.02929999999999988,1742248726.6689548
-0.08499999999999996,0.375,0.2749999999999999,-0.03479999999999994,0.027579999999999938,-0.019039999999999946,-0.57,-0.07000000000000006,-0.45500000000000007,-0.17700000000000005,0.020380000000000065,-0.05725999999999998,1742248726.785443
-0.15500000000000003,0.44500000000000006,0.20999999999999996,0.04039999999999999,0.13172000000000006,0.03492000000000006,-0.30499999999999994,-0.17000000000000004,-0.385,-0.19226,-0.09192,-0.009759999999999991,1742248726.905472
-0.17000000000000004,0.45999999999999996,-0.07000000000000006,0.09289999999999998,0.1275599999999999,0.06884000000000001,-0.08999999999999997,-0.44500000000000006,-0.040000000000000036,0.028799999999999937,0.0041599999999999415,-0.01537999999999995,1742248727.010991
-0.125,0.56,-0.04500000000000004,0.2107000000000001,-0.005859999999999976,-0.03637999999999997,-0.21999999999999997,-0.235,-0.21999999999999997,0.09522000000000008,0.15477999999999992,0.037599999999999856,1742248727.124908
-0.10499999999999998,0.52,0.125,0.012700000000000156,-0.17503999999999997,-0.11729999999999996,-0.595,0.03499999999999992,-0.59,0.07481999999999989,0.08911999999999987,0.05396000000000001,1742248727.245734
-0.09499999999999997,0.365,0.15500000000000003,-0.07177999999999995,0.011239999999999917,0.02198000000000011,-0.48,-0.11499999999999999,-0.39,-0.13990000000000002,-0.15344000000000002,-0.019039999999999946,1742248727.353216
-0.18500000000000005,0.42999999999999994,0.040000000000000036,-0.10681999999999992,0.08081999999999989,0.025880000000000125,-0.17500000000000004,-0.27,-0.21999999999999997,-0.19689999999999996,-0.11596000000000006,-0.020499999999999963,1742248727.46721
-0.31000000000000005,0.575,-0.18999999999999995,-0.08520000000000005,0.010739999999999972,0.06982,-0.2849999999999999,-0.31499999999999995,-0.17500000000000004,0.11670000000000003,0.05164000000000013,0.0041599999999999415,1742248727.587371
-0.17999999999999994,0.30499999999999994,0.16500000000000004,-0.21326,-0.19996000000000003,-0.042240000000000055,-0.55,-0.05500000000000005,-0.36,0.2415799999999999,0.11511999999999989,-0.09692,1742248727.704821
-0.06499999999999995,0.3700000000000001,0.25,0.01746000000000003,-0.00048000000000003595,-0.06689999999999996,-0.62,-0.025000000000000022,-0.41500000000000004,-0.14002000000000003,-0.08105999999999991,-0.02966000000000002,1742248727.809223
-0.19500000000000006,0.49,0.16500000000000004,0.07800000000000007,0.16968000000000005,0.08044000000000007,-0.28,-0.14,-0.42500000000000004,-0.11450000000000005,-0.21739999999999993,0.014899999999999913,1742248727.925527
-0.245,0.395,-0.12,0.15477999999999992,0.14978000000000002,0.10143999999999997,-0.15000000000000002,-0.4099999999999999,-0.06499999999999995,-0.0009799999999999809,0.03857999999999984,0.024540000000000006,1742248728.046268
-0.13,0.6299999999999999,-0.050000000000000044,0.17968000000000006,-0.09851999999999994,-0.08422000000000007,-0.255,-0.19500000000000006,-0.125,0.12535999999999992,0.14671999999999996,0.03394000000000008,1742248728.150959
-0.025000000000000022,0.48,-0.0050000000000000044,0.05357999999999996,-0.15013999999999994,-0.08923999999999999,-0.755,0.04499999999999993,-0.4650000000000001,0.06347999999999998,0.13329999999999997,0.015859999999999985,1742248728.2656682
-0.05500000000000005,0.405,0.17500000000000004,0.01770000000000005,0.020019999999999927,0.01537999999999995,-0.44500000000000006,-0.16000000000000003,-0.235,-0.21838000000000002,-0.14258000000000004,0.017220000000000013,1742248728.385126
-0.19999999999999996,0.5449999999999999,0.05499999999999994,-0.17700000000000005,0.10179999999999989,0.04188000000000014,-0.10999999999999999,-0.45500000000000007,-0.025000000000000022,-0.08874000000000004,-0.16515999999999997,-0.009519999999999973,1742248728.4931772
-0.22999999999999998,0.665,-0.20499999999999996,-0.09644000000000008,0.054319999999999924,0.0329600000000001,-0.355,-0.31000000000000005,-0.020000000000000018,0.11938000000000004,0.03064,-0.01966000000000001,1742248728.60845
-0.125,0.3400000000000001,0.125,-0.07591999999999999,-0.13964,-0.02648000000000006,-0.36,-0.08499999999999996,-0.26,0.22375999999999996,0.11316000000000015,0.0007399999999999629,1742248728.725312
-0.07000000000000006,0.3999999999999999,0.17500000000000004,-0.009279999999999955,-0.09034000000000009,-0.006720000000000059,-0.535,0.04499999999999993,-0.43999999999999995,-0.001960000000000073,-0.09974000000000005,-0.09729999999999994,1742248728.84454
-0.21499999999999997,0.41500000000000004,0.20500000000000007,0.1936,0.13659999999999983,0.1224400000000001,-0.375,-0.135,-0.33499999999999996,-0.16784,-0.12696000000000007,-0.012319999999999998,1742248728.949116
-0.30499999999999994,0.575,0.07000000000000006,0.14294000000000007,0.12561999999999984,0.08288000000000006,-0.18500000000000005,-0.48,-0.07999999999999996,0.021600000000000064,0.06567999999999996,-0.040039999999999965,1742248729.06653
-0.26,0.6000000000000001,0.02499999999999991,0.19422000000000006,0.06176000000000004,-0.06286000000000003,-0.32000000000000006,-0.15500000000000003,-0.18500000000000005,0.16027999999999998,0.13916000000000017,0.06957999999999998,1742248729.185742
-0.06499999999999995,0.4099999999999999,0.2450000000000001,0.15161999999999987,-0.09227999999999992,-0.09814,-0.515,0.135,-0.49,0.10705999999999993,-0.08653999999999995,-0.027700000000000058,1742248729.29093
-0.08499999999999996,0.3799999999999999,0.22999999999999998,0.07044000000000006,0.04492000000000007,0.02307999999999999,-0.43500000000000005,0.020000000000000018,-0.395,-0.08936,-0.17420000000000002,-0.00537999999999994,1742248729.4055722
-0.255,0.5049999999999999,0.24,-0.07811999999999997,0.09411999999999998,0.125,-0.17999999999999994,-0.18500000000000005,-0.275,-0.043220000000000036,-0.1582,-0.1177999999999999,1742248729.5251782
-0.365,0.56,-0.030000000000000027,0.08338000000000001,0.007440000000000113,0.13294000000000006,-0.21999999999999997,-0.10999999999999999,-0.385,0.35778,0.007440000000000113,-0.08311999999999997,1742248729.6329489
-0.265,0.4099999999999999,0.15500000000000003,0.010739999999999972,-0.15234000000000003,-0.10827999999999993,-0.31499999999999995,0.19500000000000006,-0.43500000000000005,0.16369999999999996,0.0037799999999998946,0.06788000000000016,1742248729.75054
-0.14500000000000002,0.06499999999999995,0.29499999999999993,0.1912799999999999,-0.0008599999999999719,-0.060919999999999974,-0.33000000000000007,0.21999999999999997,-0.43999999999999995,-0.10827999999999993,0.048699999999999966,0.045539999999999914,1742248729.86492
-0.19500000000000006,0.28,0.32499999999999996,-0.13172000000000006,0.04625999999999997,-0.0007399999999999629,-0.32499999999999996,0.1100000000000001,-0.385,-0.38244,0.11474000000000006,0.06407999999999991,1742248729.984662
-0.16000000000000003,0.405,0.06499999999999995,-0.18982,0.1212200000000001,-0.02855999999999992,-0.14500000000000002,-0.29000000000000004,-0.20999999999999996,-0.29212000000000005,0.08885999999999994,0.07335999999999987,1742248730.088922
-0.24,0.6299999999999999,-0.030000000000000027,-0.40748000000000006,0.13623999999999992,-0.04370000000000007,-0.30000000000000004,-0.4099999999999999,-0.10999999999999999,-0.02198,0.23340000000000005,0.16626000000000007,1742248730.205361
-0.14500000000000002,0.54,0.11499999999999999,-0.23034,-0.13451999999999997,-0.05479999999999996,-0.48,-0.20499999999999996,-0.35,0.10509999999999997,0.2552399999999999,0.05944000000000016,1742248730.325454
0.0,0.42999999999999994,0.23499999999999988,-0.017080000000000095,-0.03955999999999993,-0.07520000000000004,-0.565,-0.14,-0.31000000000000005,0.00035999999999991594,-0.046499999999999986,-0.15954000000000002,1742248730.4310558
-0.07999999999999996,0.4950000000000001,0.1100000000000001,0.005239999999999911,0.01868000000000003,0.07421999999999995,-0.42999999999999994,-0.26,-0.11499999999999999,-0.13978000000000002,-0.09522000000000008,-0.013919999999999932,1742248730.545687
-0.18999999999999995,0.5,-0.10499999999999998,-0.18908000000000003,0.0623800000000001,0.04625999999999997,-0.04500000000000004,-0.49,0.02499999999999991,-0.24694000000000005,0.03308,0.11194000000000015,1742248730.664343
-0.13,0.51,-0.05500000000000005,-0.20763999999999994,0.18066000000000004,-0.13281999999999994,-0.14500000000000002,-0.22999999999999998,0.10499999999999998,-0.1925,0.19055999999999984,0.11083999999999983,1742248730.772761
-0.07999999999999996,0.4650000000000001,0.08499999999999996,0.3687799999999999,0.03320000000000012,-0.012580000000000036,-0.41999999999999993,-0.17999999999999994,-0.20499999999999996,0.38038000000000016,-0.02415999999999996,-0.29138,1742248730.8869271
0.0,0.52,-0.020000000000000018,0.22706000000000004,-0.08996000000000004,-0.026120000000000032,-0.57,-0.18999999999999995,-0.27,-0.08410000000000006,-0.09058,0.04394000000000009,1742248731.004697
-0.04500000000000004,0.3900000000000001,0.0,0.010140000000000038,0.0662799999999999,0.043339999999999934,-0.18500000000000005,-0.44999999999999996,0.010000000000000009,-0.04712000000000005,-0.1945800000000001,-0.032220000000000026,1742248731.124258
-0.26,0.5699999999999998,-0.20999999999999996,0.21520000000000006,0.11461999999999994,0.10875999999999997,-0.21999999999999997,-0.3400000000000001,-0.19999999999999996,0.08543999999999996,0.004999999999999893,0.05188000000000015,1742248731.228737
-0.15500000000000003,0.6000000000000001,0.1499999999999999,-0.07728000000000002,-0.19347999999999999,0.0009799999999999809,-0.47,-0.010000000000000009,-0.29499999999999993,0.33299999999999996,-0.03870000000000007,-0.14258000000000004,1742248731.345063
-0.040000000000000036,0.405,0.25,0.08801999999999999,-0.07835999999999999,-0.05065999999999993,-0.58,0.06499999999999995,-0.44500000000000006,0.04601999999999995,-0.0027999999999999137,-0.07728000000000002,1742248731.464545
-0.14,0.44500000000000006,0.28,0.18798000000000004,0.10875999999999997,0.08885999999999994,-0.33000000000000007,-0.0050000000000000044,-0.44500000000000006,-0.11803999999999992,-0.12634,-0.11131999999999997,1742248731.5710511
-0.18999999999999995,0.49,0.050000000000000044,-0.05810000000000004,0.0626199999999999,0.11474000000000006,-0.16000000000000003,-0.35,-0.21499999999999997,0.05675999999999992,-0.018799999999999928,-0.021600000000000064,1742248731.6857548
-0.245,0.6400000000000001,0.05499999999999994,0.3705999999999998,-0.014639999999999986,-0.13781999999999994,-0.19500000000000006,-0.20999999999999996,-0.345,0.11328000000000005,0.07702000000000009,0.10668000000000011,1742248731.804917
-0.07000000000000006,0.375,0.004999999999999893,0.04956000000000005,-0.12805999999999995,-0.09034000000000009,-0.375,0.18500000000000005,-0.605,0.09742000000000006,0.01966000000000001,0.04908000000000001,1742248731.9126022
-0.07999999999999996,0.2849999999999999,0.355,0.041020000000000056,0.02307999999999999,-0.02513999999999994,-0.37,0.06000000000000005,-0.535,-0.14391999999999994,-0.07068000000000008,-0.06896000000000002,1742248732.026929
-0.15500000000000003,0.31000000000000005,0.25,0.09631999999999996,0.16602000000000006,0.0686,-0.14,-0.125,-0.47,-0.12768000000000002,-0.09144000000000008,-0.07799999999999996,1742248732.144601
-0.265,0.45500000000000007,0.07000000000000006,0.11743999999999999,0.049919999999999964,0.12963999999999998,-0.19999999999999996,-0.22999999999999998,-0.29000000000000004,0.09826000000000001,0.018920000000000048,0.02404000000000006,1742248732.264784
-0.18999999999999995,0.3900000000000001,0.16500000000000004,0.0686,-0.19555999999999996,0.015740000000000087,-0.31499999999999995,-0.12,-0.39,0.09094000000000002,0.07214000000000009,0.16088000000000013,1742248732.368754
-0.16500000000000004,0.45999999999999996,0.405,-0.06140000000000001,-0.17896,-0.16759999999999997,-0.44500000000000006,0.20500000000000007,-0.59,0.06555999999999984,0.0042800000000000615,0.03833999999999982,1742248732.484881
-0.04500000000000004,0.2650000000000001,0.3400000000000001,-0.07177999999999995,0.05078000000000005,0.014639999999999986,-0.35,0.03499999999999992,-0.29499999999999993,-0.2954200000000001,-0.032480000000000064,0.05003999999999986,1742248732.596755
-0.15500000000000003,0.395,0.2250000000000001,-0.15161999999999998,0.17028,0.02966000000000002,-0.15500000000000003,-0.53,0.04499999999999993,-0.12181999999999993,0.043460000000000054,0.015260000000000051,1742248732.71071
-0.20499999999999996,0.7050000000000001,-0.015000000000000013,-0.07374000000000003,-0.033440000000000025,-0.0601799999999999,-0.30499999999999994,-0.24,-0.255,0.07177999999999995,0.1815199999999999,0.12952000000000008,1742248732.8247192
-0.21999999999999997,0.5049999999999999,0.345,-0.1852999999999999,-0.18420000000000003,-0.07728000000000002,-0.37,-0.06000000000000005,-0.51,0.32811999999999997,0.09899999999999998,-0.020139999999999936,1742248732.945431
-0.025000000000000022,0.33000000000000007,0.3599999999999999,0.15772000000000008,-0.08165999999999995,-0.12146000000000001,-0.3400000000000001,0.3799999999999999,-0.55,0.2462200000000001,-0.055179999999999896,-0.22851999999999995,1742248733.05294
-0.11499999999999999,0.2450000000000001,0.27,0.2231399999999999,0.03161999999999998,0.17979999999999996,-0.3400000000000001,0.1200000000000001,-0.375,-0.18958000000000008,-0.059700000000000086,-0.20996000000000004,1742248733.166824
-0.41999999999999993,0.44500000000000006,0.17500000000000004,-0.32311999999999996,0.027959999999999985,0.21911999999999998,-0.16500000000000004,-0.405,-0.32000000000000006,-0.07850000000000001,0.06407999999999991,-0.014399999999999968,1742248733.285485
-0.345,0.6949999999999998,0.1200000000000001,-0.01855999999999991,-0.01427999999999996,-0.18579999999999997,-0.355,-0.19500000000000006,-0.29499999999999993,-0.02210000000000001,0.17247999999999997,0.25963999999999987,1742248733.395943
-0.135,0.51,0.10499999999999998,-0.17346000000000006,-0.20568000000000008,-0.19018000000000002,-0.52,0.21500000000000008,-0.61,0.10364000000000018,0.0035399999999998766,0.06407999999999991,1742248733.50871
-0.07499999999999996,0.29000000000000004,0.395,-0.07850000000000001,0.08007999999999993,-0.04064000000000001,-0.44500000000000006,-0.06000000000000005,-0.47,-0.31311999999999995,-0.07946000000000009,0.029179999999999984,1742248733.6243992
-0.21999999999999997,0.41999999999999993,0.16500000000000004,-0.1897000000000001,0.17602000000000007,0.0027999999999999137,-0.135,-0.27,-0.26,-0.12134,-0.15136000000000005,-0.052120000000000055,1742248733.745518
-0.275,0.6400000000000001,-0.10999999999999999,-0.17735999999999996,0.025140000000000162,0.10253999999999985,-0.275,-0.33499999999999996,-0.20999999999999996,0.09594000000000014,0.09460000000000002,0.09033999999999986,1742248733.850754
-0.15500000000000003,0.49,0.10499999999999998,-0.010140000000000038,-0.21362000000000003,-0.08299999999999996,-0.365,-0.0050000000000000044,-0.405,0.15393999999999997,0.12952000000000008,0.009039999999999937,1742248733.964927
-0.09999999999999998,0.25,0.3400000000000001,0.14038000000000017,-0.10584000000000005,-0.12684000000000006,-0.475,0.02499999999999991,-0.545,-0.08605999999999991,-0.032340000000000035,-0.10899999999999999,1742248734.08717
-0.050000000000000044,0.3400000000000001,0.2650000000000001,-0.08094000000000001,0.10424000000000011,0.015859999999999985,-0.29000000000000004,-0.31499999999999995,-0.31000000000000005,-0.12890000000000001,-0.19140000000000001,-0.09020000000000006,1742248734.1929228
-0.15000000000000002,0.3799999999999999,0.06499999999999995,0.10314000000000001,0.15368000000000004,0.16101999999999994,-0.03500000000000003,-0.43999999999999995,-0.10999999999999999,0.02429999999999999,-0.03394000000000008,-0.05274000000000001,1742248734.306823
-0.245,0.6699999999999999,-0.05500000000000005,0.14124000000000003,-0.03088000000000002,-0.025880000000000014,-0.33000000000000007,-0.20999999999999996,-0.36,0.10792000000000002,0.10242000000000018,0.08935999999999988,1742248734.42533
-0.15500000000000003,0.5449999999999999,-0.07000000000000006,-0.10938000000000003,-0.23021999999999998,-0.16759999999999997,-0.505,0.014999999999999902,-0.54,0.08007999999999993,0.03857999999999984,0.06140000000000012,1742248734.5345988
-0.025000000000000022,0.21500000000000008,0.385,-0.05113999999999996,-0.018799999999999928,-0.007940000000000058,-0.395,-0.08999999999999997,-0.4650000000000001,-0.21508000000000005,-0.10010000000000008,-0.015619999999999967,1742248734.648971
-0.12,0.355,0.125,-0.035640000000000005,0.20507999999999993,0.013800000000000034,-0.14500000000000002,-0.29499999999999993,-0.22999999999999998,-0.1897000000000001,-0.10986000000000007,-0.020379999999999954,1742248734.7652092
-0.22499999999999998,0.55,-0.135,-0.15637999999999996,0.06982,0.0836199999999998,-0.25,-0.405,-0.11499999999999999,0.15429999999999988,0.09826000000000001,-0.039059999999999984,1742248734.884898
-0.125,0.5150000000000001,0.1100000000000001,-0.01415999999999995,-0.20936,-0.05053999999999992,-0.53,-0.08499999999999996,-0.30499999999999994,0.16870000000000007,0.2032400000000001,0.07874000000000003,1742248734.990622
-0.03500000000000003,0.3500000000000001,0.21999999999999997,-0.10021999999999998,-0.15355999999999992,-0.06298000000000004,-0.55,-0.0050000000000000044,-0.55,-0.07922000000000007,-0.04310000000000003,-0.08936,1742248735.108809
-0.06000000000000005,0.4099999999999999,0.16999999999999993,-0.006720000000000059,0.11206000000000005,0.041260000000000074,-0.31000000000000005,-0.235,-0.3400000000000001,-0.15760000000000007,-0.19323999999999997,-0.07103999999999999,1742248735.22518
-0.17999999999999994,0.405,-0.03500000000000003,0.026000000000000023,0.15429999999999988,0.1395200000000001,-0.09499999999999997,-0.45500000000000007,0.010000000000000009,-0.024899999999999922,-0.0009799999999999809,0.0013400000000001189,1742248735.332726
-0.22999999999999998,0.6099999999999999,-0.13,0.13392000000000004,0.06407999999999991,-0.07922000000000007,-0.355,-0.31000000000000005,-0.25,0.10498000000000007,0.11803999999999992,0.00550000000000006,1742248735.446573
-0.10499999999999998,0.5449999999999999,0.010000000000000009,-0.08679999999999999,-0.18006,-0.08898000000000006,-0.615,0.040000000000000036,-0.51,0.15832000000000002,0.1457599999999999,0.008539999999999992,1742248735.56664
-0.03500000000000003,0.29499999999999993,0.2250000000000001,0.006460000000000132,-0.022820000000000062,0.026000000000000023,-0.45999999999999996,-0.10499999999999998,-0.395,-0.13354,-0.15576,0.011719999999999953,1742248735.68483
-0.19999999999999996,0.44500000000000006,0.050000000000000044,-0.07898000000000005,0.12597999999999998,0.020259999999999945,-0.20999999999999996,-0.355,-0.25,-0.10950000000000004,-0.17444000000000004,-0.05920000000000003,1742248735.788801
-0.235,0.5,-0.17999999999999994,-0.10863999999999996,0.01746000000000003,-0.006720000000000059,-0.35,-0.245,-0.15500000000000003,0.10253999999999985,0.07397999999999993,-0.020139999999999936,1742248735.905336
-0.13,0.3999999999999999,-0.08999999999999997,-0.14013999999999993,-0.20618000000000003,-0.06701999999999997,-0.555,0.014999999999999902,-0.28,0.1949400000000001,0.17724000000000006,-0.08716000000000002,1742248736.025168
0.014999999999999902,0.41500000000000004,0.2549999999999999,-0.09741999999999995,-0.08410000000000006,-0.03942000000000001,-0.595,0.0,-0.45999999999999996,-0.12841999999999998,-0.01746000000000003,0.013419999999999987,1742248736.13073
-0.07000000000000006,0.45500000000000007,0.14500000000000002,0.14038000000000017,0.09033999999999986,0.08325999999999989,-0.35,-0.20999999999999996,-0.21499999999999997,-0.12402000000000002,-0.18823999999999996,0.01868000000000003,1742248736.2457302
-0.27,0.45500000000000007,-0.08499999999999996,0.16480000000000006,0.11535999999999991,0.13305999999999996,-0.135,-0.4099999999999999,-0.050000000000000044,0.08484000000000003,0.020140000000000047,-0.022460000000000035,1742248736.3652968
-0.19999999999999996,0.43999999999999995,-0.020000000000000018,0.18384,-0.17065999999999992,0.00035999999999991594,-0.4,-0.11499999999999999,-0.08499999999999996,0.23242000000000007,0.09105999999999992,-0.10010000000000008,1742248736.472617
-0.10999999999999999,0.3999999999999999,0.10000000000000009,0.07250000000000001,-0.12573999999999996,-0.0686,-0.585,0.06499999999999995,-0.475,-0.0048799999999999955,0.026739999999999986,0.05688000000000004,1742248736.588427
-0.08499999999999996,0.42500000000000004,0.15500000000000003,-0.08422000000000007,0.04078000000000004,0.024900000000000144,-0.5,-0.14,-0.05500000000000005,-0.18725999999999998,-0.1704199999999999,-0.04700000000000004,1742248736.705333
-0.22499999999999998,0.53,-0.010000000000000009,-0.18431999999999993,0.11621999999999999,0.07190000000000007,-0.08999999999999997,-0.595,-0.0050000000000000044,-0.06847999999999999,-0.013679999999999914,-0.0030599999999999516,1742248736.824692
-0.22999999999999998,0.655,-0.040000000000000036,0.014399999999999968,0.02185999999999999,-0.05455999999999994,-0.38,-0.245,-0.10999999999999999,0.1545399999999999,0.09266000000000019,0.08153999999999995,1742248736.928524
-0.16500000000000004,0.54,-0.125,-0.09729999999999994,-0.16858000000000006,-0.10314000000000001,-0.585,-0.12,-0.4650000000000001,0.12805999999999984,0.22229999999999994,0.049799999999999844,1742248737.045864
0.004999999999999893,0.3500000000000001,0.22999999999999998,0.026000000000000023,-0.009159999999999946,-0.04944000000000004,-0.6,-0.04500000000000004,-0.45999999999999996,-0.15001999999999993,-0.10241999999999996,-0.04358000000000006,1742248737.165823
-0.16500000000000004,0.47,0.18999999999999995,-0.018919999999999937,0.14294000000000007,0.08692000000000011,-0.35,-0.275,-0.14,-0.14525999999999994,-0.2833199999999999,0.010259999999999936,1742248737.270737
-0.2849999999999999,0.365,-0.08499999999999996,0.2440199999999999,0.07885999999999993,0.22363999999999984,-0.42500000000000004,-0.35,-0.06000000000000005,0.11976000000000009,0.24327999999999994,0.054079999999999906,1742249948.803587
-0.29499999999999993,0.395,0.05499999999999994,-0.1420800000000001,-0.17944000000000004,0.04601999999999995,-0.855,0.125,-0.485,0.10583999999999993,0.12268000000000012,-0.06799999999999995,1742249948.913363
-0.18999999999999995,0.5249999999999999,0.14000000000000012,-0.0023200000000000998,-0.15905999999999998,-0.04944000000000004,-0.505,-0.18999999999999995,-0.16500000000000004,-0.23156,-0.24170000000000003,0.02868000000000004,1742249949.026897
-0.20999999999999996,0.3700000000000001,0.21999999999999997,-0.06518000000000002,0.12329999999999997,-0.02198,0.15999999999999992,-0.54,0.030000000000000027,0.04235999999999995,-0.07531999999999994,-0.10962000000000005,1742249949.144868
-0.30499999999999994,0.5,-0.17500000000000004,0.17003999999999997,0.1593,0.10328000000000004,-0.54,-0.18500000000000005,-0.14500000000000002,0.20909999999999984,0.23753999999999986,0.06738000000000022,1742249949.2546802
-0.26,0.53,-0.16500000000000004,-0.025519999999999987,-0.20689999999999997,-0.13281999999999994,-0.585,0.010000000000000009,-0.2849999999999999,-0.16968000000000005,-0.047860000000000014,0.014040000000000052,1742249949.368875
-0.18500000000000005,0.2650000000000001,0.2849999999999999,-0.025760000000000005,0.06323999999999996,-0.020139999999999936,-0.08999999999999997,-0.375,0.010000000000000009,-0.18688000000000005,-0.20531999999999995,0.01635999999999993,1742249949.4832158
-0.31000000000000005,0.5249999999999999,0.07499999999999996,0.04968000000000017,0.14549999999999996,0.07996000000000003,-0.345,-0.255,-0.015000000000000013,0.12170000000000014,0.14061999999999997,0.017940000000000067,1742249949.596692
-0.26,0.4650000000000001,-0.04500000000000004,-0.04932000000000003,0.02648000000000006,-0.007940000000000058,-0.845,0.06000000000000005,-0.49,0.020140000000000047,0.10607999999999995,0.06824000000000008,1742249949.710571
-0.125,0.32000000000000006,0.15500000000000003,0.06128,-0.060799999999999965,-0.029179999999999984,-0.36,-0.15000000000000002,-0.10999999999999999,-0.2865,-0.18934000000000006,0.045660000000000034,1742249949.824844
-0.125,0.395,0.03499999999999992,-0.10765999999999998,0.08948,-0.002080000000000082,-0.135,-0.355,-0.06499999999999995,0.15490000000000004,0.018059999999999965,-0.12548000000000004,1742249949.944216
-0.3400000000000001,0.635,-0.22999999999999998,0.049919999999999964,0.047599999999999865,0.07044000000000006,-0.835,-0.09499999999999997,-0.39,0.17077999999999993,0.1494200000000001,0.0034199999999999786,1742249950.052673
-0.20499999999999996,0.5049999999999999,0.07499999999999996,0.06788000000000016,-0.17444000000000004,-0.11646000000000001,-0.6,-0.09999999999999998,-0.31499999999999995,-0.23863999999999996,-0.16724000000000006,0.07714000000000021,1742249950.166893
-0.09499999999999997,0.33000000000000007,0.09000000000000008,-0.15515999999999996,-0.07165999999999995,-0.04858000000000007,0.0,-0.4099999999999999,0.18500000000000005,-0.08165999999999995,-0.16944000000000004,0.054079999999999906,1742249950.284756
-0.25,0.48,-0.16500000000000004,0.07031999999999994,0.21019999999999994,0.12548000000000004,-0.39,-0.19999999999999996,-0.17000000000000004,0.2744200000000001,0.24842000000000009,-0.08398000000000005,1742249950.394809
-0.22499999999999998,0.45500000000000007,0.040000000000000036,-0.11060000000000003,-0.2723399999999999,-0.06335999999999997,-0.64,0.014999999999999902,-0.41999999999999993,-0.12378,0.023679999999999923,0.02855999999999992,1742249950.508694
-0.17999999999999994,0.32499999999999996,0.33000000000000007,-0.010259999999999936,-0.014519999999999977,-0.034420000000000006,-0.13,-0.33000000000000007,0.020000000000000018,-0.25170000000000003,-0.20972000000000002,0.043339999999999934,1742249950.6255171
-0.33499999999999996,0.5,-0.06499999999999995,-0.09814,0.2425599999999999,0.029779999999999918,-0.17000000000000004,-0.37,0.04499999999999993,0.14270000000000005,0.08397999999999994,-0.023559999999999914,1742249950.7366898
-0.355,0.585,-0.16500000000000004,0.18175999999999992,0.06018000000000012,-0.10521999999999998,-0.725,-0.04500000000000004,-0.36,0.13392000000000004,0.09483999999999981,-0.0018400000000000638,1742249950.8508449
-0.07499999999999996,0.2849999999999999,0.08000000000000007,-0.0013400000000000079,-0.09704000000000002,-0.10070000000000001,-0.53,-0.08499999999999996,-0.28,-0.21374000000000004,-0.17334000000000005,0.0662799999999999,1742249950.96552
-0.14,0.3700000000000001,0.11499999999999999,-0.06494000000000011,0.08421999999999996,0.040159999999999973,0.014999999999999902,-0.45999999999999996,0.18500000000000005,0.13525999999999994,0.010140000000000038,-0.06872,1742249951.085106
-0.405,0.74,-0.345,-0.08728000000000002,0.017819999999999947,0.16992000000000007,-0.44999999999999996,-0.13,-0.16500000000000004,0.21557999999999988,0.2441399999999998,-0.13964,1742249951.191654
-0.24,0.44999999999999996,-0.15500000000000003,-0.17310000000000003,-0.26648000000000005,-0.08362000000000003,-0.595,0.014999999999999902,-0.31000000000000005,-0.19165999999999994,-0.029059999999999975,0.07690000000000019,1742249951.305753
-0.15000000000000002,0.365,0.19500000000000006,-0.05188000000000004,0.02222000000000013,0.0041599999999999415,-0.10999999999999999,-0.4099999999999999,0.19500000000000006,-0.21862000000000004,-0.22474000000000005,0.08216000000000001,1742249951.425935
-0.37,0.53,-0.25,0.002080000000000082,0.26502000000000003,0.10057999999999989,-0.32000000000000006,-0.35,0.125,0.12890000000000001,0.18333999999999984,0.01855999999999991,1742249951.533453
-0.255,0.5150000000000001,-0.18500000000000005,0.11961999999999984,-0.07787999999999995,-0.08665999999999996,-0.88,0.004999999999999893,-0.5,-0.09498000000000006,0.08311999999999986,0.16393999999999997,1742249951.6475809
-0.07499999999999996,0.2650000000000001,0.28,0.021600000000000064,-0.07398000000000005,-0.08287999999999995,-0.355,-0.16000000000000003,-0.11499999999999999,-0.24134,-0.20811999999999997,0.08216000000000001,1742249951.7663062
-0.235,0.375,-0.0050000000000000044,-0.24012,0.15233999999999992,0.06678000000000006,-0.16500000000000004,-0.38,-0.03500000000000003,0.1275599999999999,0.014040000000000052,-0.08055999999999996,1742249951.875678
-0.22499999999999998,0.5899999999999999,-0.135,0.04590000000000005,0.01990000000000003,0.016000000000000014,-0.695,-0.10499999999999998,-0.31499999999999995,0.22521999999999998,0.15501999999999994,-0.009399999999999964,1742249951.98965
-0.16500000000000004,0.5550000000000002,0.07499999999999996,0.07373999999999992,-0.19886000000000004,-0.12818000000000007,-0.65,-0.135,-0.32499999999999996,-0.17503999999999997,-0.11878,0.07044000000000006,1742249952.105672
-0.15000000000000002,0.3999999999999999,0.19999999999999996,-0.07752000000000003,0.02868000000000004,0.012580000000000036,0.07499999999999996,-0.43999999999999995,0.31499999999999995,-0.03967999999999994,-0.10765999999999998,-0.027100000000000013,1742249952.225282
-0.365,0.655,-0.29000000000000004,0.05357999999999996,0.11961999999999984,0.10364000000000018,-0.38,-0.3400000000000001,0.07000000000000006,0.12916000000000016,0.2623199999999999,0.017819999999999947,1742249952.331452
-0.235,0.585,-0.11499999999999999,0.09266000000000019,-0.11229999999999996,-0.10694000000000004,-0.82,-0.0050000000000000044,-0.405,-0.01097999999999999,0.08570000000000011,0.09948000000000001,1742249952.446759
-0.09999999999999998,0.33499999999999996,0.2549999999999999,0.005619999999999958,-0.08299999999999996,-0.10986000000000007,-0.385,-0.19999999999999996,-0.08999999999999997,-0.26148000000000005,-0.24134,0.08838000000000013,1742249952.566335
-0.12,0.345,-0.06000000000000005,-0.2633,0.11853999999999987,0.0650599999999999,-0.050000000000000044,-0.42999999999999994,-0.07999999999999996,0.1620999999999999,0.06469999999999998,-0.005240000000000022,1742249952.673668
-0.18500000000000005,0.605,-0.18500000000000005,0.13038000000000016,0.008539999999999992,-0.02855999999999992,-0.685,-0.07499999999999996,-0.37,0.21043999999999996,0.12378,-0.12829999999999997,1742249952.787562
-0.125,0.5449999999999999,0.1499999999999999,0.06164000000000014,-0.1433199999999999,-0.09986000000000006,-0.625,-0.16500000000000004,-0.22499999999999998,-0.1274400000000001,-0.16724000000000006,-0.006960000000000077,1742249952.9074728
-0.09499999999999997,0.3900000000000001,0.1499999999999999,-0.06053999999999993,0.0709200000000001,0.0329600000000001,0.010000000000000009,-0.45500000000000007,0.16500000000000004,-0.06311999999999995,-0.13525999999999994,-0.05615999999999999,1742249953.015671
-0.31499999999999995,0.5449999999999999,-0.26,0.03625999999999996,0.14379999999999993,0.20240000000000014,-0.31499999999999995,-0.255,0.0,0.12011999999999978,0.2280199999999999,-0.0040200000000000236,1742249953.12947
-0.21999999999999997,0.5249999999999999,-0.10999999999999999,-0.13,-0.16370000000000007,-0.057740000000000014,-0.58,-0.07499999999999996,-0.245,-0.11608000000000007,0.06946000000000008,0.10792000000000002,1742249953.247152
-0.16000000000000003,0.31499999999999995,0.2450000000000001,0.014780000000000015,0.017940000000000067,-0.04747999999999997,-0.25,-0.2849999999999999,-0.14,-0.17688000000000004,-0.22705999999999993,0.03968000000000016,1742249953.3676171
-0.21499999999999997,0.4650000000000001,-0.07000000000000006,-0.12487999999999999,0.21082,0.03698000000000001,-0.135,-0.37,-0.020000000000000018,0.12744,0.009640000000000093,-0.009639999999999982,1742249953.4716392
-0.28,0.54,-0.08999999999999997,0.17042000000000002,0.05553999999999992,-0.06823999999999997,-1.0,-0.09999999999999998,-0.63,0.08397999999999994,0.09729999999999994,-0.049799999999999955,1742249953.587404
-0.09999999999999998,0.25,0.040000000000000036,0.21888000000000019,-0.11548000000000003,-0.12658000000000003,-0.565,-0.14,-0.31000000000000005,-0.19726,-0.19934000000000007,0.1275599999999999,1742249953.699689
-0.10499999999999998,0.2849999999999999,0.07499999999999996,-0.23120000000000007,-0.0032999999999999696,0.10949999999999993,0.06000000000000005,-0.49,0.28,0.02171999999999996,-0.023320000000000007,-0.0393,1742249953.813451
-0.405,0.655,-0.45500000000000007,0.02966000000000002,0.060799999999999965,0.1177999999999999,-0.20499999999999996,-0.19500000000000006,-0.08999999999999997,0.19396000000000013,0.21204,-0.010000000000000009,1742249953.928323
-0.16500000000000004,0.565,0.010000000000000009,0.005740000000000078,-0.16113999999999995,-0.09924,-0.64,-0.10999999999999999,-0.235,-0.12585999999999997,0.031500000000000083,0.07835999999999999,1742249954.048335
-0.13,0.2549999999999999,0.17999999999999994,0.08216000000000001,0.015740000000000087,-0.022220000000000018,-0.26,-0.31000000000000005,-0.125,-0.14294000000000007,-0.22851999999999995,0.055420000000000025,1742249954.155652
-0.24,0.575,-0.12,-0.16064,0.1604000000000001,0.07996000000000003,-0.15000000000000002,-0.385,-0.040000000000000036,0.1493,-0.031379999999999963,-0.037719999999999976,1742249954.269632
-0.17500000000000004,0.5899999999999999,-0.040000000000000036,0.1591800000000001,0.07702000000000009,-0.11021999999999998,-0.66,-0.14,-0.2849999999999999,0.14379999999999993,0.18945999999999996,-0.10899999999999999,1742249954.387596
-0.09499999999999997,0.41999999999999993,0.1299999999999999,0.024660000000000126,-0.19701999999999997,-0.05822000000000005,-0.555,-0.18999999999999995,-0.26,-0.16564,-0.12878,0.059940000000000104,1742249954.497683
-0.18500000000000005,0.45999999999999996,-0.040000000000000036,-0.16003999999999996,0.001100000000000101,0.0036599999999999966,0.06000000000000005,-0.485,0.3599999999999999,0.02929999999999988,-0.043340000000000045,-0.029179999999999984,1742249954.6114318
-0.255,0.5449999999999999,-0.30499999999999994,0.00011999999999989797,0.06678000000000006,0.16418,-0.42500000000000004,-0.30000000000000004,0.02499999999999991,0.1691800000000001,0.23096000000000005,-0.014039999999999941,1742249954.727686
-0.21999999999999997,0.6200000000000001,-0.07999999999999996,0.08507999999999982,-0.11146,-0.06591999999999998,-0.615,-0.135,-0.30499999999999994,-0.11060000000000003,-0.04027999999999998,0.09655999999999998,1742249954.84878
-0.18500000000000005,0.45500000000000007,0.1499999999999999,-0.04503999999999997,-0.0045199999999999685,-0.045539999999999914,-0.22999999999999998,-0.355,0.06000000000000005,-0.19544000000000006,-0.15760000000000007,0.07275999999999994,1742249954.953585
-0.22499999999999998,0.42999999999999994,-0.07499999999999996,-0.08055999999999996,0.2216800000000001,0.08166000000000007,-0.17999999999999994,-0.405,0.0,0.1468600000000002,0.0029200000000000337,-0.03088000000000002,1742249955.069078
-0.18500000000000005,0.5699999999999998,-0.13,0.32031999999999994,0.1203599999999998,-0.12708000000000008,-0.9,-0.19500000000000006,-0.5,0.11390000000000011,0.14100000000000001,-0.052000000000000046,1742249955.1918
0.0,0.3400000000000001,0.15500000000000003,0.09007999999999994,-0.13805999999999996,-0.10302,-0.5,-0.22499999999999998,-0.17000000000000004,-0.21862000000000004,-0.17834000000000005,0.029779999999999918,1742249955.295642
-0.05500000000000005,0.355,0.09000000000000008,-0.15394000000000008,0.03308,0.07103999999999999,0.010000000000000009,-0.63,0.29000000000000004,-0.059700000000000086,-0.11021999999999998,-0.008179999999999965,1742249955.415427
-0.27,0.54,-0.2849999999999999,0.0341800000000001,0.14466,0.14013999999999993,-0.31000000000000005,-0.31499999999999995,0.09000000000000008,0.16748000000000007,0.24658000000000002,0.031239999999999934,1742249955.529284
-0.17999999999999994,0.44500000000000006,-0.16500000000000004,-0.036860000000000004,-0.20129999999999992,-0.0010999999999999899,-0.69,-0.10999999999999999,-0.42500000000000004,-0.04822000000000004,0.07299999999999995,0.06616,1742249955.637522
-0.030000000000000027,0.32000000000000006,0.31499999999999995,0.042119999999999935,-0.06213999999999997,-0.04747999999999997,-0.275,-0.32499999999999996,-0.040000000000000036,-0.18982,-0.135,-0.02088000000000001,1742249955.751673
-0.29499999999999993,0.44999999999999996,-0.030000000000000027,-0.2489,0.04027999999999987,0.15405999999999986,-0.24,-0.35,-0.14500000000000002,0.06529999999999991,0.00878000000000001,-0.03308,1742249955.8699431
-0.21499999999999997,0.595,-0.010000000000000009,0.056400000000000006,0.03064,-0.00036000000000002697,-0.575,-0.25,-0.24,0.1933600000000002,0.17381999999999986,0.014520000000000088,1742249955.9889972
-0.16500000000000004,0.3999999999999999,-0.12,0.040039999999999853,-0.19665999999999995,-0.06434000000000006,-0.635,-0.050000000000000044,-0.245,-0.04810000000000003,0.07421999999999995,0.045420000000000016,1742249956.093426
-0.15500000000000003,0.3599999999999999,0.09000000000000008,-0.0232,0.0045200000000000795,-0.042360000000000064,-0.375,-0.18999999999999995,-0.020000000000000018,-0.21216000000000002,-0.16468000000000005,0.06933999999999996,1742249956.213232
-0.275,0.45999999999999996,-0.015000000000000013,-0.09558,0.10438000000000014,0.04468000000000005,-0.015000000000000013,-0.49,0.125,0.009519999999999973,-0.061880000000000046,-0.022820000000000062,1742249956.329947
-0.36,0.56,-0.235,-0.1543,0.07654000000000005,0.03394000000000008,-0.44500000000000006,-0.275,0.06499999999999995,0.15222000000000002,0.1493,0.04527999999999999,1742249956.435222
-0.275,0.3999999999999999,-0.26,0.22363999999999984,-0.11048000000000002,-0.07701999999999998,-0.58,-0.17999999999999994,-0.235,0.014520000000000088,0.11499999999999999,0.043460000000000054,1742249956.548861
-0.09999999999999998,0.3700000000000001,0.03499999999999992,0.0012199999999999989,-0.10351999999999995,-0.08141999999999994,-0.555,-0.17999999999999994,-0.27,-0.15064,0.02966000000000002,0.05479999999999996,1742249956.671077
-0.135,0.405,0.010000000000000009,-0.0700599999999999,-0.011360000000000037,0.02855999999999992,-0.32499999999999996,-0.265,-0.16500000000000004,-0.14136000000000004,-0.17846000000000006,0.0006200000000000649,1742249956.776522
-0.24,0.47,-0.06000000000000005,-0.09326000000000001,0.10681999999999992,0.06481999999999988,-0.10499999999999998,-0.39,0.10499999999999998,0.0836199999999998,-0.022220000000000018,-0.050899999999999945,1742249956.8904252
-0.32000000000000006,0.6600000000000001,-0.2849999999999999,-0.03076000000000001,0.11292000000000013,0.018179999999999863,-0.30499999999999994,-0.30499999999999994,-0.07499999999999996,0.16846000000000005,0.24804000000000004,-0.008299999999999974,1742249957.009454
-0.21499999999999997,0.45500000000000007,0.08000000000000007,0.02929999999999988,-0.09058,-0.08326,-0.575,-0.125,-0.32499999999999996,-0.02746000000000004,0.04956000000000005,0.06811999999999996,1742249957.129516
-0.07000000000000006,0.33499999999999996,0.18999999999999995,0.05738000000000021,0.006960000000000077,-0.06811999999999996,-0.495,-0.255,-0.16500000000000004,-0.14318000000000008,-0.12963999999999998,-0.009519999999999973,1742249957.232662
-0.15000000000000002,0.41500000000000004,0.07000000000000006,-0.08299999999999996,0.05285999999999991,0.07776000000000005,-0.26,-0.3400000000000001,-0.015000000000000013,-0.16064,-0.1596599999999999,-0.01636000000000004,1742249957.349517
-0.21999999999999997,0.51,-0.11499999999999999,-0.053340000000000054,0.11925999999999992,0.14466,-0.29000000000000004,-0.4,-0.025000000000000022,0.18786000000000014,0.03807999999999989,-0.06713999999999998,1742249957.469717
-0.24,0.6400000000000001,-0.135,0.11535999999999991,0.02966000000000002,-0.00036000000000002697,-0.36,-0.16500000000000004,-0.08499999999999996,0.20433999999999997,0.11158000000000001,0.009519999999999973,1742249957.574344
-0.22999999999999998,0.5550000000000002,-0.125,-0.021120000000000028,-0.1751800000000001,-0.07458000000000009,-0.615,-0.11499999999999999,-0.33000000000000007,-0.08435999999999999,-0.07874000000000003,0.08190000000000008,1742249957.692489
-0.125,0.3400000000000001,0.20999999999999996,0.03308,0.006960000000000077,-0.03601999999999994,-0.475,-0.13,-0.25,-0.18565999999999994,-0.06518000000000002,0.04809999999999981,1742249957.809655
-0.18500000000000005,0.5,0.050000000000000044,-0.13391999999999993,0.05078000000000005,0.047719999999999985,-0.37,-0.265,-0.16500000000000004,-0.04822000000000004,-0.18408000000000002,-0.09655999999999998,1742249957.916655
-0.17000000000000004,0.43500000000000005,-0.015000000000000013,-0.025880000000000014,0.09742000000000006,0.09105999999999992,-0.20999999999999996,-0.405,-0.010000000000000009,0.0907,-0.030019999999999936,0.010259999999999936,1742249958.0303428
-0.275,0.6099999999999999,-0.20999999999999996,0.048699999999999966,0.0007399999999999629,0.08240000000000003,-0.39,-0.22999999999999998,-0.19500000000000006,0.1667400000000001,0.0907,0.0329600000000001,1742249958.1504571
-0.24,0.5150000000000001,0.18500000000000005,0.03869999999999996,-0.0966800000000001,-0.06128,-0.53,-0.16500000000000004,-0.30499999999999994,0.06666000000000016,-0.00012000000000000899,0.02416000000000018,1742249958.270152
-0.15000000000000002,0.31000000000000005,0.10000000000000009,0.04601999999999995,-0.03820000000000001,-0.09265999999999996,-0.525,-0.05500000000000005,-0.33000000000000007,-0.06446000000000007,-0.021120000000000028,-0.024660000000000015,1742249958.372532
-0.21999999999999997,0.5049999999999999,0.1299999999999999,-0.0012199999999999989,0.06176000000000004,-0.031379999999999963,-0.475,-0.14500000000000002,-0.22499999999999998,-0.19396000000000002,-0.02648000000000006,-0.08020000000000005,1742249958.489397
-0.08499999999999996,0.355,0.030000000000000027,-0.13244,0.06982,0.07214000000000009,-0.22999999999999998,-0.385,0.010000000000000009,-0.10010000000000008,-0.06323999999999996,0.022820000000000062,1742249958.609523
-0.2849999999999999,0.5,-0.135,-0.005499999999999949,0.10301999999999989,0.13695999999999997,-0.385,-0.35,-0.125,0.15551999999999988,0.06603999999999988,0.04051999999999989,1742249958.714262
-0.25,0.5350000000000001,-0.06499999999999995,0.13122000000000011,0.03064,-0.13354,-0.42500000000000004,-0.275,-0.17000000000000004,0.18188000000000004,0.19666000000000006,0.11390000000000011,1742249958.830025
-0.135,0.405,-0.12,0.016000000000000014,-0.1998199999999999,-0.16870000000000007,-0.565,-0.05500000000000005,-0.30000000000000004,0.03968000000000016,0.08166000000000007,-0.01537999999999995,1742249958.950293
-0.020000000000000018,0.3500000000000001,0.1499999999999999,0.05884,-0.03527999999999998,-0.06420000000000003,-0.475,-0.18500000000000005,-0.135,-0.23875999999999997,-0.12536000000000003,-0.013679999999999914,1742249959.056557
-0.13,0.33000000000000007,0.14000000000000012,-0.11572000000000005,0.08435999999999999,0.13904000000000005,-0.22499999999999998,-0.41999999999999993,-0.050000000000000044,-0.19531999999999994,-0.16881999999999997,0.031380000000000186,1742249959.171895
-0.18999999999999995,0.4650000000000001,-0.17000000000000004,-0.01415999999999995,0.17896,0.13758000000000004,-0.21499999999999997,-0.37,0.07499999999999996,0.1394000000000002,0.032480000000000064,-0.07984000000000002,1742249959.290185
-0.21499999999999997,0.6099999999999999,-0.255,0.18127999999999989,-0.009399999999999964,-0.0697000000000001,-0.71,-0.22499999999999998,-0.17000000000000004,0.17432000000000003,0.26038000000000006,0.013299999999999867,1742249959.410162
-0.125,0.4950000000000001,0.0,-0.01746000000000003,-0.2955399999999999,-0.10327999999999993,-0.56,-0.07999999999999996,-0.30000000000000004,0.0018400000000000638,0.06274000000000002,-0.011099999999999999,1742249959.512319
-0.06000000000000005,0.355,0.1499999999999999,-0.0040200000000000236,-0.026739999999999986,-0.03479999999999994,-0.355,-0.235,0.050000000000000044,-0.25988,-0.17444000000000004,0.04296000000000011,1742249959.630342
-0.25,0.45500000000000007,0.07499999999999996,-0.12315999999999994,0.09924,0.12342000000000009,-0.21999999999999997,-0.41500000000000004,0.050000000000000044,-0.16822000000000004,-0.10718000000000005,0.055299999999999905,1742249959.749929
-0.22999999999999998,0.48,-0.16000000000000003,-0.0023200000000000998,0.13232,0.040159999999999973,-0.2849999999999999,-0.30499999999999994,0.020000000000000018,0.1324400000000001,0.05932000000000004,-0.02501999999999993,1742249959.8542469
-0.24,0.595,-0.19500000000000006,0.1663800000000002,0.05675999999999992,-0.057620000000000005,-0.47,-0.235,-0.08499999999999996,0.12083999999999984,0.24107999999999996,-0.020379999999999954,1742249959.9703932
-0.16000000000000003,0.45999999999999996,0.004999999999999893,0.07579999999999987,-0.13951999999999998,-0.11170000000000002,-0.635,-0.15500000000000003,-0.11499999999999999,-0.05615999999999999,0.008419999999999872,0.06323999999999996,1742249960.08943
-0.12,0.3500000000000001,0.1100000000000001,-0.05152000000000001,0.0577399999999999,-0.04601999999999995,-0.49,-0.27,0.15500000000000003,-0.17676000000000003,-0.21411999999999998,0.04527999999999999,1742249960.196328
-0.235,0.51,0.010000000000000009,-0.08031999999999995,0.18811999999999984,0.10875999999999997,0.03499999999999992,-0.56,0.365,0.028079999999999883,-0.05018,-0.013419999999999987,1742249960.310244
-0.25,0.47,-0.35,0.06678000000000006,0.10155999999999987,0.011719999999999953,-0.30499999999999994,-0.33000000000000007,0.08000000000000007,0.13853999999999989,0.14466,0.056519999999999904,1742249960.4299562
-0.265,0.44999999999999996,-0.26,0.11827999999999994,-0.13868000000000003,-0.06568000000000007,-0.73,-0.2849999999999999,-0.235,0.08519999999999994,0.16283999999999987,-0.13939999999999997,1742249960.549867
-0.15000000000000002,0.375,-0.10999999999999999,0.036739999999999995,-0.17613999999999996,-0.05479999999999996,-0.57,-0.050000000000000044,-0.29000000000000004,-0.06298000000000004,-0.043340000000000045,-0.00012000000000000899,1742249960.652459
-0.15500000000000003,0.45500000000000007,0.030000000000000027,-0.0601799999999999,0.01428000000000007,-0.03283999999999998,-0.38,-0.30000000000000004,-0.010000000000000009,-0.042360000000000064,-0.22094000000000003,-0.06884000000000001,1742249960.770518
-0.09499999999999997,0.3999999999999999,-0.17000000000000004,-0.019540000000000002,0.2058199999999999,0.0611600000000001,-0.12,-0.48,0.30499999999999994,-0.06286000000000003,-0.04418,0.033320000000000016,1742249960.8904362
-0.30000000000000004,0.4950000000000001,-0.30499999999999994,-0.07177999999999995,0.1212200000000001,0.03479999999999994,-0.345,-0.30499999999999994,0.11499999999999999,0.13513999999999982,0.18018,0.05809999999999982,1742249960.9940531
-0.19500000000000006,0.43500000000000005,-0.22999999999999998,0.08373999999999993,-0.16052,-0.09936,-0.59,-0.275,-0.22499999999999998,0.01635999999999993,0.2070399999999999,0.04821999999999993,1742249961.10922
-0.09999999999999998,0.405,0.010000000000000009,-0.028679999999999928,-0.1261,-0.07422000000000006,-0.565,-0.15500000000000003,-0.30000000000000004,-0.09924,-0.03637999999999997,0.01977999999999991,1742249961.228983
-0.10499999999999998,0.43999999999999995,-0.0050000000000000044,-0.035760000000000014,0.04601999999999995,-0.014780000000000015,-0.33499999999999996,-0.375,0.020000000000000018,-0.05920000000000003,-0.20228000000000002,0.007560000000000011,1742249961.335281
-0.10999999999999999,0.5550000000000002,-0.07000000000000006,-0.15600000000000003,0.13636000000000004,0.01415999999999995,-0.15000000000000002,-0.355,0.1499999999999999,-0.01208000000000009,-0.058719999999999994,0.031380000000000186,1742249961.449266
-0.17000000000000004,0.5150000000000001,-0.235,0.036739999999999995,0.05944000000000016,-0.01537999999999995,-0.31499999999999995,-0.30000000000000004,0.06000000000000005,0.0966800000000001,0.18969999999999998,0.026739999999999986,1742249961.5699708
-0.16500000000000004,0.54,-0.17999999999999994,0.05066000000000015,-0.14624000000000004,-0.060799999999999965,-0.615,-0.22499999999999998,-0.2849999999999999,0.03308,0.04370000000000007,-0.03808,1742249961.677262
-0.03500000000000003,0.43999999999999995,0.040000000000000036,0.011479999999999935,-0.08008000000000004,-0.02636000000000005,-0.485,-0.2849999999999999,-0.08499999999999996,-0.07568000000000008,-0.09851999999999994,-0.036739999999999995,1742249961.79141
-0.09999999999999998,0.4750000000000001,-0.06000000000000005,-0.07799999999999996,0.04381999999999997,0.03381999999999996,-0.3400000000000001,-0.4,0.004999999999999893,-0.10046,-0.13636000000000004,0.01195999999999997,1742249961.909186
-0.16000000000000003,0.48,-0.07999999999999996,-0.035640000000000005,0.09094000000000002,0.025020000000000042,-0.245,-0.38,-0.04500000000000004,0.059700000000000086,0.007200000000000095,-0.01208000000000009,1742249962.0300338
-0.09499999999999997,0.53,-0.125,0.0697000000000001,0.015260000000000051,-0.025880000000000014,-0.33499999999999996,-0.29000000000000004,-0.06000000000000005,0.10875999999999997,0.1730999999999998,-0.006960000000000077,1742249962.133269
-0.08999999999999997,0.44500000000000006,-0.10999999999999999,0.05346000000000006,-0.056640000000000024,-0.03186,-0.665,-0.17999999999999994,-0.26,0.06152000000000002,-0.0042799999999999505,-0.08105999999999991,1742249962.24956
-0.07000000000000006,0.41999999999999993,0.020000000000000018,-0.03382000000000007,-0.04724000000000006,-0.011720000000000064,-0.41500000000000004,-0.25,-0.09499999999999997,-0.06958000000000009,-0.043220000000000036,0.01990000000000003,1742249962.369389
-0.12,0.45999999999999996,-0.07000000000000006,-0.05455999999999994,0.0686,0.03320000000000012,-0.32499999999999996,-0.35,0.07000000000000006,-0.10046,-0.10486000000000006,0.010000000000000009,1742249962.4752588
-0.18999999999999995,0.44999999999999996,-0.135,-0.08008000000000004,0.07909999999999995,0.08203999999999989,-0.29499999999999993,-0.38,-0.030000000000000027,0.07481999999999989,0.018059999999999965,-0.040159999999999973,1742249962.589348
-0.16000000000000003,0.5049999999999999,-0.135,0.07983999999999991,0.016119999999999912,0.014399999999999968,-0.38,-0.31000000000000005,0.0,0.14466,0.11988000000000021,-0.031240000000000046,1742249962.7132008
-0.18999999999999995,0.41500000000000004,-0.20499999999999996,0.13817999999999997,-0.10399999999999998,-0.026859999999999995,-0.58,-0.22499999999999998,-0.17500000000000004,0.011239999999999917,0.06335999999999986,0.0,1742249962.8285608
-0.12,0.3999999999999999,-0.050000000000000044,-0.0031799999999999606,-0.025880000000000014,-0.05798000000000003,-0.44500000000000006,-0.25,-0.03500000000000003,-0.07374000000000003,-0.07287999999999994,0.03405999999999998,1742249962.931349
-0.15000000000000002,0.45500000000000007,-0.07499999999999996,-0.06835999999999998,0.035760000000000014,0.007079999999999975,-0.33000000000000007,-0.32499999999999996,-0.07000000000000006,-0.043220000000000036,-0.12524000000000002,-0.014519999999999977,1742249963.0495858
-0.13,0.4750000000000001,-0.135,-0.06616,0.06909999999999994,0.07055999999999996,-0.33000000000000007,-0.395,-0.050000000000000044,0.13671999999999995,-0.0027999999999999137,-0.035519999999999996,1742249963.170507
-0.20499999999999996,0.6000000000000001,-0.22999999999999998,0.08081999999999989,-0.03283999999999998,-0.008919999999999928,-0.235,-0.22499999999999998,-0.010000000000000009,0.20921999999999996,0.10498000000000007,-0.02855999999999992,1742249963.2733388
-0.16500000000000004,0.43500000000000005,-0.15500000000000003,0.1924999999999999,-0.07531999999999994,-0.057499999999999996,-0.715,-0.10999999999999999,-0.3400000000000001,0.031239999999999934,0.007079999999999975,0.016240000000000032,1742249963.388368
-0.12,0.42500000000000004,0.09499999999999997,0.012700000000000156,-0.021600000000000064,-0.026120000000000032,-0.485,-0.20499999999999996,-0.14,-0.12291999999999992,-0.14294000000000007,0.015020000000000033,1742249963.509265
-0.10499999999999998,0.385,-0.040000000000000036,-0.05615999999999999,0.052000000000000046,0.045420000000000016,-0.08499999999999996,-0.62,0.28,-0.046499999999999986,-0.07934000000000008,-0.0031799999999999606,1742249963.6153128
-0.32000000000000006,0.47,-0.17500000000000004,0.006220000000000114,0.1200000000000001,0.09167999999999998,-0.31499999999999995,-0.32499999999999996,-0.020000000000000018,0.12134,0.08996000000000004,0.0008600000000000829,1742249963.729024
-0.235,0.5150000000000001,-0.05500000000000005,0.18530000000000002,-0.11926000000000003,-0.0343,-0.625,-0.22499999999999998,-0.26,0.11803999999999992,0.14623999999999993,-0.0514,1742249963.848887
-0.07000000000000006,0.43500000000000005,-0.020000000000000018,0.07520000000000016,-0.10241999999999996,-0.047599999999999976,-0.64,-0.10499999999999998,-0.29000000000000004,-0.10289999999999999,-0.06579999999999997,0.015020000000000033,1742249963.957296
-0.135,0.41500000000000004,0.05499999999999994,-0.14734000000000003,0.03442000000000012,0.0042800000000000615,-0.21499999999999997,-0.27,0.10499999999999998,-0.22924,-0.26049999999999995,0.07752000000000003,1742249964.071135
-0.32000000000000006,0.5449999999999999,-0.08499999999999996,-0.12255999999999989,0.18444000000000016,0.04527999999999999,-0.17000000000000004,-0.41500000000000004,0.03499999999999992,0.07153999999999994,0.02307999999999999,-0.05346000000000006,1742249964.1910038
-0.235,0.5449999999999999,-0.22999999999999998,0.14159999999999995,0.08983999999999992,-0.11705999999999994,-0.515,-0.21999999999999997,0.020000000000000018,0.18103999999999987,0.16125999999999996,-0.049919999999999964,1742249964.3089411
-0.245,0.3999999999999999,-0.31000000000000005,-0.021120000000000028,-0.27294000000000007,-0.023320000000000007,-0.635,-0.12,-0.265,-0.05113999999999996,0.0023200000000000998,0.0039000000000000146,1742249964.413141
-0.04500000000000004,0.32499999999999996,0.17500000000000004,0.03747999999999996,-0.009279999999999955,-0.02624000000000004,-0.485,-0.21499999999999997,-0.09999999999999998,-0.18579999999999997,-0.1591800000000001,0.0032999999999998586,1742249964.528543
-0.06000000000000005,0.42999999999999994,-0.14500000000000002,-0.04822000000000004,0.16138000000000008,0.06666000000000016,-0.040000000000000036,-0.555,0.1499999999999999,-0.06286000000000003,-0.03942000000000001,0.012320000000000109,1742249964.649556
-0.21999999999999997,0.44500000000000006,-0.255,-0.028940000000000077,-0.0043999999999999595,0.021479999999999944,-0.29000000000000004,-0.27,-0.03500000000000003,0.11438000000000015,0.07433999999999985,-0.022700000000000053,1742249964.755152
-0.18999999999999995,0.54,-0.13,0.13256,-0.09522000000000008,-0.053220000000000045,-0.42500000000000004,-0.29499999999999993,-0.15000000000000002,0.1297600000000001,0.10973999999999995,-0.03076000000000001,1742249964.8691142
-0.135,0.5150000000000001,-0.0050000000000000044,0.043220000000000036,-0.09277999999999997,-0.04798000000000002,-0.58,-0.16000000000000003,-0.21499999999999997,-0.06725999999999999,0.002080000000000082,-0.019039999999999946,1742249964.9878771
-0.15000000000000002,0.44500000000000006,0.03499999999999992,-0.016720000000000068,0.01770000000000005,0.006960000000000077,-0.345,-0.30000000000000004,-0.245,-0.10314000000000001,-0.20704,0.01758000000000015,1742249965.1075132
-0.20499999999999996,0.51,-0.0050000000000000044,-0.10741999999999996,0.15026000000000006,0.009519999999999973,-0.275,-0.33000000000000007,-0.06499999999999995,0.08068000000000008,0.011360000000000037,-0.0075599999999999,1742249965.2122052
-0.18500000000000005,0.5550000000000002,-0.12,0.035880000000000134,0.02635999999999994,-0.06922000000000006,-0.355,-0.265,-0.15000000000000002,0.17613999999999996,0.09448000000000012,-0.04908000000000001,1742249965.3282602
-0.13,0.45999999999999996,0.050000000000000044,-0.053220000000000045,-0.13037999999999994,0.016960000000000086,-0.535,-0.16500000000000004,-0.21499999999999997,0.06529999999999991,0.08728000000000002,-0.03846000000000005,1742249965.44827
-0.040000000000000036,0.395,0.06499999999999995,0.04405999999999999,-0.06347999999999998,-0.007200000000000095,-0.525,-0.20499999999999996,-0.14500000000000002,-0.06372,-0.042120000000000046,-0.038940000000000086,1742249965.553333
-0.08999999999999997,0.355,-0.04500000000000004,-0.012940000000000063,-0.03637999999999997,0.08507999999999982,-0.30499999999999994,-0.39,-0.030000000000000027,-0.10875999999999997,-0.08641999999999994,-0.01636000000000004,1742249965.6696162
-0.265,0.42500000000000004,-0.07000000000000006,-0.019159999999999955,0.09045999999999998,0.1224400000000001,-0.33000000000000007,-0.30499999999999994,-0.04500000000000004,0.06042000000000014,0.018799999999999928,-0.01305999999999996,1742249965.788388
-0.33000000000000007,0.56,-0.125,0.06982,0.012199999999999989,-0.03198000000000001,-0.53,-0.17000000000000004,-0.17500000000000004,0.09301999999999988,0.10985999999999985,-0.058479999999999976,1742249965.8952582
-0.22499999999999998,0.42500000000000004,-0.015000000000000013,0.07946000000000009,-0.11402000000000001,-0.10218000000000005,-0.6,-0.06000000000000005,-0.16000000000000003,-0.07250000000000001,0.0012199999999999989,-0.0041599999999999415,1742249966.009116
-0.19500000000000006,0.42999999999999994,0.07499999999999996,-0.07422000000000006,0.019279999999999964,0.02635999999999994,-0.355,-0.235,-0.18500000000000005,-0.11705999999999994,-0.15186,-0.0029199999999999227,1742249966.127848
-0.32000000000000006,0.4750000000000001,-0.07999999999999996,-0.07850000000000001,0.08790000000000009,0.08203999999999989,-0.33000000000000007,-0.30000000000000004,-0.08499999999999996,0.038819999999999855,0.021479999999999944,-0.0047599999999999865,1742249966.237044
-0.30000000000000004,0.56,-0.125,-0.025399999999999978,-0.0009799999999999809,0.016240000000000032,-0.36,-0.22999999999999998,-0.135,0.13318000000000008,0.037719999999999976,-0.04700000000000004,1742249966.351043
-0.275,0.45500000000000007,-0.030000000000000027,-0.04077999999999993,-0.05346000000000006,-0.044320000000000026,-0.615,-0.12,-0.21999999999999997,0.0023200000000000998,0.05809999999999982,0.03992000000000018,1742249966.4680982
-0.135,0.3400000000000001,0.010000000000000009,0.08299999999999996,-0.052120000000000055,-0.044320000000000026,-0.56,-0.125,-0.21499999999999997,-0.09911999999999999,-0.10411999999999999,0.012199999999999989,1742249966.587671
-0.17500000000000004,0.3900000000000001,0.004999999999999893,-0.016000000000000014,0.03051999999999988,-0.008419999999999983,-0.245,-0.33499999999999996,-0.040000000000000036,-0.13964,-0.10620000000000007,0.03845999999999994,1742249966.693103
-0.31499999999999995,0.4650000000000001,-0.10499999999999998,0.026000000000000023,0.13561999999999985,0.08055999999999996,-0.375,-0.29000000000000004,-0.07999999999999996,0.013919999999999932,0.03735999999999984,0.03516000000000008,1742249966.808344
-0.245,0.5049999999999999,-0.09999999999999998,0.05479999999999996,0.07177999999999995,-0.04822000000000004,-0.485,-0.28,-0.10499999999999998,0.07323999999999997,0.10450000000000004,0.05164000000000013,1742249966.927449
-0.19999999999999996,0.3599999999999999,-0.19500000000000006,-0.01415999999999995,-0.11815999999999993,-0.06579999999999997,-0.675,-0.07499999999999996,-0.31499999999999995,-0.04405999999999999,0.02222000000000013,0.022460000000000147,1742249967.035043
-0.125,0.355,0.125,-0.013799999999999923,-0.024660000000000015,-0.023799999999999932,-0.39,-0.22499999999999998,-0.05500000000000005,-0.13160000000000005,-0.13366,0.03625999999999996,1742249967.149072
-0.275,0.4950000000000001,-0.020000000000000018,-0.09802,0.14525999999999994,0.04735999999999985,-0.15000000000000002,-0.41999999999999993,0.09000000000000008,0.03210000000000002,-0.0041599999999999415,-0.027840000000000087,1742249967.267785
-0.31000000000000005,0.54,-0.2849999999999999,-0.011840000000000073,0.019160000000000066,0.0343,-0.365,-0.28,-0.015000000000000013,0.08496000000000015,0.1248800000000001,0.02171999999999996,1742249967.376927
-0.21999999999999997,0.41500000000000004,-0.07000000000000006,-0.16161999999999999,-0.18616,-0.01648000000000005,-0.59,-0.20999999999999996,-0.26,0.07044000000000006,0.11241999999999996,-0.03260000000000007,1742249967.491136
-0.09499999999999997,0.385,0.014999999999999902,0.035760000000000014,-0.04052,-0.08008000000000004,-0.57,-0.14500000000000002,-0.29000000000000004,-0.08118000000000003,-0.06934000000000007,0.0283199999999999,1742249967.607383
-0.12,0.41500000000000004,0.014999999999999902,-0.07496000000000003,0.03649999999999998,0.011360000000000037,-0.33499999999999996,-0.29000000000000004,-0.20499999999999996,-0.07665999999999995,-0.1372000000000001,0.03051999999999988,1742249967.726455
-0.10499999999999998,0.44999999999999996,-0.125,-0.049919999999999964,0.0283199999999999,0.06835999999999998,-0.275,-0.33499999999999996,-0.08999999999999997,0.08898000000000006,0.030019999999999936,-0.02844000000000002,1742249967.832903
-0.22999999999999998,0.5350000000000001,-0.07000000000000006,0.025020000000000042,-0.005240000000000022,0.017220000000000013,-0.48,-0.245,-0.06499999999999995,0.15563999999999978,0.11621999999999999,-0.0795800000000001,1742249967.947697
-0.245,0.4650000000000001,-0.08499999999999996,0.1299999999999999,-0.10108000000000006,-0.006099999999999994,-0.715,-0.08999999999999997,-0.32000000000000006,-0.037719999999999976,0.0047600000000000975,0.008920000000000039,1742249968.067349
-0.125,0.3799999999999999,0.14000000000000012,-0.0035399999999999876,0.016000000000000014,-0.030019999999999936,-0.405,-0.20499999999999996,-0.09499999999999997,-0.14537999999999995,-0.12791999999999992,0.04090000000000016,1742249968.17502
-0.29499999999999993,0.5049999999999999,0.020000000000000018,-0.12341999999999997,0.14026000000000005,-0.00878000000000001,-0.050000000000000044,-0.43500000000000005,0.1299999999999999,-0.06053999999999993,-0.07311999999999996,0.043220000000000036,1742249968.2889311
-0.25,0.45999999999999996,-0.19999999999999996,-0.0502999999999999,0.08519999999999994,0.03479999999999994,-0.39,-0.29000000000000004,0.004999999999999893,0.1302399999999999,0.19873999999999992,0.08507999999999982,1742249968.407625
-0.27,0.29499999999999993,-0.06499999999999995,0.11182000000000003,-0.17028,-0.05408000000000002,-0.775,-0.16500000000000004,-0.37,0.04675999999999991,0.13305999999999996,-0.01427999999999996,1742249968.516937
-0.08999999999999997,0.3999999999999999,0.010000000000000009,-0.007320000000000104,-0.13061999999999996,-0.07811999999999997,-0.56,-0.19999999999999996,-0.275,-0.07555999999999996,-0.12012,-0.016840000000000077,1742249968.631103
-0.12,0.3999999999999999,0.0,-0.11938000000000004,0.035519999999999996,0.027959999999999985,-0.20999999999999996,-0.385,0.07499999999999996,-0.08311999999999997,-0.07835999999999999,0.018440000000000012,1742249968.747254
-0.26,0.51,-0.135,0.015740000000000087,0.08177999999999996,0.07288000000000006,-0.2849999999999999,-0.36,-0.07000000000000006,0.06555999999999984,0.014639999999999986,-0.005499999999999949,1742249968.8676
-0.20499999999999996,0.5350000000000001,-0.10499999999999998,0.17652,0.05285999999999991,-0.07555999999999996,-0.555,-0.30499999999999994,-0.09499999999999997,0.1642999999999999,0.11803999999999992,-0.054200000000000026,1742249968.972924
-0.15000000000000002,0.41500000000000004,-0.18999999999999995,-0.00048000000000003595,-0.13781999999999994,-0.05113999999999996,-0.585,-0.17500000000000004,-0.25,-0.08435999999999999,0.0009799999999999809,0.025519999999999987,1742249969.087324
-0.09999999999999998,0.3900000000000001,0.1299999999999999,0.015139999999999931,0.01195999999999997,-0.03527999999999998,-0.365,-0.29000000000000004,0.030000000000000027,-0.15772000000000008,-0.11485999999999996,0.030160000000000187,1742249969.200938
-0.22499999999999998,0.4950000000000001,-0.07000000000000006,-0.06910000000000005,0.13573999999999997,0.03210000000000002,-0.04500000000000004,-0.43500000000000005,0.15500000000000003,-0.0035399999999999876,-0.005619999999999958,-0.00878000000000001,1742249969.315017
-0.29499999999999993,0.5249999999999999,-0.255,-0.056400000000000006,0.06690000000000018,0.042240000000000055,-0.32000000000000006,-0.31000000000000005,-0.020000000000000018,0.09472000000000014,0.17236000000000007,0.0041599999999999415,1742249969.4288158
-0.17999999999999994,0.395,0.050000000000000044,-0.16527999999999998,-0.17370000000000008,0.019400000000000084,-0.625,-0.18999999999999995,-0.32499999999999996,0.08264000000000005,0.11621999999999999,0.018320000000000114,1742249969.54705
-0.08499999999999996,0.43500000000000005,0.07499999999999996,-0.010259999999999936,-0.10265999999999997,-0.07811999999999997,-0.505,-0.16500000000000004,-0.21499999999999997,-0.06689999999999996,-0.07934000000000008,-0.04858000000000007,1742249969.657112
-0.14500000000000002,0.44500000000000006,-0.015000000000000013,-0.10351999999999995,0.03614000000000006,0.05896000000000012,-0.375,-0.36,-0.26,-0.05274000000000001,-0.15379999999999994,-0.010379999999999945,1742249969.771091
-0.10999999999999999,0.45500000000000007,-0.13,-0.047599999999999976,0.0040199999999999125,0.07323999999999997,-0.37,-0.31000000000000005,-0.125,0.05054000000000003,0.022580000000000044,0.026000000000000023,1742249969.888617
-0.22999999999999998,0.5899999999999999,-0.11499999999999999,0.0611600000000001,0.06407999999999991,-0.03382000000000007,-0.2849999999999999,-0.275,0.03499999999999992,0.15954000000000002,0.08081999999999989,-0.022700000000000053,1742249970.007539
-0.19500000000000006,0.4750000000000001,-0.21999999999999997,0.06957999999999998,-0.10560000000000003,-0.11450000000000005,-0.645,-0.07999999999999996,-0.345,-0.05396000000000001,0.06603999999999988,0.12390000000000012,1742249970.112834
-0.025000000000000022,0.385,0.1499999999999999,0.024780000000000024,0.017819999999999947,-0.08496000000000004,-0.41500000000000004,-0.2849999999999999,-0.20499999999999996,-0.10839999999999994,-0.1521,-0.017080000000000095,1742249970.22707
-0.18999999999999995,0.4750000000000001,-0.06499999999999995,-0.058719999999999994,0.14172000000000007,0.053220000000000045,-0.05500000000000005,-0.4650000000000001,0.20500000000000007,-0.04455999999999993,-0.06946000000000008,-0.029779999999999918,1742249970.347306
-0.28,0.51,-0.20499999999999996,-0.016240000000000032,0.08216000000000001,0.07469999999999999,-0.3400000000000001,-0.35,-0.04500000000000004,0.12768000000000002,0.09582000000000002,0.04272000000000009,1742249970.454775
-0.22499999999999998,0.4750000000000001,-0.10999999999999999,0.09411999999999998,-0.15674,-0.037959999999999994,-0.52,-0.17999999999999994,-0.17500000000000004,0.14305999999999996,0.15295999999999998,-0.021720000000000073,1742249970.568828
-0.06499999999999995,0.3500000000000001,-0.06499999999999995,0.09899999999999998,-0.09423999999999999,-0.06518000000000002,-0.56,-0.15000000000000002,-0.265,-0.12890000000000001,-0.009519999999999973,-0.02624000000000004,1742249970.690016
-0.14500000000000002,0.45500000000000007,0.05499999999999994,-0.10887999999999998,0.022580000000000044,0.03516000000000008,-0.275,-0.385,-0.040000000000000036,-0.10375999999999996,-0.1641800000000001,0.025760000000000005,1742249970.796944
-0.135,0.45500000000000007,-0.125,-0.11646000000000001,0.08557999999999999,0.05176000000000003,-0.29499999999999993,-0.345,-0.07999999999999996,0.08044000000000007,0.007319999999999993,0.02088000000000001,1742249970.910729
-0.235,0.5550000000000002,-0.10999999999999999,0.14466,0.03685999999999989,-0.06835999999999998,-0.41999999999999993,-0.28,-0.135,0.13695999999999997,0.1533199999999999,-0.07740000000000002,1742249971.0274172
-0.21499999999999997,0.2749999999999999,0.28,-0.03210000000000002,0.07177999999999995,0.011360000000000037,-0.555,-0.31000000000000005,-0.395,-0.11072000000000004,-0.20287999999999995,0.02868000000000004,1742258681.932986
-0.58,0.31499999999999995,-0.06499999999999995,0.07397999999999993,0.23583999999999983,0.1423399999999999,0.27,-0.385,0.020000000000000018,0.004999999999999893,0.009160000000000057,-0.012460000000000027,1742258682.0465422
-0.42500000000000004,0.30499999999999994,-0.18999999999999995,0.02391999999999994,-0.23462000000000005,-0.07128000000000001,-0.535,-0.33499999999999996,-0.21999999999999997,0.15551999999999988,0.33177999999999996,-0.0650599999999999,1742258682.160744
-0.26,0.21500000000000008,0.345,-0.032340000000000035,0.030279999999999863,-0.0010999999999999899,-0.625,-0.31000000000000005,-0.44500000000000006,-0.03527999999999998,-0.16455999999999993,-0.06372,1742258682.275261
-0.44500000000000006,0.29499999999999993,-0.0050000000000000044,-0.07713999999999999,0.19324000000000008,0.14513999999999982,0.21999999999999997,-0.42500000000000004,0.020000000000000018,-0.021360000000000046,-0.09411999999999998,-0.06910000000000005,1742258682.394285
-0.48,0.30499999999999994,-0.25,0.07740000000000014,-0.08874000000000004,-0.06981999999999988,-0.42999999999999994,-0.33499999999999996,-0.19999999999999996,0.08435999999999999,0.3698800000000002,0.03601999999999994,1742258682.502656
-0.19999999999999996,0.20999999999999996,0.27,0.05821999999999994,-0.05628,-0.08948,-0.755,-0.07999999999999996,-0.475,-0.08704,-0.09204000000000001,0.01110000000000011,1742258682.6167748
-0.255,0.2749999999999999,0.09000000000000008,-0.18628,-0.00012000000000000899,0.07728000000000002,-0.030000000000000027,-0.16000000000000003,-0.135,-0.060919999999999974,-0.2529199999999999,-0.006960000000000077,1742258682.735042
-0.615,0.56,-0.16500000000000004,0.059940000000000104,-0.13061999999999996,0.03942000000000001,-0.020000000000000018,-0.44999999999999996,-0.14,0.0895999999999999,0.10206000000000004,0.006599999999999939,1742258682.844543
-0.345,0.405,0.18500000000000005,0.06738000000000022,-0.10753999999999997,-0.15870000000000006,-0.75,-0.21499999999999997,-0.44999999999999996,0.08543999999999996,0.15052,0.045660000000000034,1742258682.9585469
-0.17500000000000004,0.2749999999999999,0.24,-0.07299999999999995,0.037959999999999994,0.02540000000000009,-0.39,-0.28,-0.19999999999999996,-0.20984000000000003,-0.26172000000000006,0.1212200000000001,1742258683.073884
-0.515,0.33499999999999996,-0.04500000000000004,-0.08814,0.12817999999999996,0.22998000000000007,0.17500000000000004,-0.36,-0.03500000000000003,0.006220000000000114,-0.008539999999999992,-0.06529999999999991,1742258683.18677
-0.43500000000000005,0.4099999999999999,-0.10499999999999998,0.04174000000000011,-0.22155999999999998,-0.11194000000000004,-0.625,-0.36,-0.33000000000000007,0.18652000000000002,0.30932000000000004,-0.10498000000000007,1742258683.300656
-0.19999999999999996,0.15500000000000003,0.3700000000000001,-0.04736000000000007,0.008179999999999854,-0.0035399999999999876,-0.58,-0.25,-0.44999999999999996,-0.03051999999999999,-0.17834000000000005,-0.048820000000000086,1742258683.414808
-0.47,0.30000000000000004,-0.030000000000000027,-0.07835999999999999,0.17503999999999986,0.10253999999999985,0.05499999999999994,-0.38,-0.05500000000000005,-0.10289999999999999,-0.13648000000000005,-0.06774000000000002,1742258683.5332422
-0.505,0.3500000000000001,-0.17000000000000004,0.02844000000000002,-0.03698000000000001,-0.09155999999999997,-0.385,-0.33499999999999996,-0.07000000000000006,0.08935999999999988,0.33924,-0.006220000000000003,1742258683.64266
-0.18500000000000005,0.29000000000000004,0.625,-0.022820000000000062,-0.03882000000000008,-0.07264000000000004,-0.495,-0.09999999999999998,-0.275,-0.05018,-0.09924,0.04064000000000001,1742258683.756763
-0.345,0.2450000000000001,0.04499999999999993,-0.06896000000000002,0.11976000000000009,0.09716000000000014,-0.04500000000000004,-0.245,-0.135,-0.032480000000000064,-0.15991999999999995,-0.047860000000000014,1742258683.875554
-0.515,0.3900000000000001,0.02499999999999991,0.04357999999999995,0.07885999999999993,-0.012580000000000036,-0.17500000000000004,-0.37,0.014999999999999902,0.04479999999999995,0.17578000000000005,0.03051999999999988,1742258683.9844658
-0.27,0.21999999999999997,0.23499999999999988,0.04200000000000004,-0.10253999999999996,-0.14537999999999995,-0.725,-0.18999999999999995,-0.52,-0.01537999999999995,0.026739999999999986,0.12707999999999986,1742258684.098594
-0.14,0.21500000000000008,0.11499999999999999,-0.11268000000000011,0.01097999999999999,0.020999999999999908,-0.25,-0.15000000000000002,-0.17000000000000004,-0.1852999999999999,-0.22802,0.13892000000000015,1742258684.215513
-0.53,0.355,-0.14500000000000002,-0.027100000000000013,0.10827999999999993,0.1691800000000001,0.1299999999999999,-0.43999999999999995,0.030000000000000027,-0.029899999999999927,-0.027100000000000013,-0.008539999999999992,1742258684.326661
-0.39,0.405,-0.15500000000000003,-0.01415999999999995,-0.26927999999999996,-0.07116,-0.49,-0.395,-0.32000000000000006,0.14148000000000005,0.21411999999999987,-0.11839999999999995,1742258684.4406762
-0.18500000000000005,0.24,0.22999999999999998,0.059940000000000104,0.04161999999999999,-0.02088000000000001,-0.505,-0.22999999999999998,-0.29499999999999993,-0.009759999999999991,-0.08311999999999997,-0.03149999999999997,1742258684.555478
-0.45500000000000007,0.3900000000000001,0.050000000000000044,-0.17431999999999992,0.12146000000000012,0.08311999999999986,-0.025000000000000022,-0.365,0.0,0.04090000000000016,-0.18018000000000012,-0.08801999999999999,1742258684.674817
-0.505,0.41999999999999993,-0.10999999999999999,0.07983999999999991,-0.0024400000000001087,-0.07740000000000002,-0.21499999999999997,-0.41500000000000004,-0.030000000000000027,0.10009999999999986,0.23156,0.0035399999999998766,1742258684.782832
-0.255,0.22999999999999998,0.050000000000000044,-0.05065999999999993,-0.14246000000000003,-0.05274000000000001,-0.64,-0.13,-0.525,-0.017220000000000013,-0.0022000000000000908,0.08007999999999993,1742258684.89678
-0.25,0.30000000000000004,0.10499999999999998,-0.03355999999999992,0.08898000000000006,0.08654000000000006,-0.11499999999999999,-0.21999999999999997,-0.14500000000000002,0.008179999999999854,-0.19396000000000002,-0.07579999999999998,1742258685.014708
-0.575,0.4849999999999999,-0.17999999999999994,-0.05884,-0.055299999999999905,0.05274000000000001,-0.010000000000000009,-0.4099999999999999,-0.10999999999999999,0.0684800000000001,0.09448000000000012,0.016119999999999912,1742258685.124587
-0.30000000000000004,0.29000000000000004,0.16999999999999993,0.20031999999999983,-0.0549400000000001,-0.10974000000000006,-0.73,-0.24,-0.555,-0.015619999999999967,0.07031999999999994,0.06591999999999998,1742258685.23869
-0.17999999999999994,0.29000000000000004,0.1200000000000001,-0.11718000000000006,0.04150000000000009,0.03210000000000002,-0.32000000000000006,-0.28,-0.19500000000000006,-0.11120000000000008,-0.20594,0.028799999999999937,1742258685.354967
-0.4,0.30000000000000004,-0.050000000000000044,-0.04747999999999997,0.058339999999999836,0.08264000000000005,0.030000000000000027,-0.395,-0.12,0.049919999999999964,0.01415999999999995,-0.03601999999999994,1742258685.466553
-0.395,0.395,0.08499999999999996,0.05455999999999994,-0.12231999999999998,-0.09216000000000002,-0.44999999999999996,-0.31000000000000005,-0.30499999999999994,0.10155999999999987,0.20043999999999995,-0.0017000000000000348,1742258685.580572
-0.20999999999999996,0.23499999999999988,0.25,0.09594000000000014,0.047719999999999985,-0.04613999999999996,-0.43999999999999995,-0.135,-0.29000000000000004,0.02088000000000001,-0.10411999999999999,-0.053220000000000045,1742258685.6953862
-0.4,0.32499999999999996,0.10000000000000009,-0.10803999999999991,0.05615999999999999,0.13050000000000006,-0.14,-0.29499999999999993,-0.275,0.013419999999999987,-0.09655999999999998,-0.06591999999999998,1742258685.8086772
-0.515,0.41999999999999993,0.014999999999999902,0.030160000000000187,0.019160000000000066,-0.022820000000000062,-0.13,-0.355,-0.14,-0.010000000000000009,0.1533199999999999,0.09094000000000002,1742258685.922574
-0.30499999999999994,0.29000000000000004,0.1200000000000001,0.07250000000000001,-0.03736000000000006,-0.12181999999999993,-0.675,-0.17999999999999994,-0.515,0.0019599999999999618,0.04699999999999993,0.025760000000000005,1742258686.036822
-0.22499999999999998,0.28,0.1499999999999999,-0.14636000000000005,0.00550000000000006,0.04638000000000009,-0.17500000000000004,-0.18500000000000005,-0.10999999999999999,-0.11268000000000011,-0.19555999999999996,0.03051999999999988,1742258686.1567402
-0.53,0.3900000000000001,-0.135,-0.035760000000000014,0.00878000000000001,0.07922000000000007,-0.09999999999999998,-0.3400000000000001,-0.19999999999999996,0.04394000000000009,0.08118000000000003,-0.025519999999999987,1742258686.264588
-0.365,0.3400000000000001,0.04499999999999993,0.14954,-0.09765999999999997,-0.12512,-0.515,-0.30499999999999994,-0.42999999999999994,0.05884,0.056640000000000024,0.05553999999999992,1742258686.3785
-0.255,0.27,0.25,-0.08704,-0.01855999999999991,0.016240000000000032,-0.475,-0.30000000000000004,-0.475,-0.053220000000000045,-0.13231999999999988,-0.06274000000000002,1742258686.4966772
-0.44500000000000006,0.3400000000000001,0.014999999999999902,-0.2314400000000001,0.03833999999999982,0.08618000000000015,-0.17500000000000004,-0.41500000000000004,-0.32499999999999996,-0.012580000000000036,-0.13939999999999997,-0.04394000000000009,1742258686.606785
-0.495,0.41999999999999993,-0.07499999999999996,-0.00988,-0.03870000000000007,-0.025639999999999996,-0.17999999999999994,-0.31499999999999995,-0.16500000000000004,-0.04955999999999994,0.16724000000000006,0.10694000000000004,1742258686.720597
-0.265,0.25,0.18999999999999995,-0.0041599999999999415,-0.07189999999999996,-0.10997999999999997,-0.58,-0.18999999999999995,-0.535,-0.03637999999999997,-0.046760000000000024,0.09227999999999992,1742258686.841119
-0.10999999999999999,0.20500000000000007,0.18999999999999995,-0.19189999999999996,0.06567999999999996,0.014399999999999968,-0.18999999999999995,-0.235,-0.22499999999999998,-0.18603999999999998,-0.24134,0.12220000000000009,1742258686.957193
-0.49,0.41999999999999993,-0.18999999999999995,0.07409999999999983,0.07555999999999985,0.1038800000000002,0.050000000000000044,-0.385,-0.10499999999999998,0.06445999999999996,0.11583999999999994,-0.02855999999999992,1742258687.062528
-0.4,0.42500000000000004,0.014999999999999902,0.11621999999999999,-0.15013999999999994,-0.12585999999999997,-0.48,-0.35,-0.475,0.16125999999999996,0.16822000000000004,-0.046640000000000015,1742258687.177418
-0.24,0.20999999999999996,0.25,0.059940000000000104,0.0638399999999999,-0.03064,-0.395,-0.22999999999999998,-0.38,-0.04405999999999999,-0.08544000000000007,-0.03748000000000007,1742258687.290792
-0.38,0.2650000000000001,0.06499999999999995,-0.18164000000000002,0.06678000000000006,0.0920399999999999,-0.10999999999999999,-0.33000000000000007,-0.43999999999999995,0.02429999999999999,-0.08165999999999995,-0.06446000000000007,1742258687.404706
-0.525,0.41500000000000004,-0.10499999999999998,-0.10327999999999993,-0.05786000000000002,0.04027999999999987,-0.06499999999999995,-0.37,-0.17999999999999994,0.019160000000000066,0.0966800000000001,0.01415999999999995,1742258687.5187268
-0.2849999999999999,0.27,0.004999999999999893,0.15490000000000004,-0.06298000000000004,-0.15064,-0.44999999999999996,-0.37,-0.44500000000000006,0.10411999999999999,0.13928000000000007,-0.027959999999999985,1742258687.637889
-0.21499999999999997,0.2849999999999999,0.31499999999999995,-0.03979999999999995,0.03405999999999998,-0.008059999999999956,-0.38,-0.32499999999999996,-0.44500000000000006,-0.07665999999999995,-0.17700000000000005,0.013800000000000034,1742258687.746732
-0.53,0.45500000000000007,-0.04500000000000004,-0.19616,0.09472000000000014,0.14294000000000007,-0.11499999999999999,-0.41500000000000004,-0.41999999999999993,0.10607999999999995,-0.1420800000000001,-0.1493,1742258687.86071
-0.475,0.45999999999999996,-0.040000000000000036,0.024900000000000144,-0.04259999999999997,-0.022820000000000062,-0.11499999999999999,-0.36,-0.15000000000000002,0.017079999999999984,0.1689400000000001,0.03820000000000001,1742258687.9774048
-0.31000000000000005,0.32499999999999996,0.1200000000000001,0.14061999999999997,-0.06981999999999988,-0.09655999999999998,-0.5,-0.245,-0.495,0.10265999999999997,0.06335999999999986,-0.02758000000000005,1742258688.08922
-0.235,0.30000000000000004,0.20500000000000007,-0.0907,0.03980000000000006,0.04150000000000009,-0.30000000000000004,-0.3400000000000001,-0.3400000000000001,-0.13366,-0.13196000000000008,0.036739999999999995,1742258688.2027469
-0.44500000000000006,0.4099999999999999,-0.07499999999999996,-0.08923999999999999,0.008419999999999872,0.07618000000000014,-0.025000000000000022,-0.41999999999999993,-0.06000000000000005,0.00024000000000001798,-0.02307999999999999,-0.02088000000000001,1742258688.3210728
-0.4,0.45999999999999996,-0.06000000000000005,-0.023799999999999932,-0.07128000000000001,-0.06713999999999998,-0.18999999999999995,-0.29000000000000004,-0.265,-0.03967999999999994,0.14148000000000005,0.08081999999999989,1742258688.438569
-0.21999999999999997,0.31000000000000005,0.3999999999999999,0.07603999999999989,0.008179999999999854,-0.06347999999999998,-0.41500000000000004,-0.20499999999999996,-0.41500000000000004,-0.006099999999999994,-0.10314000000000001,0.007079999999999975,1742258688.544617
-0.275,0.2650000000000001,0.06000000000000005,-0.03283999999999998,0.08448000000000011,0.13892000000000015,-0.18500000000000005,-0.19999999999999996,-0.255,-0.005859999999999976,-0.14770000000000005,-0.057740000000000014,1742258688.658877
-0.515,0.43500000000000005,-0.15000000000000002,-0.03491999999999995,-0.02088000000000001,0.07055999999999996,-0.08999999999999997,-0.395,-0.17500000000000004,-0.0009799999999999809,0.1038800000000002,0.034660000000000135,1742258688.779684
-0.405,0.45999999999999996,0.05499999999999994,0.2058199999999999,-0.04724000000000006,-0.13537999999999994,-0.37,-0.37,-0.395,0.06225999999999998,0.13476,0.05809999999999982,1742258688.886517
-0.21499999999999997,0.28,0.16500000000000004,0.11583999999999994,0.005740000000000078,-0.059940000000000104,-0.41999999999999993,-0.20499999999999996,-0.44500000000000006,0.008539999999999992,-0.028679999999999928,-0.018059999999999965,1742258689.0005991
-0.385,0.27,0.1200000000000001,0.06800000000000006,0.11426000000000003,0.11280000000000001,-0.19500000000000006,-0.17500000000000004,-0.26,-0.00048000000000003595,-0.11803999999999992,-0.08177999999999996,1742258689.1175811
-0.52,0.375,-0.030000000000000027,0.016839999999999966,0.0709200000000001,0.060799999999999965,-0.010000000000000009,-0.4650000000000001,-0.19999999999999996,0.01966000000000001,0.013419999999999987,-0.0043999999999999595,1742258689.2383602
-0.4099999999999999,0.41999999999999993,0.03499999999999992,-0.03736000000000006,-0.13964,0.01195999999999997,-0.21999999999999997,-0.3400000000000001,-0.22499999999999998,-0.0008599999999999719,0.16076000000000001,0.08728000000000002,1742258689.342816
-0.265,0.345,0.30000000000000004,0.0009799999999999809,-0.05834000000000006,-0.041139999999999954,-0.515,-0.135,-0.535,0.06567999999999996,0.006960000000000077,-0.06458000000000008,1742258689.458729
-0.30499999999999994,0.27,0.21500000000000008,-0.10033999999999998,0.08397999999999994,0.06994000000000011,-0.20999999999999996,-0.16500000000000004,-0.30000000000000004,-0.08165999999999995,-0.16113999999999995,0.04614000000000007,1742258689.577971
-0.59,0.4650000000000001,-0.16000000000000003,-0.10986000000000007,0.017079999999999984,0.051020000000000065,-0.015000000000000013,-0.43999999999999995,-0.16000000000000003,0.06018000000000012,-0.012940000000000063,0.052240000000000064,1742258689.684515
-0.405,0.41500000000000004,0.09000000000000008,0.14368000000000003,-0.09045999999999998,-0.14246000000000003,-0.31000000000000005,-0.24,-0.375,0.062019999999999964,0.11352000000000007,0.11768,1742258689.801575
-0.20499999999999996,0.2650000000000001,0.32000000000000006,0.05761999999999978,-0.02185999999999999,-0.07629999999999992,-0.44500000000000006,-0.16500000000000004,-0.45999999999999996,-0.05712000000000006,-0.10950000000000004,-0.033440000000000025,1742258689.919342
-0.31000000000000005,0.27,0.04499999999999993,-0.13598,0.10851999999999995,0.12109999999999999,-0.15500000000000003,-0.27,-0.2849999999999999,-0.049799999999999955,-0.10997999999999997,-0.09008000000000005,1742258690.026784
-0.44999999999999996,0.42999999999999994,-0.08999999999999997,-0.016000000000000014,-0.046499999999999986,0.00770000000000004,-0.040000000000000036,-0.345,-0.18999999999999995,0.033560000000000034,0.1177999999999999,0.04809999999999981,1742258690.140577
-0.25,0.33000000000000007,0.23499999999999988,0.10021999999999998,-0.06774000000000002,-0.12438000000000005,-0.5,-0.135,-0.475,0.0007399999999999629,0.06285999999999992,0.021479999999999944,1742258690.2602198
-0.21999999999999997,0.30000000000000004,0.23499999999999988,-0.0700599999999999,0.03942000000000001,0.028079999999999883,-0.31000000000000005,-0.27,-0.42500000000000004,-0.07862000000000002,-0.12658000000000003,-0.026000000000000023,1742258690.379433
-0.385,0.395,0.030000000000000027,-0.10644000000000009,0.03807999999999989,0.10474000000000006,0.08000000000000007,-0.405,-0.09499999999999997,0.036739999999999995,0.025640000000000107,-0.033440000000000025,1742258690.482715
-0.42999999999999994,0.365,-0.07000000000000006,0.15002000000000004,0.016960000000000086,-0.04920000000000002,-0.18999999999999995,-0.30499999999999994,-0.25,-0.03698000000000001,0.14954,0.16138000000000008,1742258690.600016
-0.265,0.345,0.2849999999999999,0.05920000000000014,-0.046760000000000024,-0.10974000000000006,-0.505,-0.19500000000000006,-0.55,-0.045539999999999914,-0.05479999999999996,0.07996000000000003,1742258690.719342
-0.20999999999999996,0.2549999999999999,0.18500000000000005,-0.06946000000000008,0.05455999999999994,0.020140000000000047,-0.20499999999999996,-0.27,-0.30000000000000004,-0.060659999999999936,-0.11218000000000006,-0.022220000000000018,1742258690.824757
-0.41999999999999993,0.375,-0.020000000000000018,-0.02525999999999995,0.03723999999999994,0.06103999999999998,0.0,-0.4,-0.24,0.052240000000000064,0.020019999999999927,-0.013679999999999914,1742258690.940168
-0.35,0.44999999999999996,0.14000000000000012,0.031500000000000083,-0.1127999999999999,-0.12084000000000006,-0.33499999999999996,-0.30000000000000004,-0.395,0.08972000000000002,0.1461199999999998,0.03917999999999999,1742258691.061609
-0.20999999999999996,0.2549999999999999,0.345,-0.0017000000000000348,0.06835999999999998,-0.010619999999999963,-0.345,-0.22999999999999998,-0.4099999999999999,-0.043460000000000054,-0.10218000000000005,-0.027840000000000087,1742258691.167546
-0.3400000000000001,0.26,0.06000000000000005,-0.17346000000000006,0.04747999999999997,0.14892000000000016,0.06000000000000005,-0.4099999999999999,-0.14500000000000002,0.07335999999999987,-0.06359999999999999,-0.15466000000000002,1742258691.282374
-0.4,0.4750000000000001,0.02499999999999991,0.01953999999999989,-0.07823999999999998,-0.06811999999999996,-0.18500000000000005,-0.275,-0.275,-0.02501999999999993,0.1788399999999999,0.1165799999999999,1742258691.400747
-0.18500000000000005,0.2849999999999999,0.42999999999999994,0.08704,0.00770000000000004,-0.07335999999999998,-0.385,-0.15000000000000002,-0.4,-0.04846000000000006,-0.12,-0.0041599999999999415,1742258691.5093608
