L-AccX,L-AccY,L-AccZ,L-GyrX,L-GyrY,L-GyrZ,R-AccX,R-AccY,R-AccZ,R-GyrX,R-GyrY,R-GyrZ,timestamp
-0.31000000000000005,0.42500000000000004,0.2549999999999999,0.10777999999999999,-0.10486000000000006,0.041380000000000194,-0.29000000000000004,0.020000000000000018,-0.45500000000000007,0.09007999999999994,0.011479999999999935,-0.044440000000000035,1742248683.586254
-0.26,0.385,0.25,0.14136000000000015,-0.015739999999999976,-0.09777999999999998,-0.32499999999999996,-0.050000000000000044,-0.43500000000000005,0.07603999999999989,-0.016120000000000023,0.0,1742248683.692671
-0.275,0.3400000000000001,0.2749999999999999,0.05261999999999989,-0.08105999999999991,-0.014039999999999941,-0.30000000000000004,-0.020000000000000018,-0.44500000000000006,0.030019999999999936,-0.0006199999999999539,0.03381999999999996,1742248683.806657
-0.29000000000000004,0.2749999999999999,0.2549999999999999,0.013539999999999885,-0.07264000000000004,-0.02415999999999996,-0.255,0.014999999999999902,-0.42999999999999994,0.006720000000000059,0.024660000000000126,0.03833999999999982,1742248683.922771
-0.31499999999999995,0.2749999999999999,0.2549999999999999,-0.0048799999999999955,-0.04834000000000005,0.009759999999999991,-0.2849999999999999,0.020000000000000018,-0.43999999999999995,0.0040199999999999125,0.009279999999999955,0.00048000000000003595,1742248684.034618
-0.33499999999999996,0.29000000000000004,0.17500000000000004,0.030160000000000187,-0.032480000000000064,0.03723999999999994,-0.29000000000000004,-0.025000000000000022,-0.375,0.00024000000000001798,-0.016120000000000023,-0.010739999999999972,1742248684.148748
-0.30499999999999994,0.29000000000000004,0.19999999999999996,-0.0009799999999999809,-0.0045199999999999685,0.0040199999999999125,-0.26,-0.0050000000000000044,-0.4099999999999999,-0.022700000000000053,-0.0008599999999999719,0.01953999999999989,1742248684.262818
-0.31499999999999995,0.28,0.21999999999999997,0.009640000000000093,0.004999999999999893,0.010259999999999936,-0.26,0.010000000000000009,-0.395,0.02416000000000018,0.005120000000000013,-0.03405999999999998,1742248684.382526
-0.32000000000000006,0.2749999999999999,0.20500000000000007,-0.0035399999999999876,-0.019159999999999955,0.03649999999999998,-0.28,0.0,-0.41500000000000004,0.044319999999999915,0.015139999999999931,-0.03491999999999995,1742248684.49062
-0.3400000000000001,0.29499999999999993,0.20999999999999996,0.006720000000000059,-0.005739999999999967,0.02307999999999999,-0.2849999999999999,0.020000000000000018,-0.42500000000000004,0.049799999999999844,-0.0045199999999999685,-0.010000000000000009,1742248684.606913
-0.345,0.2749999999999999,0.20999999999999996,0.02416000000000018,-0.0006199999999999539,0.029779999999999918,-0.26,0.06499999999999995,-0.4,0.07020000000000004,-0.01867999999999992,-0.04188000000000003,1742248684.72284
-0.35,0.2250000000000001,0.19500000000000006,0.023560000000000025,0.02088000000000001,0.0626199999999999,-0.255,0.10499999999999998,-0.4099999999999999,0.04968000000000017,0.0018400000000000638,-0.04077999999999993,1742248684.832594
-0.395,0.2250000000000001,0.23499999999999988,-0.006840000000000068,-0.0122000000000001,0.03723999999999994,-0.28,0.14000000000000012,-0.405,0.048699999999999966,0.0026800000000000157,-0.03979999999999995,1742248684.94657
-0.405,0.2250000000000001,0.2250000000000001,0.00035999999999991594,-0.012700000000000045,0.013679999999999914,-0.29499999999999993,0.15999999999999992,-0.405,0.029179999999999984,0.012580000000000036,-0.005240000000000022,1742248685.0646322
-0.39,0.20999999999999996,0.2250000000000001,0.014780000000000015,-0.017080000000000095,0.0040199999999999125,-0.275,0.135,-0.4099999999999999,0.011840000000000073,-0.0034199999999999786,0.00770000000000004,1742248685.174617
-0.39,0.20999999999999996,0.24,0.03723999999999994,-0.01770000000000005,-0.005240000000000022,-0.245,0.15500000000000003,-0.42999999999999994,0.025020000000000042,-0.009639999999999982,0.02844000000000002,1742248685.2885811
-0.42500000000000004,0.19500000000000006,0.2250000000000001,0.04723999999999995,-0.024660000000000015,0.01770000000000005,-0.29000000000000004,0.16500000000000004,-0.35,0.022580000000000044,-0.028320000000000012,0.019039999999999946,1742248685.402555
-0.405,0.16999999999999993,0.17500000000000004,0.026739999999999986,-0.005739999999999967,0.01305999999999985,-0.2849999999999999,0.18999999999999995,-0.31499999999999995,0.02540000000000009,-0.007200000000000095,-0.022700000000000053,1742248685.524713
-0.39,0.1499999999999999,0.16999999999999993,-0.016240000000000032,-0.014039999999999941,0.012580000000000036,-0.27,0.18500000000000005,-0.35,0.02293999999999996,0.02929999999999988,-0.02429999999999999,1742248685.630562
-0.42500000000000004,0.1499999999999999,0.20500000000000007,-0.01770000000000005,-0.01097999999999999,0.03198000000000012,-0.29000000000000004,0.20500000000000007,-0.38,-0.021360000000000046,0.03259999999999996,-0.006460000000000021,1742248685.7446232
-0.41500000000000004,0.17999999999999994,0.22999999999999998,-0.04700000000000004,-0.0037800000000000056,0.0041599999999999415,-0.31000000000000005,0.16500000000000004,-0.395,-0.03370000000000006,0.04200000000000004,0.0041599999999999415,1742248685.862731
-0.41500000000000004,0.17500000000000004,0.17999999999999994,-0.031240000000000046,0.01195999999999997,-0.012580000000000036,-0.2849999999999999,0.14500000000000002,-0.37,-0.04161999999999999,0.04064000000000001,0.004999999999999893,1742248685.973502
-0.39,0.19500000000000006,0.15500000000000003,-0.049679999999999946,-0.019039999999999946,-0.018179999999999974,-0.31499999999999995,0.15999999999999992,-0.36,-0.0036599999999999966,0.042119999999999935,0.0042800000000000615,1742248686.0865548
-0.43999999999999995,0.23499999999999988,0.16999999999999993,-0.018799999999999928,-0.02429999999999999,-0.006460000000000021,-0.29499999999999993,0.15999999999999992,-0.385,0.010140000000000038,-0.010739999999999972,0.0014600000000000168,1742248686.203255
-0.45500000000000007,0.2250000000000001,0.18500000000000005,0.0343,0.016960000000000086,0.009279999999999955,-0.33000000000000007,0.19500000000000006,-0.355,0.041380000000000194,-0.05408000000000002,0.011840000000000073,1742248686.315139
-0.395,0.18500000000000005,0.16500000000000004,0.03394000000000008,0.021600000000000064,0.01208000000000009,-0.30000000000000004,0.1499999999999999,-0.345,-0.007080000000000086,-0.012940000000000063,0.027959999999999985,1742248686.428763
-0.39,0.17999999999999994,0.17500000000000004,0.009640000000000093,0.011719999999999953,-0.01770000000000005,-0.30000000000000004,0.17500000000000004,-0.36,-0.00782000000000005,-0.0036599999999999966,0.012939999999999952,1742248686.543339
-0.41999999999999993,0.17999999999999994,0.20500000000000007,-0.0006199999999999539,0.004999999999999893,-0.0018400000000000638,-0.29499999999999993,0.16999999999999993,-0.37,-0.012319999999999998,-0.01770000000000005,-0.0018400000000000638,1742248686.660953
-0.39,0.17999999999999994,0.18999999999999995,-0.002080000000000082,-0.0029199999999999227,0.015740000000000087,-0.30499999999999994,0.14500000000000002,-0.355,-0.005859999999999976,0.004999999999999893,-0.005240000000000022,1742248686.770696
-0.405,0.18999999999999995,0.18999999999999995,-0.0048799999999999955,-0.005240000000000022,0.011360000000000037,-0.30000000000000004,0.14500000000000002,-0.39,-0.0050000000000000044,0.010000000000000009,-0.0032999999999999696,1742248686.884747
-0.4099999999999999,0.19500000000000006,0.19999999999999996,-0.0014600000000000168,0.0030599999999998406,-0.011099999999999999,-0.30000000000000004,0.1499999999999999,-0.37,-0.007080000000000086,-0.0040200000000000236,0.006720000000000059,1742248687.002226
-0.4,0.19500000000000006,0.18500000000000005,-0.0008599999999999719,0.0030599999999998406,-0.015739999999999976,-0.29000000000000004,0.1499999999999999,-0.36,-0.009399999999999964,0.00048000000000003595,0.008539999999999992,1742248687.112426
-0.405,0.20500000000000007,0.18999999999999995,-0.006720000000000059,-0.005120000000000013,-0.010259999999999936,-0.30000000000000004,0.15500000000000003,-0.37,-0.008179999999999965,0.01195999999999997,0.0026800000000000157,1742248687.2265
-0.4,0.19500000000000006,0.17999999999999994,-0.021600000000000064,-0.009759999999999991,-0.011240000000000028,-0.30000000000000004,0.1499999999999999,-0.37,-0.01208000000000009,0.010620000000000074,0.005740000000000078,1742248687.3408482
-0.405,0.20500000000000007,0.17500000000000004,-0.01537999999999995,-0.009039999999999937,-0.0006199999999999539,-0.32000000000000006,0.135,-0.355,-0.012580000000000036,0.03527999999999998,0.0012199999999999989,1742248687.460209
-0.41500000000000004,0.24,0.16500000000000004,-0.033440000000000025,-0.012820000000000054,-0.011099999999999999,-0.31000000000000005,0.135,-0.365,0.0014600000000000168,0.005980000000000096,-0.0047599999999999865,1742248687.568513
-0.405,0.21500000000000008,0.15999999999999992,0.03308,0.01758000000000015,0.028200000000000003,-0.32000000000000006,0.1200000000000001,-0.36,0.001100000000000101,-0.0010999999999999899,-0.010000000000000009,1742248687.6826408
-0.405,0.21999999999999997,0.15500000000000003,-0.010000000000000009,-0.012319999999999998,0.006460000000000132,-0.32000000000000006,0.14000000000000012,-0.355,0.005619999999999958,0.0008600000000000829,-0.0046399999999999775,1742248687.797364
-0.41500000000000004,0.21999999999999997,0.15999999999999992,-0.0027999999999999137,-0.010140000000000038,0.006099999999999994,-0.32499999999999996,0.14500000000000002,-0.355,0.00035999999999991594,0.00011999999999989797,0.00011999999999989797,1742248687.9106472
-0.4099999999999999,0.21999999999999997,0.15999999999999992,0.0046399999999999775,0.0034199999999999786,0.00048000000000003595,-0.32499999999999996,0.14000000000000012,-0.35,0.0009799999999999809,-0.00036000000000002697,0.0008600000000000829,1742248688.024467
-0.4099999999999999,0.21500000000000008,0.15999999999999992,-0.00012000000000000899,-0.0014600000000000168,-0.0037800000000000056,-0.32499999999999996,0.1499999999999999,-0.345,0.0007399999999999629,0.0030599999999998406,-0.0015800000000000258,1742248688.140621
-0.4099999999999999,0.20500000000000007,0.15500000000000003,-0.0032999999999999696,-0.002080000000000082,-0.0032999999999999696,-0.32000000000000006,0.14500000000000002,-0.355,0.0040199999999999125,0.0043999999999999595,-0.0017000000000000348,1742248688.25238
-0.4099999999999999,0.20500000000000007,0.1499999999999999,-0.0027999999999999137,0.0014600000000000168,0.00035999999999991594,-0.32499999999999996,0.14500000000000002,-0.35,0.00011999999999989797,0.006839999999999957,-0.0010999999999999899,1742248688.366399
-0.4099999999999999,0.21999999999999997,0.15500000000000003,-0.0032999999999999696,0.0008600000000000829,-0.0017000000000000348,-0.32499999999999996,0.1499999999999999,-0.35,0.011719999999999953,0.0019599999999999618,-0.0025599999999998957,1742248688.480374
-0.4099999999999999,0.20999999999999996,0.14500000000000002,-0.01097999999999999,-0.00878000000000001,-0.005240000000000022,-0.32499999999999996,0.1499999999999999,-0.345,-0.0075599999999999,-0.0006199999999999539,0.0046399999999999775,1742248688.594465
-0.41500000000000004,0.21999999999999997,0.1499999999999999,-0.005739999999999967,-0.001960000000000073,-0.0045199999999999685,-0.33499999999999996,0.14500000000000002,-0.35,-0.0075599999999999,0.0024399999999999977,0.0041599999999999415,1742248688.708395
-0.4099999999999999,0.21999999999999997,0.14500000000000002,0.0,0.0019599999999999618,-0.0040200000000000236,-0.3400000000000001,0.135,-0.33000000000000007,0.010000000000000009,0.012820000000000054,0.00537999999999994,1742248688.822295
-0.4099999999999999,0.20999999999999996,0.14000000000000012,-0.025399999999999978,-0.012940000000000063,-0.0022000000000000908,-0.3400000000000001,0.1299999999999999,-0.345,0.021479999999999944,0.037599999999999856,-0.011600000000000055,1742248688.9397829
-0.42500000000000004,0.22999999999999998,0.1499999999999999,-0.01648000000000005,0.007940000000000058,-0.01525999999999994,-0.35,0.14000000000000012,-0.31000000000000005,-0.022460000000000035,-0.0013400000000000079,0.0040199999999999125,1742248689.050507
-0.4,0.2549999999999999,0.1299999999999999,-0.03149999999999997,-0.0027999999999999137,-0.014039999999999941,-0.345,0.14000000000000012,-0.32499999999999996,0.00550000000000006,0.020620000000000083,-0.005859999999999976,1742248689.164414
-0.41500000000000004,0.26,0.1299999999999999,-0.010379999999999945,-0.016120000000000023,0.020620000000000083,-0.3400000000000001,0.16500000000000004,-0.33000000000000007,0.054079999999999906,0.019279999999999964,-0.07238,1742248689.280753
-0.405,0.21999999999999997,0.11499999999999999,0.0018400000000000638,-0.01208000000000009,0.020999999999999908,-0.365,0.16999999999999993,-0.30499999999999994,-0.029779999999999918,0.01635999999999993,0.019039999999999946,1742248689.3923469
-0.41500000000000004,0.2450000000000001,0.11499999999999999,-0.025880000000000014,-0.008919999999999928,-0.017340000000000022,-0.36,0.16500000000000004,-0.30499999999999994,-0.0010999999999999899,0.01110000000000011,-0.011480000000000046,1742248689.506507
-0.42500000000000004,0.23499999999999988,0.10499999999999998,0.0035399999999998766,0.00011999999999989797,0.006599999999999939,-0.355,0.15500000000000003,-0.30499999999999994,0.00550000000000006,0.008419999999999872,-0.010259999999999936,1742248689.620314
-0.42500000000000004,0.2450000000000001,0.10499999999999998,-0.0017000000000000348,0.0021999999999999797,-0.0037800000000000056,-0.355,0.16999999999999993,-0.30000000000000004,-0.0035399999999999876,-0.00012000000000000899,0.0,1742248689.734474
-0.41999999999999993,0.24,0.10000000000000009,-0.006340000000000012,0.0021999999999999797,-0.006340000000000012,-0.355,0.16500000000000004,-0.30499999999999994,-0.0009799999999999809,-0.0037800000000000056,-0.002080000000000082,1742248689.848474
-0.41999999999999993,0.23499999999999988,0.10000000000000009,0.0006200000000000649,0.0013400000000001189,0.0041599999999999415,-0.355,0.17500000000000004,-0.30000000000000004,-0.0034199999999999786,0.0029200000000000337,0.0029200000000000337,1742248689.9623098
-0.41500000000000004,0.22999999999999998,0.10000000000000009,0.006839999999999957,-0.011360000000000037,0.00878000000000001,-0.365,0.16999999999999993,-0.30000000000000004,0.0046399999999999775,0.0036599999999999966,-0.0047599999999999865,1742248690.076389
-0.42500000000000004,0.23499999999999988,0.10000000000000009,-0.0048799999999999955,-0.00048000000000003595,-0.0009799999999999809,-0.36,0.17999999999999994,-0.30000000000000004,0.0009799999999999809,0.005239999999999911,-0.0012199999999999989,1742248690.1904042
-0.42500000000000004,0.24,0.09499999999999997,-0.005979999999999985,-0.00024000000000001798,-0.0008599999999999719,-0.36,0.16999999999999993,-0.29499999999999993,-0.0008599999999999719,0.005120000000000013,-0.0006199999999999539,1742248690.304479
-0.42500000000000004,0.25,0.09499999999999997,-0.009159999999999946,-0.001960000000000073,0.0014600000000000168,-0.36,0.17500000000000004,-0.30499999999999994,-0.0017000000000000348,-0.005979999999999985,0.0023200000000000998,1742248690.419626
-0.42999999999999994,0.22999999999999998,0.10000000000000009,-0.0048799999999999955,-0.0029199999999999227,-0.0031799999999999606,-0.365,0.18500000000000005,-0.30000000000000004,-0.005619999999999958,-0.0032999999999999696,-0.0013400000000000079,1742248690.5325508
-0.41999999999999993,0.2250000000000001,0.09000000000000008,-0.0045199999999999685,0.0034199999999999786,0.0008600000000000829,-0.36,0.16999999999999993,-0.29499999999999993,-0.008059999999999956,-0.0014600000000000168,-0.0018400000000000638,1742248690.6465302
-0.4099999999999999,0.24,0.08499999999999996,0.0015800000000001369,0.0043999999999999595,-0.0022000000000000908,-0.36,0.1499999999999999,-0.29000000000000004,-0.008539999999999992,0.0024399999999999977,0.011479999999999935,1742248690.7603798
-0.41999999999999993,0.23499999999999988,0.10000000000000009,0.0042800000000000615,0.0009799999999999809,-0.0009799999999999809,-0.355,0.16500000000000004,-0.31000000000000005,0.0025599999999998957,-0.0026799999999999047,-0.0018400000000000638,1742248690.879839
-0.42500000000000004,0.21999999999999997,0.09499999999999997,-0.006099999999999994,0.0031799999999999606,0.01110000000000011,-0.365,0.16999999999999993,-0.30499999999999994,-0.01537999999999995,0.0017000000000000348,-0.0037800000000000056,1742248690.9884758
-0.42500000000000004,0.22999999999999998,0.09499999999999997,-0.022820000000000062,-0.00048000000000003595,-0.009399999999999964,-0.36,0.16500000000000004,-0.30000000000000004,-0.00878000000000001,0.0048799999999999955,-0.005739999999999967,1742248691.104053
-0.41500000000000004,0.2549999999999999,0.09000000000000008,-0.008299999999999974,0.0025599999999998957,-0.0037800000000000056,-0.37,0.1499999999999999,-0.30499999999999994,-0.0035399999999999876,0.0035399999999998766,0.008299999999999974,1742248691.22058
-0.41999999999999993,0.25,0.09000000000000008,0.0017000000000000348,-0.0006199999999999539,-0.00878000000000001,-0.36,0.15999999999999992,-0.30499999999999994,0.00011999999999989797,-0.006340000000000012,0.006340000000000012,1742248691.33034
-0.42500000000000004,0.23499999999999988,0.09000000000000008,0.00011999999999989797,-0.0006199999999999539,-0.0027999999999999137,-0.36,0.16500000000000004,-0.30000000000000004,-0.0009799999999999809,0.0021999999999999797,0.00048000000000003595,1742248691.444278
-0.41999999999999993,0.24,0.09000000000000008,-0.00537999999999994,0.00035999999999991594,-0.0012199999999999989,-0.37,0.15500000000000003,-0.30000000000000004,-0.0012199999999999989,0.0018400000000000638,-0.0008599999999999719,1742248691.562591
-0.41500000000000004,0.2450000000000001,0.09000000000000008,-0.0013400000000000079,-0.00024000000000001798,-0.0012199999999999989,-0.36,0.1499999999999999,-0.30499999999999994,-0.0009799999999999809,0.001100000000000101,0.0029200000000000337,1742248691.6723251
-0.41999999999999993,0.25,0.09000000000000008,-0.00024000000000001798,-0.0015800000000000258,-0.0026799999999999047,-0.365,0.15999999999999992,-0.30000000000000004,-0.0030599999999999516,0.0025599999999998957,0.0025599999999998957,1742248691.786305
-0.41999999999999993,0.25,0.09000000000000008,-0.0009799999999999809,-0.0012199999999999989,-0.0027999999999999137,-0.365,0.15500000000000003,-0.30000000000000004,-0.0039000000000000146,0.0009799999999999809,0.0048799999999999955,1742248691.900289
-0.41500000000000004,0.24,0.08499999999999996,-0.0015800000000000258,-0.0006199999999999539,0.00048000000000003595,-0.365,0.1499999999999999,-0.30499999999999994,-0.0018400000000000638,0.00035999999999991594,0.0,1742248692.014248
-0.41999999999999993,0.25,0.08499999999999996,-0.0030599999999999516,0.0014600000000000168,-0.0017000000000000348,-0.365,0.1499999999999999,-0.30499999999999994,-0.0029199999999999227,0.0023200000000000998,-0.00012000000000000899,1742248692.128437
-0.4099999999999999,0.25,0.08499999999999996,-0.0034199999999999786,0.0040199999999999125,0.0018400000000000638,-0.365,0.1499999999999999,-0.31000000000000005,-0.0026799999999999047,0.0013400000000001189,-0.002080000000000082,1742248692.242371
-0.41999999999999993,0.2549999999999999,0.09000000000000008,-0.0018400000000000638,0.0007399999999999629,0.0021999999999999797,-0.37,0.1499999999999999,-0.30499999999999994,-0.0031799999999999606,-0.0025599999999998957,-0.0026799999999999047,1742248692.359583
-0.4099999999999999,0.25,0.08499999999999996,-0.002080000000000082,0.0034199999999999786,0.00035999999999991594,-0.37,0.1499999999999999,-0.30000000000000004,0.0007399999999999629,0.001100000000000101,0.0,1742248692.470195
-0.41500000000000004,0.25,0.09000000000000008,0.002080000000000082,0.0,-0.00048000000000003595,-0.365,0.1499999999999999,-0.30499999999999994,0.0043999999999999595,0.0025599999999998957,0.0021999999999999797,1742248692.584192
-0.42500000000000004,0.2549999999999999,0.09499999999999997,0.02442000000000011,-0.014039999999999941,0.00770000000000004,-0.37,0.14500000000000002,-0.30499999999999994,0.006220000000000114,-0.005120000000000013,0.0007399999999999629,1742248692.69983
-0.41500000000000004,0.24,0.08499999999999996,0.0041599999999999415,0.002080000000000082,-0.0026799999999999047,-0.36,0.15999999999999992,-0.30000000000000004,-0.0009799999999999809,0.001100000000000101,0.0045200000000000795,1742248692.812242
-0.41999999999999993,0.23499999999999988,0.08499999999999996,-0.00012000000000000899,-0.0014600000000000168,0.00024000000000001798,-0.37,0.1499999999999999,-0.30499999999999994,-0.0027999999999999137,0.0024399999999999977,0.0007399999999999629,1742248692.926274
-0.41999999999999993,0.2450000000000001,0.09000000000000008,-0.0010999999999999899,0.0015800000000001369,-0.0023200000000000998,-0.365,0.1499999999999999,-0.30499999999999994,0.0006200000000000649,0.00011999999999989797,-0.0029199999999999227,1742248693.041054
-0.41500000000000004,0.24,0.08499999999999996,-0.00024000000000001798,-0.0012199999999999989,-0.00012000000000000899,-0.36,0.1499999999999999,-0.30000000000000004,0.0006200000000000649,0.0017000000000000348,-0.0031799999999999606,1742248693.15419
-0.41500000000000004,0.2450000000000001,0.08499999999999996,-0.0026799999999999047,-0.0012199999999999989,0.00024000000000001798,-0.365,0.1499999999999999,-0.30000000000000004,0.0,0.0015800000000001369,-0.00036000000000002697,1742248693.2681851
-0.41999999999999993,0.2450000000000001,0.08499999999999996,-0.0024400000000001087,-0.0012199999999999989,-0.00012000000000000899,-0.365,0.15500000000000003,-0.30499999999999994,0.0009799999999999809,0.00048000000000003595,-0.00024000000000001798,1742248693.382182
-0.41500000000000004,0.2450000000000001,0.08000000000000007,-0.0029199999999999227,-0.0010999999999999899,0.00035999999999991594,-0.365,0.15500000000000003,-0.30000000000000004,0.0019599999999999618,0.0021999999999999797,-0.002080000000000082,1742248693.49913
-0.41999999999999993,0.25,0.08499999999999996,-0.0023200000000000998,0.00048000000000003595,-0.0017000000000000348,-0.365,0.1499999999999999,-0.30000000000000004,0.0026800000000000157,0.0007399999999999629,-0.0017000000000000348,1742248693.610188
-0.41999999999999993,0.2450000000000001,0.08499999999999996,0.0014600000000000168,-0.0012199999999999989,-0.0017000000000000348,-0.37,0.15500000000000003,-0.30000000000000004,0.0017000000000000348,0.0009799999999999809,0.00048000000000003595,1742248693.72409
-0.41999999999999993,0.2450000000000001,0.08499999999999996,0.00035999999999991594,-0.0006199999999999539,-0.00048000000000003595,-0.37,0.15500000000000003,-0.30000000000000004,-0.00036000000000002697,-0.00012000000000000899,-0.0013400000000000079,1742248693.8390138
-0.41999999999999993,0.2450000000000001,0.08499999999999996,-0.002080000000000082,0.0018400000000000638,-0.0025599999999998957,-0.37,0.1499999999999999,-0.29499999999999993,-0.006340000000000012,0.0019599999999999618,0.0026800000000000157,1742248693.9521768
-0.41999999999999993,0.25,0.08499999999999996,-0.0075599999999999,0.0018400000000000638,-0.009279999999999955,-0.37,0.1499999999999999,-0.30000000000000004,-0.0017000000000000348,-0.0024400000000001087,0.0026800000000000157,1742248694.06628
-0.4099999999999999,0.25,0.08000000000000007,-0.00024000000000001798,0.001100000000000101,-0.0024400000000001087,-0.365,0.14500000000000002,-0.30000000000000004,0.00024000000000001798,0.001100000000000101,0.0026800000000000157,1742248694.180114
-0.42500000000000004,0.25,0.08499999999999996,-0.0037800000000000056,0.0030599999999998406,-0.0013400000000000079,-0.365,0.15500000000000003,-0.30499999999999994,-0.005979999999999985,-0.00012000000000000899,-0.00012000000000000899,1742248694.294358
-0.41999999999999993,0.24,0.09000000000000008,-0.006960000000000077,0.0032999999999998586,0.005239999999999911,-0.375,0.14500000000000002,-0.30499999999999994,-0.009399999999999964,0.0008600000000000829,-0.008059999999999956,1742248694.4082592
-0.4099999999999999,0.26,0.08000000000000007,-0.012460000000000027,0.005859999999999976,-0.0022000000000000908,-0.37,0.14000000000000012,-0.29499999999999993,-0.023320000000000007,0.002080000000000082,0.0048799999999999955,1742248694.522175
-0.405,0.25,0.07499999999999996,-0.02391999999999994,0.007440000000000113,-0.0042799999999999505,-0.36,0.135,-0.31000000000000005,-0.008660000000000001,0.00011999999999989797,-0.0009799999999999809,1742248694.6393752
-0.4099999999999999,0.2650000000000001,0.08000000000000007,-0.005739999999999967,0.006960000000000077,0.006720000000000059,-0.375,0.1299999999999999,-0.31000000000000005,-0.0048799999999999955,-0.0009799999999999809,-0.0006199999999999539,1742248694.750398
-0.4099999999999999,0.26,0.08499999999999996,-0.006099999999999994,0.012199999999999989,-0.007440000000000002,-0.37,0.135,-0.31000000000000005,-0.008299999999999974,-0.0013400000000000079,0.008179999999999854,1742248694.864274
-0.405,0.2549999999999999,0.08499999999999996,0.00048000000000003595,0.0025599999999998957,-0.0050000000000000044,-0.37,0.135,-0.30000000000000004,0.0042800000000000615,-0.0042799999999999505,-0.0010999999999999899,1742248694.9784331
-0.4099999999999999,0.2549999999999999,0.09000000000000008,0.0015800000000001369,0.0029200000000000337,-0.0029199999999999227,-0.37,0.14000000000000012,-0.31000000000000005,0.0035399999999998766,-0.0007399999999999629,-0.0042799999999999505,1742248695.0923982
-0.4099999999999999,0.2549999999999999,0.09000000000000008,0.0034199999999999786,0.0045200000000000795,0.00550000000000006,-0.365,0.14000000000000012,-0.30499999999999994,-0.00048000000000003595,-0.0012199999999999989,-0.006960000000000077,1742248695.206327
-0.405,0.26,0.09000000000000008,0.0037799999999998946,-0.0014600000000000168,0.01110000000000011,-0.365,0.135,-0.31000000000000005,0.0008600000000000829,0.0019599999999999618,-0.007320000000000104,1742248695.320099
-0.4099999999999999,0.2549999999999999,0.08499999999999996,-0.0042799999999999505,-0.0023200000000000998,0.0029200000000000337,-0.38,0.1299999999999999,-0.30000000000000004,0.0007399999999999629,0.005239999999999911,-0.00036000000000002697,1742248695.43409
-0.4099999999999999,0.27,0.08499999999999996,-0.0017000000000000348,0.0007399999999999629,-0.005859999999999976,-0.375,0.135,-0.30499999999999994,0.007200000000000095,-0.0015800000000000258,0.0041599999999999415,1742248695.548095
-0.41500000000000004,0.25,0.08499999999999996,0.0035399999999998766,-0.0029199999999999227,-0.0048799999999999955,-0.365,0.14500000000000002,-0.31000000000000005,0.0027999999999999137,-0.0012199999999999989,0.0013400000000001189,1742248695.662087
-0.41500000000000004,0.2450000000000001,0.08499999999999996,0.0032999999999998586,0.00048000000000003595,-0.0009799999999999809,-0.365,0.14500000000000002,-0.30000000000000004,-0.0015800000000000258,0.007940000000000058,-0.0030599999999999516,1742248695.778123
-0.4099999999999999,0.2549999999999999,0.08499999999999996,-0.01427999999999996,-0.00036000000000002697,-0.0035399999999999876,-0.375,0.135,-0.30499999999999994,-0.0010999999999999899,0.008419999999999872,0.0,1742248695.89009
-0.4099999999999999,0.2749999999999999,0.08000000000000007,0.00048000000000003595,-0.0014600000000000168,-0.00012000000000000899,-0.37,0.135,-0.30499999999999994,-0.005120000000000013,-0.0027999999999999137,0.00782000000000016,1742248696.004307
-0.41500000000000004,0.25,0.08000000000000007,-0.00012000000000000899,-0.0008599999999999719,-0.0015800000000000258,-0.365,0.14000000000000012,-0.30000000000000004,-0.0015800000000000258,-0.0009799999999999809,-0.0014600000000000168,1742248696.118284
-0.405,0.26,0.07499999999999996,-0.0032999999999999696,-0.00048000000000003595,-0.0008599999999999719,-0.37,0.1299999999999999,-0.30000000000000004,0.0014600000000000168,0.0025599999999998957,-0.0024400000000001087,1742248696.2321122
-0.4099999999999999,0.2650000000000001,0.08000000000000007,0.00011999999999989797,-0.0034199999999999786,0.0019599999999999618,-0.375,0.135,-0.30000000000000004,0.0009799999999999809,0.0027999999999999137,0.0007399999999999629,1742248696.346095
-0.4099999999999999,0.2549999999999999,0.08000000000000007,0.00011999999999989797,-0.0012199999999999989,-0.0008599999999999719,-0.37,0.135,-0.30000000000000004,0.0017000000000000348,0.0040199999999999125,0.0023200000000000998,1742248696.459981
-0.4099999999999999,0.26,0.08000000000000007,0.00011999999999989797,-0.00537999999999994,0.006220000000000114,-0.38,0.125,-0.30000000000000004,0.001100000000000101,0.002080000000000082,-0.00036000000000002697,1742248696.574088
-0.4099999999999999,0.2549999999999999,0.07499999999999996,-0.00012000000000000899,-0.0024400000000001087,-0.0018400000000000638,-0.375,0.14500000000000002,-0.29499999999999993,0.0023200000000000998,0.0040199999999999125,0.00035999999999991594,1742248696.68804
-0.41999999999999993,0.26,0.07499999999999996,-0.0006199999999999539,-0.00537999999999994,0.005740000000000078,-0.38,0.135,-0.30000000000000004,0.0015800000000001369,0.0006200000000000649,-0.0017000000000000348,1742248696.8020968
-0.41500000000000004,0.26,0.07000000000000006,-0.0031799999999999606,-0.00048000000000003595,-0.0018400000000000638,-0.375,0.14000000000000012,-0.30000000000000004,0.0024399999999999977,0.00011999999999989797,-0.0025599999999998957,1742248696.918962
-0.41500000000000004,0.2549999999999999,0.06499999999999995,-0.00048000000000003595,0.00048000000000003595,0.001100000000000101,-0.375,0.14000000000000012,-0.29000000000000004,0.0006200000000000649,0.0012199999999999989,-0.00024000000000001798,1742248697.030122
-0.41500000000000004,0.2549999999999999,0.07000000000000006,-0.00048000000000003595,0.00011999999999989797,-0.00048000000000003595,-0.375,0.14500000000000002,-0.29499999999999993,-0.0006199999999999539,0.0027999999999999137,-0.0010999999999999899,1742248697.1442292
-0.41500000000000004,0.2549999999999999,0.07000000000000006,-0.0013400000000000079,-0.001960000000000073,0.0007399999999999629,-0.375,0.14000000000000012,-0.29499999999999993,0.0023200000000000998,0.0006200000000000649,-0.0034199999999999786,1742248697.258251
-0.41500000000000004,0.26,0.07000000000000006,-0.001960000000000073,-0.0007399999999999629,-0.0040200000000000236,-0.38,0.14000000000000012,-0.29499999999999993,0.00024000000000001798,0.0007399999999999629,0.0018400000000000638,1742248697.372065
-0.41500000000000004,0.2549999999999999,0.06499999999999995,-0.0017000000000000348,-0.0017000000000000348,-0.0022000000000000908,-0.38,0.14000000000000012,-0.29499999999999993,0.0027999999999999137,0.002080000000000082,-0.0007399999999999629,1742248697.48602
-0.41999999999999993,0.26,0.07000000000000006,-0.0015800000000000258,-0.0007399999999999629,-0.0030599999999999516,-0.375,0.14500000000000002,-0.29000000000000004,0.0015800000000001369,-0.00036000000000002697,0.0013400000000001189,1742248697.601714
-0.41500000000000004,0.2549999999999999,0.06499999999999995,-0.00024000000000001798,0.0009799999999999809,-0.00048000000000003595,-0.38,0.14000000000000012,-0.29000000000000004,-0.0006199999999999539,0.0,-0.0007399999999999629,1742248697.7141812
-0.41500000000000004,0.2549999999999999,0.06499999999999995,0.0007399999999999629,0.0008600000000000829,0.00048000000000003595,-0.38,0.14000000000000012,-0.29000000000000004,-0.0010999999999999899,0.0008600000000000829,-0.0015800000000000258,1742248697.828131
-0.41999999999999993,0.2650000000000001,0.07000000000000006,0.0012199999999999989,-0.00024000000000001798,0.00024000000000001798,-0.375,0.14500000000000002,-0.29000000000000004,0.0008600000000000829,-0.002080000000000082,0.00035999999999991594,1742248697.94213
-0.41500000000000004,0.2549999999999999,0.06499999999999995,0.00048000000000003595,-0.0007399999999999629,0.00035999999999991594,-0.38,0.14000000000000012,-0.29000000000000004,-0.00036000000000002697,0.0018400000000000638,-0.0009799999999999809,1742248698.0596778
-0.4099999999999999,0.2549999999999999,0.07000000000000006,-0.0008599999999999719,-0.0015800000000000258,-0.002080000000000082,-0.375,0.14500000000000002,-0.29000000000000004,0.0017000000000000348,0.0024399999999999977,0.0014600000000000168,1742248698.169992
-0.41500000000000004,0.2549999999999999,0.06000000000000005,-0.0010999999999999899,-0.0050000000000000044,0.001100000000000101,-0.38,0.14000000000000012,-0.29499999999999993,0.0045200000000000795,0.0021999999999999797,0.0018400000000000638,1742248698.2840462
-0.4099999999999999,0.26,0.06000000000000005,0.0023200000000000998,-0.0013400000000000079,-0.0014600000000000168,-0.38,0.14000000000000012,-0.2849999999999999,0.0007399999999999629,0.0009799999999999809,0.0025599999999998957,1742248698.398887
-0.4099999999999999,0.25,0.06499999999999995,-0.002080000000000082,-0.0006199999999999539,-0.007200000000000095,-0.375,0.14500000000000002,-0.2849999999999999,-0.0007399999999999629,0.006220000000000114,0.0046399999999999775,1742248698.511101
-0.41500000000000004,0.25,0.06499999999999995,-0.0041599999999999415,-0.0043999999999999595,0.0,-0.38,0.14500000000000002,-0.2849999999999999,0.00011999999999989797,0.01110000000000011,-0.0013400000000000079,1742248698.62512
-0.41999999999999993,0.2549999999999999,0.06000000000000005,-0.008919999999999928,-0.0037800000000000056,0.005980000000000096,-0.38,0.14000000000000012,-0.2849999999999999,-0.0022000000000000908,0.008419999999999872,-0.00782000000000005,1742248698.7392142
-0.41500000000000004,0.2650000000000001,0.04499999999999993,-0.010739999999999972,-0.0010999999999999899,0.00537999999999994,-0.395,0.14000000000000012,-0.275,0.0007399999999999629,0.005980000000000096,-0.011720000000000064,1742248698.853077
-0.41500000000000004,0.27,0.04499999999999993,-0.0040200000000000236,-0.0024400000000001087,0.0037799999999998946,-0.395,0.14000000000000012,-0.27,0.0047600000000000975,0.00011999999999989797,-0.0022000000000000908,1742248698.967081
-0.41500000000000004,0.2549999999999999,0.04499999999999993,0.0048799999999999955,-0.0046399999999999775,0.0012199999999999989,-0.395,0.15500000000000003,-0.275,0.007940000000000058,-0.0025599999999998957,-0.00024000000000001798,1742248699.0810938
-0.43999999999999995,0.2549999999999999,0.050000000000000044,0.008179999999999854,0.0013400000000001189,0.0026800000000000157,-0.385,0.15500000000000003,-0.28,0.0017000000000000348,-0.010739999999999972,-0.0029199999999999227,1742248699.198263
-0.41500000000000004,0.24,0.050000000000000044,0.002080000000000082,0.006960000000000077,-0.0029199999999999227,-0.38,0.1499999999999999,-0.28,-0.0014600000000000168,-0.0023200000000000998,0.001100000000000101,1742248699.309196
-0.42500000000000004,0.25,0.05499999999999994,0.00035999999999991594,0.0040199999999999125,0.00011999999999989797,-0.38,0.1499999999999999,-0.2849999999999999,-0.0013400000000000079,-0.005979999999999985,-0.0014600000000000168,1742248699.423237
-0.41500000000000004,0.2450000000000001,0.050000000000000044,0.0021999999999999797,0.005619999999999958,-0.00024000000000001798,-0.38,0.14500000000000002,-0.28,-0.0036599999999999966,0.00024000000000001798,-0.0022000000000000908,1742248699.539039
-0.41999999999999993,0.2549999999999999,0.06000000000000005,-0.0015800000000000258,0.0017000000000000348,-0.0015800000000000258,-0.38,0.14500000000000002,-0.28,-0.0006199999999999539,-0.0008599999999999719,0.00024000000000001798,1742248699.651129
-0.41500000000000004,0.25,0.05499999999999994,-0.001960000000000073,-0.0007399999999999629,-0.0013400000000000079,-0.38,0.1499999999999999,-0.29000000000000004,0.0009799999999999809,0.0012199999999999989,-0.0008599999999999719,1742248699.764997
-0.41999999999999993,0.25,0.05499999999999994,-0.0023200000000000998,-0.0015800000000000258,-0.0014600000000000168,-0.38,0.1499999999999999,-0.28,0.0012199999999999989,0.0030599999999998406,-0.0014600000000000168,1742248699.879008
-0.41999999999999993,0.2549999999999999,0.05499999999999994,-0.0022000000000000908,-0.0031799999999999606,0.0019599999999999618,-0.385,0.14500000000000002,-0.2849999999999999,0.0006200000000000649,0.0029200000000000337,0.00024000000000001798,1742248699.99291
-0.41999999999999993,0.2549999999999999,0.050000000000000044,0.0012199999999999989,-0.0023200000000000998,-0.0009799999999999809,-0.385,0.1499999999999999,-0.28,-0.00036000000000002697,0.0026800000000000157,0.0024399999999999977,1742248700.106997
-0.42500000000000004,0.25,0.05499999999999994,0.0007399999999999629,-0.0022000000000000908,0.00011999999999989797,-0.385,0.15500000000000003,-0.28,-0.0008599999999999719,0.00011999999999989797,-0.00024000000000001798,1742248700.221111
-0.42500000000000004,0.2450000000000001,0.050000000000000044,0.0030599999999998406,-0.0009799999999999809,0.00537999999999994,-0.39,0.1499999999999999,-0.2849999999999999,-0.0027999999999999137,0.00011999999999989797,-0.0024400000000001087,1742248700.337616
-0.41999999999999993,0.2549999999999999,0.050000000000000044,-0.00012000000000000899,0.0034199999999999786,-0.0022000000000000908,-0.38,0.1499999999999999,-0.275,-0.0027999999999999137,0.0,0.00048000000000003595,1742248700.4490082
-0.42500000000000004,0.2549999999999999,0.05499999999999994,0.0,0.00035999999999991594,-0.00048000000000003595,-0.38,0.15500000000000003,-0.28,-0.0024400000000001087,-0.0024400000000001087,0.0018400000000000638,1742248700.5630138
-0.41999999999999993,0.2450000000000001,0.05499999999999994,0.0017000000000000348,0.0015800000000001369,0.0012199999999999989,-0.38,0.1499999999999999,-0.28,-0.00048000000000003595,0.00011999999999989797,0.00035999999999991594,1742248700.677723
-0.41999999999999993,0.2549999999999999,0.05499999999999994,-0.0013400000000000079,0.0012199999999999989,-0.0006199999999999539,-0.385,0.14000000000000012,-0.2849999999999999,0.0006200000000000649,-0.00024000000000001798,0.0009799999999999809,1742248700.790914
-0.41500000000000004,0.26,0.05499999999999994,0.002080000000000082,-0.0015800000000000258,-0.0022000000000000908,-0.38,0.1499999999999999,-0.28,0.0024399999999999977,-0.001960000000000073,0.0042800000000000615,1742248700.90499
-0.41999999999999993,0.25,0.05499999999999994,0.0014600000000000168,-0.002080000000000082,-0.0018400000000000638,-0.38,0.1499999999999999,-0.28,0.00035999999999991594,-0.0030599999999999516,0.0046399999999999775,1742248701.018971
-0.41500000000000004,0.24,0.05499999999999994,0.0032999999999998586,-0.0010999999999999899,0.0009799999999999809,-0.38,0.1499999999999999,-0.2849999999999999,-0.00012000000000000899,0.0032999999999998586,-0.0010999999999999899,1742248701.132981
-0.41999999999999993,0.26,0.05499999999999994,-0.0006199999999999539,-0.0013400000000000079,0.00011999999999989797,-0.385,0.14500000000000002,-0.2849999999999999,0.0008600000000000829,-0.0008599999999999719,0.0023200000000000998,1742248701.246914
-0.41999999999999993,0.2549999999999999,0.05499999999999994,0.0008600000000000829,-0.0022000000000000908,0.0008600000000000829,-0.385,0.1499999999999999,-0.28,-0.0013400000000000079,0.0025599999999998957,0.00011999999999989797,1742248701.360895
-0.41999999999999993,0.2549999999999999,0.05499999999999994,-0.0023200000000000998,-0.0010999999999999899,0.00011999999999989797,-0.385,0.1499999999999999,-0.2849999999999999,-0.00048000000000003595,0.0,-0.0009799999999999809,1742248701.4786298
-0.41999999999999993,0.2549999999999999,0.050000000000000044,0.0013400000000001189,0.0017000000000000348,-0.0013400000000000079,-0.385,0.1499999999999999,-0.28,-0.0010999999999999899,-0.0006199999999999539,0.00024000000000001798,1742248701.588951
-0.42500000000000004,0.2549999999999999,0.05499999999999994,-0.0006199999999999539,0.0046399999999999775,-0.0045199999999999685,-0.385,0.14500000000000002,-0.28,-0.002080000000000082,-0.0017000000000000348,-0.0006199999999999539,1742248701.703091
-0.41500000000000004,0.2549999999999999,0.050000000000000044,0.0008600000000000829,0.0021999999999999797,-0.0008599999999999719,-0.38,0.14500000000000002,-0.2849999999999999,0.00035999999999991594,0.0006200000000000649,-0.0026799999999999047,1742248701.818779
-0.41999999999999993,0.2650000000000001,0.05499999999999994,0.0017000000000000348,0.0015800000000001369,-0.0031799999999999606,-0.38,0.1499999999999999,-0.2849999999999999,-0.0007399999999999629,-0.0015800000000000258,0.0048799999999999955,1742248701.930998
-0.41999999999999993,0.2549999999999999,0.050000000000000044,0.0047600000000000975,0.0018400000000000638,-0.0008599999999999719,-0.38,0.1499999999999999,-0.28,-0.0009799999999999809,-0.0012199999999999989,0.0012199999999999989,1742248702.045273
-0.4099999999999999,0.2549999999999999,0.05499999999999994,-0.0043999999999999595,-0.0018400000000000638,-0.0007399999999999629,-0.375,0.14500000000000002,-0.2849999999999999,-0.0009799999999999809,0.006220000000000114,-0.0026799999999999047,1742248702.1589692
-0.42500000000000004,0.2549999999999999,0.06499999999999995,-0.0042799999999999505,0.0017000000000000348,0.002080000000000082,-0.385,0.14500000000000002,-0.29000000000000004,-0.0024400000000001087,0.0025599999999998957,-0.006220000000000003,1742248702.272925
-0.41500000000000004,0.26,0.06000000000000005,-0.005739999999999967,0.002080000000000082,0.00035999999999991594,-0.385,0.14500000000000002,-0.28,-0.0035399999999999876,0.002080000000000082,-0.0037800000000000056,1742248702.386987
-0.405,0.26,0.050000000000000044,-0.0024400000000001087,-0.00048000000000003595,0.0008600000000000829,-0.39,0.14000000000000012,-0.28,0.006340000000000012,0.0012199999999999989,-0.0026799999999999047,1742248702.500881
-0.41999999999999993,0.26,0.05499999999999994,0.0031799999999999606,-0.0017000000000000348,-0.00012000000000000899,-0.385,0.14500000000000002,-0.27,0.0040199999999999125,0.0009799999999999809,0.0034199999999999786,1742248702.617588
-0.41999999999999993,0.2549999999999999,0.05499999999999994,0.0035399999999998766,-0.0045199999999999685,0.001100000000000101,-0.39,0.14500000000000002,-0.29000000000000004,0.005120000000000013,-0.0010999999999999899,0.0032999999999998586,1742248702.7289238
-0.41999999999999993,0.25,0.050000000000000044,0.0047600000000000975,0.0009799999999999809,-0.007440000000000002,-0.38,0.15500000000000003,-0.28,0.0024399999999999977,-0.0032999999999999696,0.0043999999999999595,1742248702.842896
-0.41999999999999993,0.2549999999999999,0.05499999999999994,0.0014600000000000168,0.0019599999999999618,-0.006099999999999994,-0.38,0.1499999999999999,-0.2849999999999999,-0.0008599999999999719,-0.0029199999999999227,0.0037799999999998946,1742248702.9585
-0.41999999999999993,0.2549999999999999,0.05499999999999994,0.0025599999999998957,0.0018400000000000638,-0.0039000000000000146,-0.38,0.14500000000000002,-0.2849999999999999,-0.006460000000000021,-0.0007399999999999629,0.0034199999999999786,1742248703.0709262
-0.41999999999999993,0.26,0.05499999999999994,0.00048000000000003595,0.0019599999999999618,-0.00024000000000001798,-0.385,0.1499999999999999,-0.28,-0.0006199999999999539,0.0013400000000001189,-0.0037800000000000056,1742248703.1849458
-0.41500000000000004,0.2650000000000001,0.05499999999999994,0.0012199999999999989,-0.0007399999999999629,0.0041599999999999415,-0.38,0.135,-0.28,-0.0024400000000001087,-0.0009799999999999809,0.001100000000000101,1742248703.298901
-0.41500000000000004,0.2650000000000001,0.05499999999999994,-0.0027999999999999137,-0.0008599999999999719,-0.0017000000000000348,-0.385,0.14000000000000012,-0.29000000000000004,-0.0013400000000000079,0.00024000000000001798,-0.00048000000000003595,1742248703.412997
-0.41999999999999993,0.26,0.05499999999999994,-0.0012199999999999989,0.0015800000000001369,-0.0006199999999999539,-0.38,0.14500000000000002,-0.28,0.0008600000000000829,-0.0030599999999999516,-0.001960000000000073,1742248703.5269032
-0.41500000000000004,0.26,0.05499999999999994,0.0009799999999999809,0.0036599999999999966,-0.0007399999999999629,-0.38,0.14000000000000012,-0.2849999999999999,0.0013400000000001189,-0.0023200000000000998,0.001100000000000101,1742248703.640756
-0.41500000000000004,0.2549999999999999,0.06000000000000005,0.001100000000000101,-0.00012000000000000899,-0.0015800000000000258,-0.385,0.14000000000000012,-0.2849999999999999,-0.0009799999999999809,0.0027999999999999137,-0.00036000000000002697,1742248703.758313
-0.41999999999999993,0.2650000000000001,0.06000000000000005,-0.0017000000000000348,0.00024000000000001798,-0.0024400000000001087,-0.385,0.14000000000000012,-0.2849999999999999,-0.0026799999999999047,-0.00036000000000002697,0.001100000000000101,1742248703.868992
-0.41500000000000004,0.26,0.05499999999999994,-0.0015800000000000258,0.0025599999999998957,-0.005859999999999976,-0.38,0.135,-0.28,-0.0047599999999999865,-0.00048000000000003595,0.0037799999999998946,1742248703.98291
-0.4099999999999999,0.2650000000000001,0.05499999999999994,-0.0032999999999999696,-0.00012000000000000899,-0.005240000000000022,-0.38,0.135,-0.29499999999999993,-0.0024400000000001087,-0.002080000000000082,0.0025599999999998957,1742248704.09691
-0.41500000000000004,0.26,0.06000000000000005,0.005239999999999911,0.005120000000000013,-0.00537999999999994,-0.38,0.14000000000000012,-0.29000000000000004,-0.008539999999999992,-0.006220000000000003,0.0013400000000001189,1742248704.210903
-0.405,0.2650000000000001,0.05499999999999994,0.0021999999999999797,0.001100000000000101,-0.00048000000000003595,-0.38,0.1299999999999999,-0.29000000000000004,-0.0029199999999999227,0.00035999999999991594,-0.0018400000000000638,1742248704.3248909
-0.4099999999999999,0.2650000000000001,0.05499999999999994,-0.00024000000000001798,-0.0022000000000000908,0.0006200000000000649,-0.385,0.1299999999999999,-0.29499999999999993,-0.0022000000000000908,0.0,0.0017000000000000348,1742248704.438781
-0.41500000000000004,0.26,0.05499999999999994,0.0018400000000000638,0.0018400000000000638,-0.0027999999999999137,-0.38,0.1299999999999999,-0.29499999999999993,-0.0010999999999999899,0.00048000000000003595,0.0,1742248704.552738
-0.4099999999999999,0.2650000000000001,0.06000000000000005,0.0018400000000000638,0.002080000000000082,-0.0048799999999999955,-0.38,0.1299999999999999,-0.29000000000000004,0.00024000000000001798,0.0007399999999999629,0.00024000000000001798,1742248704.666668
-0.4099999999999999,0.27,0.06000000000000005,-0.0025599999999998957,-0.0017000000000000348,-0.0006199999999999539,-0.385,0.1299999999999999,-0.29499999999999993,-0.0015800000000000258,0.0,0.0013400000000001189,1742248704.780782
-0.4099999999999999,0.27,0.06000000000000005,0.0018400000000000638,-0.0009799999999999809,-0.0007399999999999629,-0.385,0.1299999999999999,-0.29000000000000004,-0.0022000000000000908,-0.0012199999999999989,0.001100000000000101,1742248704.8978229
-0.4099999999999999,0.27,0.05499999999999994,0.0015800000000001369,0.00035999999999991594,-0.0030599999999999516,-0.39,0.1299999999999999,-0.29499999999999993,0.0,0.00024000000000001798,-0.0014600000000000168,1742248705.008778
-0.4099999999999999,0.29000000000000004,0.06000000000000005,0.006960000000000077,-0.0012199999999999989,-0.001960000000000073,-0.375,0.1299999999999999,-0.29499999999999993,-0.0050000000000000044,-0.005120000000000013,0.006460000000000132,1742248705.122894
-0.4099999999999999,0.2650000000000001,0.05499999999999994,0.010000000000000009,0.00011999999999989797,-0.005619999999999958,-0.365,0.14000000000000012,-0.29000000000000004,0.0037799999999998946,-0.0023200000000000998,-0.0014600000000000168,1742248705.237684
-0.4099999999999999,0.27,0.06000000000000005,-0.0014600000000000168,-0.0010999999999999899,0.0007399999999999629,-0.39,0.135,-0.29499999999999993,-0.0015800000000000258,0.0026800000000000157,-0.0023200000000000998,1742248705.350915
-0.41999999999999993,0.31000000000000005,0.06499999999999995,0.0023200000000000998,0.0031799999999999606,-0.015499999999999958,-0.38,0.125,-0.2849999999999999,-0.012460000000000027,-0.00537999999999994,0.016000000000000014,1742248705.4648829
-0.385,0.27,0.050000000000000044,-0.02942,-0.01537999999999995,-0.016720000000000068,-0.38,0.11499999999999999,-0.30499999999999994,-0.007200000000000095,0.006220000000000114,0.009759999999999991,1742248705.580296
-0.4,0.29499999999999993,0.05499999999999994,-0.0006199999999999539,-0.0036599999999999966,-0.00782000000000005,-0.39,0.1100000000000001,-0.29499999999999993,0.00024000000000001798,-0.0036599999999999966,0.0037799999999998946,1742248705.692732
-0.4,0.29499999999999993,0.050000000000000044,-0.0009799999999999809,-0.0031799999999999606,-0.013679999999999914,-0.37,0.1200000000000001,-0.29000000000000004,-0.0041599999999999415,0.00024000000000001798,-0.00048000000000003595,1742248705.806892
-0.4,0.30499999999999994,0.04499999999999993,0.0017000000000000348,-0.006960000000000077,0.006460000000000132,-0.38,0.1100000000000001,-0.29499999999999993,-0.0009799999999999809,-0.0029199999999999227,0.0036599999999999966,1742248705.920814
-0.395,0.28,0.040000000000000036,0.005980000000000096,-0.0030599999999999516,0.010380000000000056,-0.38,0.10499999999999998,-0.30499999999999994,0.0029200000000000337,-0.0036599999999999966,0.0021999999999999797,1742248706.034689
-0.395,0.2849999999999999,0.04499999999999993,0.009759999999999991,-0.00036000000000002697,0.0031799999999999606,-0.385,0.1100000000000001,-0.29499999999999993,0.0045200000000000795,-0.0027999999999999137,-0.002080000000000082,1742248706.1488268
-0.395,0.28,0.05499999999999994,0.009400000000000075,0.0048799999999999955,0.0034199999999999786,-0.385,0.11499999999999999,-0.30000000000000004,0.0030599999999998406,-0.0023200000000000998,-0.0018400000000000638,1742248706.262798
-0.4,0.27,0.05499999999999994,0.006839999999999957,0.009759999999999991,-0.002080000000000082,-0.375,0.1200000000000001,-0.29499999999999993,0.0026800000000000157,0.0037799999999998946,-0.0017000000000000348,1742248706.37812
-0.405,0.29499999999999993,0.06000000000000005,-0.0014600000000000168,0.00035999999999991594,-0.00012000000000000899,-0.38,0.1100000000000001,-0.30499999999999994,0.0018400000000000638,-0.0007399999999999629,-0.0010999999999999899,1742248706.4908109
-0.4,0.2749999999999999,0.05499999999999994,-0.00048000000000003595,0.0035399999999998766,-0.0009799999999999809,-0.355,0.1299999999999999,-0.29000000000000004,-0.0042799999999999505,0.00550000000000006,0.002080000000000082,1742248706.604686
-0.395,0.2250000000000001,0.05499999999999994,-0.015619999999999967,0.009039999999999937,0.0043999999999999595,-0.4,0.125,-0.29499999999999993,-0.01305999999999996,0.03222000000000014,-0.023440000000000016,1742248706.718782
-0.395,0.3400000000000001,0.04499999999999993,-0.02624000000000004,-0.0048799999999999955,0.023679999999999923,-0.33000000000000007,-0.32499999999999996,-0.235,-0.011360000000000037,-0.009159999999999946,-0.005859999999999976,1742255372.8764212
-0.39,0.31499999999999995,0.040000000000000036,-0.030399999999999983,-0.014039999999999941,0.0018400000000000638,-0.32499999999999996,-0.30000000000000004,-0.21499999999999997,-0.029779999999999918,0.0030599999999998406,0.008920000000000039,1742255372.986921
-0.37,0.30000000000000004,0.02499999999999991,-0.036860000000000004,-0.015020000000000033,0.005740000000000078,-0.33499999999999996,-0.30499999999999994,-0.21499999999999997,-0.021480000000000055,0.014520000000000088,0.013800000000000034,1742255373.100916
-0.39,0.33499999999999996,0.030000000000000027,-0.01770000000000005,0.0012199999999999989,0.0021999999999999797,-0.33000000000000007,-0.31499999999999995,-0.21499999999999997,-0.011600000000000055,-0.0036599999999999966,0.004999999999999893,1742255373.217343
-0.39,0.31499999999999995,0.020000000000000018,-0.016720000000000068,0.005859999999999976,0.00048000000000003595,-0.33000000000000007,-0.31499999999999995,-0.21499999999999997,-0.0050000000000000044,-0.0026799999999999047,-0.010000000000000009,1742255373.329116
-0.38,0.31000000000000005,0.020000000000000018,-0.013799999999999923,0.0048799999999999955,0.009519999999999973,-0.31499999999999995,-0.31499999999999995,-0.18999999999999995,0.0031799999999999606,-0.0031799999999999606,-0.016720000000000068,1742255373.443
-0.385,0.31000000000000005,-0.010000000000000009,-0.0009799999999999809,-0.0037800000000000056,0.005239999999999911,-0.33000000000000007,-0.31499999999999995,-0.19999999999999996,0.0032999999999998586,0.009400000000000075,-0.00048000000000003595,1742255373.558482
-0.39,0.30499999999999994,0.004999999999999893,0.002080000000000082,-0.0040200000000000236,0.002080000000000082,-0.33000000000000007,-0.30499999999999994,-0.19500000000000006,-0.00048000000000003595,0.0017000000000000348,-0.0015800000000000258,1742255373.671021
-0.39,0.31000000000000005,0.014999999999999902,0.0040199999999999125,-0.0022000000000000908,0.0019599999999999618,-0.3400000000000001,-0.30000000000000004,-0.19500000000000006,-0.0013400000000000079,0.0024399999999999977,0.0006200000000000649,1742255373.784888
-0.385,0.30000000000000004,0.010000000000000009,0.0006200000000000649,-0.0024400000000001087,0.0027999999999999137,-0.33499999999999996,-0.30000000000000004,-0.19999999999999996,-0.0024400000000001087,0.0045200000000000795,-0.0017000000000000348,1742255373.8989818
-0.385,0.29499999999999993,0.010000000000000009,-0.0018400000000000638,-0.0030599999999999516,0.0047600000000000975,-0.38,-0.29000000000000004,-0.19500000000000006,-0.01427999999999996,0.019279999999999964,0.00550000000000006,1742255374.016454
-0.405,0.30000000000000004,0.0,-0.011600000000000055,-0.020139999999999936,0.0029200000000000337,-0.33499999999999996,-0.32000000000000006,-0.17500000000000004,-0.007200000000000095,-0.006960000000000077,0.011600000000000055,1742255374.127011
-0.38,0.30000000000000004,-0.015000000000000013,-0.0017000000000000348,-0.0026799999999999047,-0.005739999999999967,-0.33499999999999996,-0.32000000000000006,-0.18999999999999995,-0.007320000000000104,0.0007399999999999629,0.0009799999999999809,1742255374.2409291
-0.405,0.30000000000000004,0.010000000000000009,-0.006099999999999994,0.006960000000000077,0.0006200000000000649,-0.33499999999999996,-0.31499999999999995,-0.18500000000000005,-0.033320000000000016,-0.02210000000000001,-0.0008599999999999719,1742255374.357546
-0.4,0.29000000000000004,0.004999999999999893,-0.03051999999999999,0.019039999999999946,0.00878000000000001,-0.3400000000000001,-0.32499999999999996,-0.17500000000000004,-0.024540000000000006,-0.019159999999999955,-0.02429999999999999,1742255374.469057
-0.395,0.30499999999999994,-0.010000000000000009,-0.027220000000000022,0.009519999999999973,0.012939999999999952,-0.33499999999999996,-0.32499999999999996,-0.17000000000000004,-0.0035399999999999876,0.0027999999999999137,0.006460000000000132,1742255374.582984
-0.4,0.30499999999999994,-0.010000000000000009,0.008179999999999854,-0.00988,-0.0048799999999999955,-0.31499999999999995,-0.33499999999999996,-0.18999999999999995,0.03320000000000012,0.01428000000000007,0.009039999999999937,1742255374.697345
-0.38,0.30000000000000004,0.010000000000000009,0.028079999999999883,-0.01636000000000004,-0.011480000000000046,-0.32000000000000006,-0.33000000000000007,-0.17999999999999994,0.0024399999999999977,0.035640000000000116,0.044319999999999915,1742255374.810849
-0.39,0.32499999999999996,0.0,0.02171999999999996,-0.019159999999999955,-0.03173999999999999,-0.35,-0.32000000000000006,-0.16500000000000004,-0.018320000000000003,0.01208000000000009,0.022340000000000027,1742255374.924854
-0.4,0.32499999999999996,-0.020000000000000018,0.012820000000000054,-0.013419999999999987,-0.009759999999999991,-0.33000000000000007,-0.32499999999999996,-0.15500000000000003,-0.010499999999999954,-0.0024400000000001087,0.009400000000000075,1742255375.03898
-0.38,0.30000000000000004,-0.010000000000000009,-0.01648000000000005,0.0041599999999999415,-0.0045199999999999685,-0.32000000000000006,-0.38,-0.135,-0.044440000000000035,0.014399999999999968,0.020499999999999963,1742255375.160127
-0.375,0.32499999999999996,-0.015000000000000013,-0.03637999999999997,-0.011240000000000028,-0.015619999999999967,-0.30000000000000004,-0.4,-0.11499999999999999,-0.06053999999999993,0.008179999999999854,0.05896000000000012,1742255375.267961
-0.37,0.33000000000000007,-0.040000000000000036,-0.059700000000000086,-0.0050000000000000044,-0.03748000000000007,-0.28,-0.375,-0.08999999999999997,-0.01097999999999999,0.00537999999999994,0.010140000000000038,1742255375.3808389
-0.35,0.345,-0.05500000000000005,-0.010619999999999963,0.00024000000000001798,0.001100000000000101,-0.28,-0.405,-0.08499999999999996,0.0042800000000000615,0.008299999999999974,-0.0015800000000000258,1742255375.494987
-0.35,0.33000000000000007,-0.06000000000000005,-0.005979999999999985,-0.010499999999999954,0.00024000000000001798,-0.28,-0.405,-0.07499999999999996,-0.016720000000000068,0.017819999999999947,0.017819999999999947,1742255375.608767
-0.355,0.345,-0.07000000000000006,-0.010140000000000038,-0.030279999999999974,-0.008660000000000001,-0.26,-0.4,-0.07499999999999996,-0.009039999999999937,-0.008660000000000001,0.0047600000000000975,1742255375.723037
-0.35,0.33499999999999996,-0.07999999999999996,-0.006840000000000068,-0.0029199999999999227,0.0014600000000000168,-0.255,-0.4099999999999999,-0.08499999999999996,0.0017000000000000348,-0.010739999999999972,-0.0015800000000000258,1742255375.837873
-0.36,0.33499999999999996,-0.06000000000000005,-0.0008599999999999719,0.014780000000000015,0.0021999999999999797,-0.27,-0.41500000000000004,-0.08999999999999997,-0.02100000000000002,-0.02403999999999995,-0.017080000000000095,1742255375.950954
-0.37,0.3400000000000001,-0.06499999999999995,-0.016720000000000068,0.018059999999999965,-0.00024000000000001798,-0.2849999999999999,-0.4,-0.07499999999999996,-0.016720000000000068,-0.02636000000000005,-0.012820000000000054,1742255376.06495
-0.355,0.33499999999999996,-0.08999999999999997,-0.022340000000000027,0.018799999999999928,-0.0030599999999999516,-0.29000000000000004,-0.41500000000000004,-0.05500000000000005,-0.015619999999999967,0.007440000000000113,0.011840000000000073,1742255376.178722
-0.36,0.33499999999999996,-0.08999999999999997,-0.021120000000000028,-0.00782000000000005,-0.013679999999999914,-0.265,-0.405,-0.050000000000000044,-0.0045199999999999685,0.0013400000000001189,0.0048799999999999955,1742255376.2927208
-0.345,0.32499999999999996,-0.09999999999999998,-0.008179999999999965,-0.0042799999999999505,0.0024399999999999977,-0.27,-0.42999999999999994,-0.04500000000000004,-0.016120000000000023,0.025880000000000125,0.011719999999999953,1742255376.4067478
-0.355,0.345,-0.12,-0.03161999999999998,-0.03710000000000002,-0.008179999999999965,-0.26,-0.4099999999999999,-0.015000000000000013,-0.007320000000000104,0.035640000000000116,0.017940000000000067,1742255376.520758
-0.3400000000000001,0.3500000000000001,-0.14,0.012580000000000036,-0.04283999999999999,0.0029200000000000337,-0.265,-0.41500000000000004,-0.025000000000000022,0.005980000000000096,0.041140000000000176,0.01317999999999997,1742255376.637904
-0.345,0.33000000000000007,-0.14,0.014399999999999968,-0.03724000000000005,0.005859999999999976,-0.26,-0.41500000000000004,-0.040000000000000036,0.01415999999999995,0.03198000000000012,0.010259999999999936,1742255376.748638
-0.355,0.32499999999999996,-0.12,0.03222000000000014,-0.024540000000000006,0.0041599999999999415,-0.26,-0.42500000000000004,-0.03500000000000003,0.0025599999999998957,0.028200000000000003,0.014399999999999968,1742255376.86264
-0.35,0.32499999999999996,-0.12,0.011239999999999917,-0.016840000000000077,-0.0050000000000000044,-0.25,-0.42500000000000004,-0.020000000000000018,0.00035999999999991594,0.01770000000000005,0.01635999999999993,1742255376.981455
-0.3400000000000001,0.33499999999999996,-0.135,0.005239999999999911,-0.021480000000000055,-0.0024400000000001087,-0.235,-0.42500000000000004,-0.025000000000000022,0.010380000000000056,0.007079999999999975,0.004999999999999893,1742255377.0906172
-0.3400000000000001,0.345,-0.13,0.013800000000000034,-0.005739999999999967,0.0006200000000000649,-0.22499999999999998,-0.43999999999999995,-0.025000000000000022,0.012700000000000156,-0.00537999999999994,0.00865999999999989,1742255377.20476
-0.3400000000000001,0.3500000000000001,-0.135,0.026980000000000004,0.0036599999999999966,-0.005859999999999976,-0.22999999999999998,-0.4650000000000001,-0.025000000000000022,0.010380000000000056,-0.013539999999999996,0.029900000000000038,1742255377.318709
-0.33000000000000007,0.365,-0.15000000000000002,0.010739999999999972,0.0018400000000000638,-0.02525999999999995,-0.20499999999999996,-0.43500000000000005,-0.025000000000000022,0.041140000000000176,-0.0042799999999999505,0.016000000000000014,1742255377.4327
-0.30499999999999994,0.33499999999999996,-0.11499999999999999,0.04577999999999993,0.00048000000000003595,-0.007080000000000086,-0.235,-0.43500000000000005,-0.06499999999999995,0.02733999999999992,-0.0025599999999998957,0.005740000000000078,1742255377.546696
-0.33000000000000007,0.3599999999999999,-0.10499999999999998,0.005859999999999976,-0.007200000000000095,0.0008600000000000829,-0.19999999999999996,-0.38,-0.09499999999999997,0.0966800000000001,0.0032999999999998586,-0.06115999999999999,1742255377.660674
-0.33000000000000007,0.3500000000000001,-0.08499999999999996,0.08349999999999991,0.021600000000000064,0.03381999999999996,-0.25,-0.43500000000000005,-0.13,0.05235999999999996,-0.006099999999999994,-0.04394000000000009,1742255377.7775822
-0.33000000000000007,0.33499999999999996,-0.06499999999999995,0.01635999999999993,0.006720000000000059,0.025020000000000042,-0.255,-0.41500000000000004,-0.12,-0.007080000000000086,0.0026800000000000157,0.006599999999999939,1742255377.888719
-0.345,0.355,-0.05500000000000005,-0.011360000000000037,0.00048000000000003595,-0.0041599999999999415,-0.25,-0.395,-0.11499999999999999,-0.005240000000000022,-0.006720000000000059,0.006340000000000012,1742255378.0027788
-0.345,0.3500000000000001,-0.06499999999999995,-0.0030599999999999516,0.00048000000000003595,-0.00036000000000002697,-0.255,-0.405,-0.11499999999999999,-0.011840000000000073,-0.014519999999999977,0.0017000000000000348,1742255378.118458
-0.35,0.345,-0.06499999999999995,-0.01208000000000009,0.007440000000000113,-0.0009799999999999809,-0.255,-0.375,-0.15500000000000003,-0.0041599999999999415,-0.03637999999999997,0.013419999999999987,1742255378.230783
-0.385,0.3599999999999999,-0.025000000000000022,0.020140000000000047,0.04272000000000009,-0.0014600000000000168,-0.27,-0.42500000000000004,-0.14,0.016000000000000014,-0.05920000000000003,-0.01636000000000004,1742255378.3446689
-0.33499999999999996,0.3400000000000001,-0.040000000000000036,0.011600000000000055,0.05333999999999994,-0.006220000000000003,-0.21999999999999997,-0.395,-0.15000000000000002,-0.0034199999999999786,-0.029899999999999927,0.007560000000000011,1742255378.461044
-0.3400000000000001,0.375,-0.030000000000000027,-0.022580000000000044,0.04968000000000017,-0.010259999999999936,-0.22999999999999998,-0.41500000000000004,-0.15500000000000003,0.010620000000000074,-0.0625,-0.00988,1742255378.572708
-0.33000000000000007,0.3500000000000001,-0.0050000000000000044,-0.0025599999999998957,0.03929999999999989,-0.00537999999999994,-0.22999999999999998,-0.4099999999999999,-0.17000000000000004,-0.005979999999999985,-0.042360000000000064,-0.005240000000000022,1742255378.686763
-0.3400000000000001,0.365,0.010000000000000009,-0.012700000000000045,0.018179999999999863,-0.006960000000000077,-0.24,-0.41999999999999993,-0.17500000000000004,-0.006720000000000059,-0.028940000000000077,-0.01867999999999992,1742255378.800797
-0.33499999999999996,0.355,0.030000000000000027,0.01648000000000005,0.017079999999999984,-0.01966000000000001,-0.235,-0.4099999999999999,-0.18500000000000005,-0.028679999999999928,-0.03955999999999993,0.01758000000000015,1742255378.9196858
-0.3400000000000001,0.385,0.014999999999999902,-0.02942,0.005619999999999958,-0.001960000000000073,-0.21999999999999997,-0.405,-0.18500000000000005,-0.00988,-0.01097999999999999,0.0027999999999999137,1742255379.0287302
-0.33499999999999996,0.3700000000000001,0.02499999999999991,0.0025599999999998957,-0.0034199999999999786,0.0047600000000000975,-0.21999999999999997,-0.395,-0.18500000000000005,-0.01855999999999991,0.00024000000000001798,-0.005619999999999958,1742255379.1426718
-0.33499999999999996,0.365,0.014999999999999902,-0.014639999999999986,-0.0045199999999999685,0.008920000000000039,-0.21999999999999997,-0.41500000000000004,-0.17000000000000004,-0.01770000000000005,-0.0037800000000000056,0.0032999999999998586,1742255379.2581508
-0.33000000000000007,0.3700000000000001,0.004999999999999893,-0.021480000000000055,0.0035399999999998766,-0.001960000000000073,-0.20999999999999996,-0.42999999999999994,-0.15000000000000002,-0.020139999999999936,0.012199999999999989,0.01305999999999985,1742255379.3705668
-0.33000000000000007,0.3900000000000001,-0.010000000000000009,-0.01855999999999991,-0.009519999999999973,-0.00012000000000000899,-0.20999999999999996,-0.41999999999999993,-0.15500000000000003,-0.0029199999999999227,0.018920000000000048,0.006960000000000077,1742255379.484608
-0.33000000000000007,0.3700000000000001,-0.0050000000000000044,-0.005979999999999985,-0.018799999999999928,-0.0024400000000001087,-0.22499999999999998,-0.41999999999999993,-0.15500000000000003,-0.0014600000000000168,0.027700000000000058,-0.005499999999999949,1742255379.5986829
-0.33499999999999996,0.355,-0.010000000000000009,-0.00036000000000002697,-0.010259999999999936,0.004999999999999893,-0.22499999999999998,-0.42500000000000004,-0.135,-0.02185999999999999,0.01868000000000003,0.010860000000000092,1742255379.712555
-0.345,0.355,-0.020000000000000018,-0.013539999999999996,0.0024399999999999977,0.0046399999999999775,-0.22499999999999998,-0.41999999999999993,-0.12,-0.017820000000000058,0.013919999999999932,-0.007320000000000104,1742255379.826648
-0.33000000000000007,0.3799999999999999,-0.020000000000000018,-0.01770000000000005,-0.007320000000000104,0.0041599999999999415,-0.22999999999999998,-0.43500000000000005,-0.11499999999999999,-0.006720000000000059,0.0039000000000000146,-0.005499999999999949,1742255379.940698
-0.32499999999999996,0.355,-0.025000000000000022,-0.014780000000000015,-0.0007399999999999629,0.0042800000000000615,-0.22499999999999998,-0.4099999999999999,-0.11499999999999999,-0.009039999999999937,0.02429999999999999,-0.0014600000000000168,1742255380.0578089
-0.3400000000000001,0.3599999999999999,-0.030000000000000027,0.0043999999999999595,-0.007080000000000086,0.006220000000000114,-0.22499999999999998,-0.42500000000000004,-0.13,0.0035399999999998766,0.02293999999999996,-0.010739999999999972,1742255380.168579
-0.3400000000000001,0.3700000000000001,-0.020000000000000018,-0.009399999999999964,-0.006960000000000077,0.006340000000000012,-0.21999999999999997,-0.41999999999999993,-0.125,0.0026800000000000157,0.0026800000000000157,-0.01770000000000005,1742255380.2825322
-0.345,0.3599999999999999,-0.025000000000000022,-0.012940000000000063,-0.0022000000000000908,0.012199999999999989,-0.235,-0.42500000000000004,-0.11499999999999999,0.005619999999999958,-0.0031799999999999606,-0.017940000000000067,1742255380.3981051
-0.35,0.3500000000000001,-0.040000000000000036,-0.007200000000000095,0.00865999999999989,0.007079999999999975,-0.235,-0.41999999999999993,-0.10499999999999998,0.00024000000000001798,-0.01770000000000005,-0.0041599999999999415,1742255380.510678
-0.35,0.3400000000000001,-0.04500000000000004,-0.017220000000000013,0.01428000000000007,0.0032999999999998586,-0.26,-0.42999999999999994,-0.11499999999999999,0.007200000000000095,-0.02391999999999994,-0.008919999999999928,1742255380.624665
-0.345,0.3400000000000001,-0.04500000000000004,-0.017340000000000022,0.01977999999999991,0.0023200000000000998,-0.245,-0.41500000000000004,-0.11499999999999999,-0.0031799999999999606,0.012460000000000138,-0.0024400000000001087,1742255380.7387369
-0.36,0.3500000000000001,-0.03500000000000003,0.0048799999999999955,-0.010000000000000009,0.0047600000000000975,-0.245,-0.405,-0.10999999999999999,0.010000000000000009,0.02171999999999996,-0.019399999999999973,1742255380.858238
-0.355,0.345,-0.03500000000000003,0.006099999999999994,-0.011360000000000037,0.008419999999999872,-0.265,-0.4,-0.12,0.011600000000000055,0.034540000000000015,-0.008299999999999974,1742255380.966603
-0.37,0.345,-0.040000000000000036,-0.014399999999999968,-0.02100000000000002,0.016960000000000086,-0.28,-0.395,-0.09999999999999998,0.007200000000000095,0.015260000000000051,-0.010259999999999936,1742255381.080609
-0.365,0.31499999999999995,-0.06499999999999995,-0.010739999999999972,-0.012319999999999998,0.018059999999999965,-0.275,-0.39,-0.10499999999999998,0.011600000000000055,0.017340000000000133,-0.03417999999999999,1742255381.197979
-0.375,0.33499999999999996,-0.06499999999999995,-0.0022000000000000908,-0.012820000000000054,0.01855999999999991,-0.30000000000000004,-0.385,-0.09999999999999998,-0.0042799999999999505,0.008179999999999854,-0.014399999999999968,1742255381.308715
-0.385,0.31000000000000005,-0.07499999999999996,-0.025760000000000005,-0.015499999999999958,0.035880000000000134,-0.30499999999999994,-0.385,-0.09999999999999998,0.020999999999999908,0.00048000000000003595,-0.04248000000000007,1742255381.422588
-0.385,0.30000000000000004,-0.08499999999999996,0.030019999999999936,-0.013539999999999996,0.027579999999999938,-0.31000000000000005,-0.37,-0.10499999999999998,-0.0045199999999999685,0.0006200000000000649,0.0027999999999999137,1742255381.537549
-0.395,0.29499999999999993,-0.09499999999999997,-0.011360000000000037,-0.01525999999999994,-0.001960000000000073,-0.31499999999999995,-0.355,-0.09499999999999997,0.007440000000000113,-0.0007399999999999629,-0.020259999999999945,1742255381.65055
-0.385,0.2849999999999999,-0.08999999999999997,0.007440000000000113,-0.008179999999999965,0.010259999999999936,-0.32499999999999996,-0.365,-0.08999999999999997,0.005859999999999976,0.006460000000000132,-0.015739999999999976,1742255381.764551
-0.395,0.28,-0.09499999999999997,0.0023200000000000998,-0.00770000000000004,0.006099999999999994,-0.33000000000000007,-0.37,-0.10999999999999999,-0.005739999999999967,0.0027999999999999137,0.001100000000000101,1742255381.878443
-0.4,0.29499999999999993,-0.08499999999999996,0.0009799999999999809,-0.0012199999999999989,0.0018400000000000638,-0.32499999999999996,-0.36,-0.08999999999999997,-0.0029199999999999227,-0.0025599999999998957,0.006460000000000132,1742255381.992527
-0.39,0.2849999999999999,-0.09499999999999997,-0.00012000000000000899,-0.0007399999999999629,-0.0037800000000000056,-0.32000000000000006,-0.355,-0.09499999999999997,0.0013400000000001189,0.008539999999999992,0.009519999999999973,1742255382.106372
-0.39,0.29000000000000004,-0.08999999999999997,0.005740000000000078,0.00035999999999991594,-0.0018400000000000638,-0.31499999999999995,-0.37,-0.08499999999999996,-0.007320000000000104,0.010860000000000092,0.0047600000000000975,1742255382.220453
-0.395,0.29499999999999993,-0.07999999999999996,-0.0029199999999999227,-0.00024000000000001798,-0.0043999999999999595,-0.31000000000000005,-0.37,-0.08499999999999996,-0.005859999999999976,-0.008419999999999983,-0.0030599999999999516,1742255382.337903
-0.385,0.2849999999999999,-0.09999999999999998,0.001100000000000101,-0.0026799999999999047,0.0041599999999999415,-0.32000000000000006,-0.38,-0.07499999999999996,-0.0041599999999999415,0.00024000000000001798,0.00048000000000003595,1742255382.448424
-0.39,0.30000000000000004,-0.09999999999999998,-0.00012000000000000899,0.0012199999999999989,-0.00024000000000001798,-0.31499999999999995,-0.37,-0.07999999999999996,0.0026800000000000157,0.00537999999999994,0.0026800000000000157,1742255382.562345
-0.39,0.29000000000000004,-0.09499999999999997,0.0018400000000000638,-0.0025599999999998957,-0.0009799999999999809,-0.31499999999999995,-0.365,-0.07999999999999996,0.0032999999999998586,0.00770000000000004,-0.0007399999999999629,1742255382.678178
-0.39,0.29000000000000004,-0.09999999999999998,-0.0023200000000000998,-0.0040200000000000236,0.0026800000000000157,-0.32000000000000006,-0.38,-0.08999999999999997,-0.00036000000000002697,-0.0010999999999999899,-0.0009799999999999809,1742255382.790595
-0.4,0.2849999999999999,-0.08999999999999997,-0.0037800000000000056,-0.0012199999999999989,-0.0008599999999999719,-0.33000000000000007,-0.365,-0.07499999999999996,-0.022580000000000044,-0.04846000000000006,-0.0027999999999999137,1742255382.904614
-0.385,0.2749999999999999,-0.10999999999999999,-0.015499999999999958,0.00865999999999989,0.0,-0.31000000000000005,-0.36,-0.07499999999999996,-0.0010999999999999899,0.008179999999999854,0.007440000000000113,1742255383.018419
-0.385,0.29499999999999993,-0.09499999999999997,0.0006200000000000649,0.0021999999999999797,-0.0025599999999998957,-0.31000000000000005,-0.375,-0.07999999999999996,0.029779999999999918,0.006340000000000012,-0.007080000000000086,1742255383.1325288
-0.395,0.29499999999999993,-0.08499999999999996,0.03905999999999987,0.009160000000000057,0.0030599999999998406,-0.31499999999999995,-0.375,-0.09499999999999997,0.015740000000000087,0.011360000000000037,0.00550000000000006,1742255383.246423
-0.385,0.29000000000000004,-0.07999999999999996,0.01648000000000005,-0.006960000000000077,0.002080000000000082,-0.31499999999999995,-0.375,-0.09499999999999997,0.014399999999999968,0.00537999999999994,-0.00024000000000001798,1742255383.3604422
-0.405,0.30499999999999994,-0.07000000000000006,0.006720000000000059,0.0027999999999999137,0.0019599999999999618,-0.31000000000000005,-0.375,-0.10999999999999999,0.022580000000000044,0.00770000000000004,0.005859999999999976,1742255383.4743302
-0.4,0.29000000000000004,-0.06000000000000005,0.009519999999999973,0.005980000000000096,-0.0025599999999998957,-0.31499999999999995,-0.37,-0.10999999999999999,0.02404000000000006,0.0008600000000000829,-0.005859999999999976,1742255383.5885298
-0.4,0.30000000000000004,-0.05500000000000005,0.024540000000000006,0.01746000000000003,0.0034199999999999786,-0.30000000000000004,-0.355,-0.14,0.05566000000000004,-0.023440000000000016,-0.0050000000000000044,1742255383.702602
-0.4099999999999999,0.31000000000000005,-0.020000000000000018,0.05809999999999982,0.05249999999999999,-0.00012000000000000899,-0.32000000000000006,-0.365,-0.14,0.040039999999999853,-0.029299999999999993,0.0015800000000001369,1742255383.8171678
-0.39,0.2849999999999999,-0.0050000000000000044,0.021479999999999944,0.0343,-0.013419999999999987,-0.30499999999999994,-0.345,-0.17500000000000004,0.01648000000000005,-0.011360000000000037,0.0031799999999999606,1742255383.930411
-0.4099999999999999,0.31000000000000005,0.014999999999999902,0.03186,0.014639999999999986,-0.001960000000000073,-0.30499999999999994,-0.345,-0.17999999999999994,0.028079999999999883,-0.014900000000000024,0.0021999999999999797,1742255384.044397
-0.395,0.30499999999999994,0.02499999999999991,0.04188000000000014,0.009039999999999937,-0.009639999999999982,-0.29499999999999993,-0.365,-0.18999999999999995,0.00537999999999994,0.016240000000000032,0.021360000000000046,1742255384.15835
-0.39,0.31000000000000005,0.040000000000000036,0.01428000000000007,-0.02942,-0.025880000000000014,-0.2849999999999999,-0.355,-0.19500000000000006,-0.00782000000000005,-0.0026799999999999047,0.03516000000000008,1742255384.273022
-0.385,0.31000000000000005,0.02499999999999991,0.011600000000000055,-0.01317999999999997,-0.015139999999999931,-0.28,-0.37,-0.17999999999999994,-0.007940000000000058,0.02171999999999996,0.00770000000000004,1742255384.3864572
-0.385,0.32000000000000006,0.02499999999999991,-0.006220000000000003,-0.011099999999999999,-0.0029199999999999227,-0.2849999999999999,-0.375,-0.16500000000000004,-0.00012000000000000899,0.0,0.0014600000000000168,1742255384.501748
-0.38,0.32000000000000006,0.020000000000000018,-0.0034199999999999786,-0.0025599999999998957,-0.0037800000000000056,-0.275,-0.37,-0.17500000000000004,0.013299999999999867,-0.006840000000000068,0.0013400000000001189,1742255384.6173482
-0.385,0.32000000000000006,0.02499999999999991,0.019160000000000066,0.012700000000000156,0.0019599999999999618,-0.2849999999999999,-0.38,-0.18999999999999995,0.01758000000000015,-0.0032999999999999696,-0.007940000000000058,1742255384.728523
-0.385,0.31000000000000005,0.04499999999999993,0.005740000000000078,0.009759999999999991,0.004999999999999893,-0.28,-0.38,-0.18500000000000005,0.00024000000000001798,0.0007399999999999629,0.0024399999999999977,1742255384.8423738
-0.38,0.32000000000000006,0.040000000000000036,-0.005979999999999985,-0.007080000000000086,-0.0046399999999999775,-0.27,-0.355,-0.19999999999999996,-0.0048799999999999955,0.010620000000000074,0.007319999999999993,1742255384.9600902
-0.385,0.31499999999999995,0.040000000000000036,-0.011240000000000028,-0.0024400000000001087,0.0025599999999998957,-0.275,-0.37,-0.17500000000000004,-0.0010999999999999899,0.015139999999999931,0.0037799999999998946,1742255385.070459
-0.38,0.31499999999999995,0.020000000000000018,-0.0025599999999998957,-0.008179999999999965,0.0015800000000001369,-0.275,-0.375,-0.17500000000000004,-0.005120000000000013,0.00035999999999991594,0.012199999999999989,1742255385.184257
-0.375,0.31499999999999995,0.014999999999999902,-0.008419999999999983,-0.0048799999999999955,-0.006220000000000003,-0.265,-0.37,-0.17500000000000004,-0.019039999999999946,-0.0043999999999999595,0.02320000000000011,1742255385.298527
-0.38,0.32000000000000006,0.010000000000000009,-0.018440000000000012,-0.0012199999999999989,-0.011480000000000046,-0.26,-0.375,-0.17000000000000004,-0.0022000000000000908,0.0030599999999998406,-0.0039000000000000146,1742255385.412574
-0.38,0.33000000000000007,0.010000000000000009,0.0026800000000000157,0.0008600000000000829,0.0015800000000001369,-0.26,-0.39,-0.17000000000000004,-0.0040200000000000236,-0.0010999999999999899,0.0032999999999998586,1742255385.526377
-0.375,0.33000000000000007,0.004999999999999893,-0.0012199999999999989,0.0007399999999999629,-0.0035399999999999876,-0.255,-0.39,-0.17000000000000004,-0.0017000000000000348,-0.0048799999999999955,0.0036599999999999966,1742255385.64054
-0.375,0.32499999999999996,0.010000000000000009,-0.0015800000000000258,0.0031799999999999606,-0.0034199999999999786,-0.25,-0.39,-0.17000000000000004,-0.0048799999999999955,-0.006460000000000021,0.0042800000000000615,1742255385.757596
-0.37,0.32499999999999996,0.004999999999999893,-0.0045199999999999685,0.0007399999999999629,-0.0026799999999999047,-0.255,-0.39,-0.16500000000000004,-0.0012199999999999989,-0.0009799999999999809,-0.0006199999999999539,1742255385.868458
-0.375,0.32499999999999996,0.004999999999999893,-0.0015800000000000258,0.0007399999999999629,0.002080000000000082,-0.255,-0.39,-0.16500000000000004,-0.0023200000000000998,0.0025599999999998957,-0.00024000000000001798,1742255385.982315
-0.375,0.32499999999999996,0.0,-0.005619999999999958,-0.0035399999999999876,0.0009799999999999809,-0.255,-0.39,-0.16000000000000003,0.00537999999999994,0.014780000000000015,-0.0007399999999999629,1742255386.097588
-0.375,0.33000000000000007,0.004999999999999893,0.01317999999999997,-0.0007399999999999629,-0.0006199999999999539,-0.255,-0.4,-0.16500000000000004,0.00782000000000016,-0.0075599999999999,-0.00012000000000000899,1742255386.210309
-0.37,0.3400000000000001,0.004999999999999893,0.011360000000000037,0.005980000000000096,-0.0026799999999999047,-0.25,-0.395,-0.17500000000000004,0.022820000000000062,0.0037799999999998946,0.0019599999999999618,1742255386.324147
-0.375,0.3400000000000001,0.030000000000000027,0.03161999999999998,0.008059999999999956,-0.0026799999999999047,-0.25,-0.395,-0.19500000000000006,0.009759999999999991,0.0046399999999999775,0.027959999999999985,1742255386.439011
-0.37,0.32000000000000006,0.04499999999999993,0.02222000000000013,0.0029200000000000337,-0.02076,-0.245,-0.385,-0.17999999999999994,-0.005499999999999949,-0.0032999999999999696,0.020499999999999963,1742255386.552338
-0.36,0.33000000000000007,0.040000000000000036,0.0030599999999998406,-0.001960000000000073,-0.009399999999999964,-0.24,-0.385,-0.17999999999999994,0.00011999999999989797,0.0035399999999998766,0.0041599999999999415,1742255386.666137
-0.36,0.33000000000000007,0.04499999999999993,-0.0008599999999999719,-0.0043999999999999595,0.0,-0.235,-0.395,-0.17999999999999994,0.00011999999999989797,0.0047600000000000975,0.0006200000000000649,1742255386.7801778
-0.365,0.3400000000000001,0.04499999999999993,-0.0031799999999999606,-0.0037800000000000056,-0.0008599999999999719,-0.235,-0.405,-0.17500000000000004,-0.006460000000000021,0.011239999999999917,0.015619999999999967,1742255386.897791
-0.36,0.3400000000000001,0.03499999999999992,-0.01305999999999996,-0.01537999999999995,-0.012580000000000036,-0.21999999999999997,-0.405,-0.17500000000000004,-0.007200000000000095,0.00782000000000016,0.012820000000000054,1742255387.008245
-0.355,0.3400000000000001,0.030000000000000027,-0.02061999999999997,-0.01305999999999996,-0.008299999999999974,-0.21999999999999997,-0.4,-0.17999999999999994,-0.00660000000000005,0.005859999999999976,0.0036599999999999966,1742255387.122217
-0.355,0.345,0.02499999999999991,-0.0006199999999999539,-0.0010999999999999899,0.00048000000000003595,-0.21999999999999997,-0.4099999999999999,-0.16000000000000003,0.0,0.0014600000000000168,0.0018400000000000638,1742255387.23737
-0.355,0.345,0.014999999999999902,-0.00012000000000000899,-0.006960000000000077,-0.0007399999999999629,-0.21999999999999997,-0.4099999999999999,-0.15500000000000003,-0.007320000000000104,-0.0031799999999999606,0.009879999999999889,1742255387.3503518
-0.35,0.3400000000000001,0.010000000000000009,-0.009159999999999946,-0.0046399999999999775,-0.0050000000000000044,-0.21999999999999997,-0.4099999999999999,-0.15500000000000003,-0.0047599999999999865,-0.0031799999999999606,0.0023200000000000998,1742255387.464235
-0.355,0.345,0.0,-0.006460000000000021,-0.0047599999999999865,-0.0009799999999999809,-0.21999999999999997,-0.41500000000000004,-0.15000000000000002,-0.0047599999999999865,-0.0015800000000000258,-0.005979999999999985,1742255387.578704
-0.35,0.345,0.0,-0.008419999999999983,-0.0047599999999999865,0.006720000000000059,-0.21999999999999997,-0.405,-0.15000000000000002,0.0015800000000001369,0.005120000000000013,-0.02210000000000001,1742255387.692213
-0.355,0.3400000000000001,-0.0050000000000000044,-0.0014600000000000168,-0.005240000000000022,0.021479999999999944,-0.235,-0.42500000000000004,-0.15500000000000003,0.00537999999999994,0.006340000000000012,-0.019540000000000002,1742255387.8062289
-0.37,0.3400000000000001,0.004999999999999893,-0.0015800000000000258,-0.00012000000000000899,0.011360000000000037,-0.235,-0.41500000000000004,-0.16000000000000003,0.0025599999999998957,0.0021999999999999797,-0.0024400000000001087,1742255387.920201
-0.37,0.33499999999999996,0.0,0.002080000000000082,-0.00048000000000003595,0.0026800000000000157,-0.24,-0.4,-0.15500000000000003,0.0030599999999998406,0.0026800000000000157,-0.005979999999999985,1742255388.037002
-0.37,0.32499999999999996,0.0,-0.0015800000000000258,-0.0006199999999999539,0.004999999999999893,-0.24,-0.4,-0.15500000000000003,0.0024399999999999977,0.0039000000000000146,-0.005739999999999967,1742255388.148109
-0.375,0.33000000000000007,0.0,-0.0030599999999999516,-0.0006199999999999539,0.005619999999999958,-0.245,-0.395,-0.15500000000000003,0.002080000000000082,0.0,-0.013799999999999923,1742255388.2622
-0.375,0.32499999999999996,0.0,-0.0043999999999999595,0.006720000000000059,0.01110000000000011,-0.25,-0.395,-0.16000000000000003,0.006340000000000012,0.0018400000000000638,-0.02210000000000001,1742255388.377026
-0.37,0.32000000000000006,0.0,0.0,0.005980000000000096,0.010259999999999936,-0.26,-0.395,-0.16000000000000003,0.0026800000000000157,0.0012199999999999989,-0.006220000000000003,1742255388.490131
-0.38,0.32499999999999996,0.0,0.0026800000000000157,-0.0012199999999999989,0.0030599999999998406,-0.26,-0.385,-0.16000000000000003,-0.0010999999999999899,-0.0023200000000000998,-0.0046399999999999775,1742255388.604676
-0.38,0.31499999999999995,0.0,0.00024000000000001798,-0.00024000000000001798,0.0032999999999998586,-0.265,-0.365,-0.15500000000000003,0.012580000000000036,-0.0042799999999999505,-0.043340000000000045,1742255388.7181928
-0.38,0.31000000000000005,0.004999999999999893,0.0048799999999999955,0.007440000000000113,0.02929999999999988,-0.28,-0.4,-0.17000000000000004,0.0041599999999999415,0.0041599999999999415,-0.03088000000000002,1742255388.832078
-0.4,0.32000000000000006,0.0,-0.008059999999999956,-0.0039000000000000146,0.022460000000000147,-0.28,-0.375,-0.16000000000000003,-0.0008599999999999719,-0.0006199999999999539,-0.0022000000000000908,1742255388.946267
-0.395,0.30000000000000004,0.004999999999999893,-0.0018400000000000638,0.0045200000000000795,0.0046399999999999775,-0.29499999999999993,-0.355,-0.17000000000000004,0.011600000000000055,0.0013400000000001189,-0.03405999999999998,1742255389.060077
-0.405,0.29000000000000004,0.004999999999999893,0.0017000000000000348,0.0040199999999999125,0.027099999999999902,-0.31000000000000005,-0.3400000000000001,-0.16500000000000004,0.026000000000000023,0.009160000000000057,-0.06884000000000001,1742255389.177293
-0.405,0.2849999999999999,0.004999999999999893,-0.010000000000000009,0.014780000000000015,0.04516000000000009,-0.33000000000000007,-0.365,-0.16500000000000004,-0.0027999999999999137,0.0009799999999999809,0.00011999999999989797,1742255389.288056
-0.41999999999999993,0.27,0.014999999999999902,-0.0030599999999999516,-0.006460000000000021,0.0008600000000000829,-0.31499999999999995,-0.3400000000000001,-0.17000000000000004,-0.0022000000000000908,-0.0027999999999999137,0.009640000000000093,1742255389.402163
-0.405,0.26,0.004999999999999893,-0.0008599999999999719,-0.005859999999999976,-0.014519999999999977,-0.31000000000000005,-0.33499999999999996,-0.17500000000000004,-0.010619999999999963,0.001100000000000101,0.017819999999999947,1742255389.516075
-0.41500000000000004,0.2849999999999999,0.010000000000000009,0.0025599999999998957,-0.009399999999999964,-0.025399999999999978,-0.30499999999999994,-0.35,-0.16500000000000004,-0.019540000000000002,-0.0047599999999999865,0.02075999999999989,1742255389.630201
-0.405,0.28,0.0,-0.00048000000000003595,-0.005619999999999958,-0.012580000000000036,-0.31000000000000005,-0.38,-0.15500000000000003,-0.006460000000000021,0.0024399999999999977,-0.0034199999999999786,1742255389.744173
-0.4099999999999999,0.29000000000000004,0.0,-0.007320000000000104,-0.00537999999999994,0.0037799999999998946,-0.30499999999999994,-0.35,-0.16000000000000003,-0.005859999999999976,0.007079999999999975,-0.01305999999999996,1742255389.858175
-0.405,0.29000000000000004,-0.010000000000000009,-0.010140000000000038,-0.00024000000000001798,0.0018400000000000638,-0.30499999999999994,-0.35,-0.15000000000000002,-0.006840000000000068,0.015139999999999931,-0.011720000000000064,1742255389.972158
-0.405,0.29499999999999993,-0.015000000000000013,-0.020379999999999954,-0.008539999999999992,0.013679999999999914,-0.31499999999999995,-0.355,-0.16500000000000004,0.0031799999999999606,0.006460000000000132,-0.01097999999999999,1742255390.086171
-0.41999999999999993,0.28,-0.015000000000000013,-0.030399999999999983,0.00865999999999989,0.021120000000000028,-0.33499999999999996,-0.345,-0.16000000000000003,0.011239999999999917,-0.0037800000000000056,-0.02076,1742255390.200178
-0.42999999999999994,0.2849999999999999,-0.030000000000000027,-0.006840000000000068,-0.0050000000000000044,0.009640000000000093,-0.32499999999999996,-0.33000000000000007,-0.15500000000000003,0.0027999999999999137,-0.005120000000000013,-0.011600000000000055,1742255390.3166149
-0.41500000000000004,0.2650000000000001,-0.03500000000000003,0.001100000000000101,-0.00036000000000002697,-0.0030599999999999516,-0.33000000000000007,-0.32000000000000006,-0.17500000000000004,-0.013299999999999979,-0.00770000000000004,0.0027999999999999137,1742255390.428174
-0.41999999999999993,0.2749999999999999,-0.015000000000000013,-0.010739999999999972,0.005120000000000013,-0.0042799999999999505,-0.31000000000000005,-0.35,-0.16000000000000003,0.0023200000000000998,-0.0034199999999999786,-0.001960000000000073,1742255390.542149
-0.42999999999999994,0.27,-0.040000000000000036,0.017340000000000133,-0.0045199999999999685,-0.008539999999999992,-0.32000000000000006,-0.3400000000000001,-0.15500000000000003,-0.00770000000000004,0.0043999999999999595,0.0023200000000000998,1742255390.656196
-0.41999999999999993,0.2749999999999999,-0.03500000000000003,-0.005240000000000022,0.010380000000000056,0.0009799999999999809,-0.31499999999999995,-0.345,-0.14500000000000002,-0.017340000000000022,0.00537999999999994,0.011360000000000037,1742255390.770069
-0.405,0.27,-0.030000000000000027,0.01746000000000003,-0.00660000000000005,-0.0031799999999999606,-0.32000000000000006,-0.35,-0.14,-0.0034199999999999786,0.009039999999999937,0.0036599999999999966,1742255390.884043
-0.41500000000000004,0.2650000000000001,-0.025000000000000022,0.02624000000000004,-0.02844000000000002,-0.0046399999999999775,-0.32000000000000006,-0.345,-0.135,-0.017220000000000013,0.00035999999999991594,-0.001960000000000073,1742255391.0015109
-0.4099999999999999,0.26,-0.04500000000000004,-0.035760000000000014,-0.024540000000000006,0.0031799999999999606,-0.33000000000000007,-0.35,-0.12,-0.008919999999999928,-0.0040200000000000236,-0.03465999999999991,1742255391.112267
-0.4099999999999999,0.26,-0.05500000000000005,0.006839999999999957,-0.01317999999999997,0.026859999999999884,-0.32499999999999996,-0.36,-0.125,-0.006460000000000021,0.00011999999999989797,0.016599999999999948,1742255391.2259352
-0.41500000000000004,0.2749999999999999,-0.06000000000000005,-0.010499999999999954,0.0032999999999998586,-0.02210000000000001,-0.33000000000000007,-0.3400000000000001,-0.12,-0.0032999999999999696,0.0007399999999999629,0.005859999999999976,1742255391.340055
-0.4099999999999999,0.2650000000000001,-0.06000000000000005,-0.0008599999999999719,-0.0036599999999999966,-0.005619999999999958,-0.33499999999999996,-0.37,-0.11499999999999999,-0.008419999999999983,0.013679999999999914,0.02540000000000009,1742255391.454037
-0.42500000000000004,0.30000000000000004,-0.07499999999999996,-0.02513999999999994,-0.02307999999999999,-0.022220000000000018,-0.32000000000000006,-0.355,-0.13,-0.009159999999999946,-0.0039000000000000146,0.012700000000000156,1742255391.568039
-0.4099999999999999,0.28,-0.05500000000000005,-0.0009799999999999809,0.0041599999999999415,-0.015020000000000033,-0.30000000000000004,-0.365,-0.10999999999999999,-0.0030599999999999516,-0.008299999999999974,0.00865999999999989,1742255391.682143
-0.405,0.29499999999999993,-0.08999999999999997,-0.0024400000000001087,-0.0017000000000000348,-0.019399999999999973,-0.30000000000000004,-0.37,-0.13,-0.007940000000000058,-0.012460000000000027,-0.005739999999999967,1742255391.797385
-0.395,0.2749999999999999,-0.06499999999999995,-0.03064,0.008059999999999956,0.0007399999999999629,-0.31000000000000005,-0.375,-0.12,0.0035399999999998766,0.0017000000000000348,-0.011600000000000055,1742255391.910034
-0.395,0.30000000000000004,-0.07499999999999996,0.008920000000000039,0.0014600000000000168,-0.0009799999999999809,-0.31000000000000005,-0.35,-0.11499999999999999,-0.002080000000000082,0.0034199999999999786,-0.0030599999999999516,1742255392.0242188
-0.39,0.2749999999999999,-0.07000000000000006,0.0024399999999999977,-0.00048000000000003595,0.0019599999999999618,-0.32000000000000006,-0.35,-0.10999999999999999,-0.0041599999999999415,0.009039999999999937,-0.012319999999999998,1742255392.138007
-0.4,0.28,-0.07000000000000006,-0.006099999999999994,-0.0029199999999999227,0.010380000000000056,-0.33499999999999996,-0.37,-0.13,-0.0009799999999999809,0.00537999999999994,-0.017940000000000067,1742255392.252119
-0.405,0.29000000000000004,-0.07000000000000006,-0.013679999999999914,-0.002080000000000082,0.0014600000000000168,-0.32000000000000006,-0.33499999999999996,-0.10999999999999999,-0.0043999999999999595,-0.0045199999999999685,0.00537999999999994,1742255392.365997
-0.405,0.28,-0.08499999999999996,-0.0013400000000000079,0.0023200000000000998,-0.007940000000000058,-0.33000000000000007,-0.365,-0.10499999999999998,-0.005619999999999958,-0.013919999999999932,0.006340000000000012,1742255392.4801228
-0.4,0.2849999999999999,-0.08999999999999997,-0.002080000000000082,-0.0043999999999999595,-0.006099999999999994,-0.31499999999999995,-0.365,-0.11499999999999999,-0.016240000000000032,-0.014900000000000024,0.028200000000000003,1742255392.596412
-0.39,0.29000000000000004,-0.07999999999999996,-0.0007399999999999629,0.0012199999999999989,-0.02648000000000006,-0.29499999999999993,-0.375,-0.13,-0.01636000000000004,-0.005739999999999967,-0.0047599999999999865,1742255392.708127
-0.39,0.29000000000000004,-0.08499999999999996,-0.01537999999999995,0.006599999999999939,0.0008600000000000829,-0.29499999999999993,-0.365,-0.11499999999999999,-0.00782000000000005,-0.01978000000000002,-0.007940000000000058,1742255392.822007
-0.38,0.29000000000000004,-0.07999999999999996,-0.0035399999999999876,0.015260000000000051,0.009519999999999973,-0.31499999999999995,-0.37,-0.10499999999999998,-0.0024400000000001087,0.005239999999999911,-0.0050000000000000044,1742255392.939914
-0.4,0.29000000000000004,-0.09499999999999997,-0.009279999999999955,0.0019599999999999618,-0.0025599999999998957,-0.31000000000000005,-0.36,-0.12,-0.0014600000000000168,0.0014600000000000168,0.0030599999999998406,1742255393.049919
-0.395,0.29000000000000004,-0.07999999999999996,-0.0013400000000000079,0.00024000000000001798,0.0036599999999999966,-0.31000000000000005,-0.37,-0.09499999999999997,-0.0035399999999999876,0.00048000000000003595,0.0042800000000000615,1742255393.164004
-0.4,0.30499999999999994,-0.09999999999999998,0.005619999999999958,0.008299999999999974,-0.015139999999999931,-0.31000000000000005,-0.375,-0.10999999999999999,-0.03637999999999997,0.0036599999999999966,0.012460000000000138,1742255393.277927
-0.39,0.30499999999999994,-0.09999999999999998,-0.037839999999999985,-0.011360000000000037,-0.024660000000000015,-0.31000000000000005,-0.385,-0.10999999999999999,-0.024419999999999997,0.0032999999999998586,0.012580000000000036,1742255393.392011
-0.4,0.30499999999999994,-0.09499999999999997,-0.013299999999999979,-0.0037800000000000056,-0.020499999999999963,-0.30499999999999994,-0.38,-0.08499999999999996,-0.01415999999999995,-0.007440000000000002,0.006099999999999994,1742255393.505996
-0.375,0.30000000000000004,-0.10999999999999999,-0.005859999999999976,-0.0014600000000000168,-0.011240000000000028,-0.30000000000000004,-0.38,-0.07999999999999996,-0.014639999999999986,0.0013400000000001189,0.0025599999999998957,1742255393.619831
-0.37,0.30000000000000004,-0.10999999999999999,-0.012700000000000045,0.0006200000000000649,-0.006099999999999994,-0.30499999999999994,-0.39,-0.07000000000000006,-0.020019999999999927,0.0015800000000001369,0.008419999999999872,1742255393.7365131
-0.38,0.31000000000000005,-0.11499999999999999,-0.007940000000000058,0.0029200000000000337,-0.008660000000000001,-0.30499999999999994,-0.385,-0.07499999999999996,-0.01415999999999995,0.0029200000000000337,-0.0045199999999999685,1742255393.847911
-0.375,0.31000000000000005,-0.11499999999999999,-0.01208000000000009,0.00024000000000001798,-0.0010999999999999899,-0.30499999999999994,-0.385,-0.06000000000000005,-0.00660000000000005,0.0,-0.0048799999999999955,1742255393.961895
-0.37,0.30000000000000004,-0.12,0.0034199999999999786,-0.01317999999999997,0.00770000000000004,-0.31000000000000005,-0.385,-0.06000000000000005,-0.0041599999999999415,0.0014600000000000168,-0.009039999999999937,1742255394.077421
-0.38,0.31000000000000005,-0.125,-0.006220000000000003,0.00035999999999991594,0.011360000000000037,-0.30499999999999994,-0.39,-0.06000000000000005,0.0031799999999999606,0.0039000000000000146,-0.0036599999999999966,1742255394.189899
-0.385,0.30499999999999994,-0.12,-0.0040200000000000236,0.012580000000000036,0.00550000000000006,-0.30000000000000004,-0.37,-0.06000000000000005,0.0029200000000000337,-0.0035399999999999876,0.0040199999999999125,1742255394.3038158
-0.375,0.29499999999999993,-0.12,-0.015020000000000033,0.011360000000000037,0.0008600000000000829,-0.30499999999999994,-0.38,-0.06499999999999995,-0.0008599999999999719,0.0040199999999999125,-0.0031799999999999606,1742255394.418386
-0.385,0.30499999999999994,-0.12,-0.0018400000000000638,0.0034199999999999786,-0.0008599999999999719,-0.30499999999999994,-0.38,-0.05500000000000005,0.005859999999999976,0.010860000000000092,0.009400000000000075,1742255394.531735
-0.38,0.29000000000000004,-0.12,-0.02294000000000007,0.001100000000000101,-0.005120000000000013,-0.30499999999999994,-0.365,-0.07999999999999996,0.030999999999999917,-0.0040200000000000236,-0.03637999999999997,1742255394.645875
-0.39,0.29000000000000004,-0.11499999999999999,0.02404000000000006,0.00024000000000001798,0.035519999999999996,-0.31000000000000005,-0.385,-0.06000000000000005,-0.0036599999999999966,-0.0041599999999999415,0.013419999999999987,1742255394.759872
-0.38,0.2849999999999999,-0.135,-0.00012000000000000899,0.0024399999999999977,0.0017000000000000348,-0.31000000000000005,-0.375,-0.07000000000000006,-0.0012199999999999989,0.001100000000000101,0.018059999999999965,1742255394.876853
-0.385,0.29000000000000004,-0.135,-0.023799999999999932,-0.028940000000000077,-0.024540000000000006,-0.32000000000000006,-0.385,-0.06000000000000005,0.006599999999999939,-0.0006199999999999539,0.009039999999999937,1742255394.98788
-0.375,0.2849999999999999,-0.135,0.0036599999999999966,-0.0029199999999999227,-0.0036599999999999966,-0.30000000000000004,-0.37,-0.07000000000000006,-0.0025599999999998957,-0.01208000000000009,-0.005859999999999976,1742255395.1020968
-0.375,0.29499999999999993,-0.125,0.006099999999999994,0.006220000000000114,0.0024399999999999977,-0.30499999999999994,-0.38,-0.07499999999999996,0.00048000000000003595,0.0027999999999999137,-0.0015800000000000258,1742255395.216388
-0.375,0.30000000000000004,-0.12,0.0023200000000000998,0.0008600000000000829,-0.00036000000000002697,-0.29499999999999993,-0.38,-0.07499999999999996,0.0040199999999999125,0.002080000000000082,-0.008419999999999983,1742255395.329774
-0.38,0.29499999999999993,-0.11499999999999999,0.00024000000000001798,0.0027999999999999137,0.0025599999999998957,-0.30499999999999994,-0.38,-0.07499999999999996,0.0024399999999999977,-0.0014600000000000168,-0.009159999999999946,1742255395.44387
-0.38,0.29000000000000004,-0.11499999999999999,-0.0031799999999999606,0.004999999999999893,0.007440000000000113,-0.30499999999999994,-0.38,-0.07499999999999996,-0.00012000000000000899,-0.0024400000000001087,-0.0039000000000000146,1742255395.557927
-0.38,0.29499999999999993,-0.125,-0.0008599999999999719,0.001100000000000101,0.00048000000000003595,-0.31000000000000005,-0.375,-0.07000000000000006,-0.0017000000000000348,-0.0006199999999999539,-0.0017000000000000348,1742255395.671947
-0.38,0.29000000000000004,-0.12,-0.00024000000000001798,-0.0018400000000000638,0.0017000000000000348,-0.31499999999999995,-0.375,-0.07000000000000006,-0.0037800000000000056,0.0017000000000000348,-0.00024000000000001798,1742255395.785852
-0.38,0.2849999999999999,-0.12,-0.0022000000000000908,-0.0017000000000000348,0.0015800000000001369,-0.31499999999999995,-0.37,-0.06499999999999995,-0.00537999999999994,0.0036599999999999966,-0.0022000000000000908,1742255395.899824
-0.385,0.2849999999999999,-0.125,-0.007440000000000002,-0.0025599999999998957,0.0026800000000000157,-0.31499999999999995,-0.37,-0.06499999999999995,-0.0035399999999999876,0.0041599999999999415,-0.006460000000000021,1742255396.0157728
-0.385,0.2849999999999999,-0.13,-0.009279999999999955,-0.0007399999999999629,0.00770000000000004,-0.32000000000000006,-0.37,-0.06499999999999995,-0.0031799999999999606,0.0013400000000001189,-0.0013400000000000079,1742255396.127827
-0.385,0.28,-0.13,-0.005499999999999949,-0.0032999999999999696,0.0043999999999999595,-0.31499999999999995,-0.37,-0.06000000000000005,-0.0027999999999999137,-0.0008599999999999719,-0.0050000000000000044,1742255396.241921
-0.385,0.28,-0.135,-0.0032999999999999696,0.00011999999999989797,0.0045200000000000795,-0.32499999999999996,-0.375,-0.06000000000000005,0.0,0.00011999999999989797,-0.0045199999999999685,1742255396.3567832
-0.39,0.28,-0.14,-0.0048799999999999955,-0.0008599999999999719,0.0032999999999998586,-0.32499999999999996,-0.365,-0.06000000000000005,-0.0009799999999999809,-0.0012199999999999989,0.00035999999999991594,1742255396.469784
-0.39,0.27,-0.135,-0.0034199999999999786,-0.001960000000000073,0.0008600000000000829,-0.32499999999999996,-0.37,-0.06000000000000005,-0.0025599999999998957,0.0029200000000000337,0.0006200000000000649,1742255396.5837471
-0.39,0.2749999999999999,-0.14,-0.0009799999999999809,-0.0013400000000000079,-0.00036000000000002697,-0.32499999999999996,-0.37,-0.06000000000000005,0.0013400000000001189,0.0008600000000000829,-0.0006199999999999539,1742255396.6977222
-0.39,0.2749999999999999,-0.135,-0.0022000000000000908,0.0018400000000000638,-0.0018400000000000638,-0.32499999999999996,-0.37,-0.06000000000000005,-0.0029199999999999227,0.0023200000000000998,0.0006200000000000649,1742255396.811723
-0.395,0.28,-0.13,-0.0050000000000000044,-0.0009799999999999809,-0.0035399999999999876,-0.32000000000000006,-0.355,-0.050000000000000044,-0.006460000000000021,-0.00537999999999994,-0.0029199999999999227,1742255396.9258711
-0.38,0.2749999999999999,-0.14,-0.00537999999999994,0.0007399999999999629,0.0021999999999999797,-0.32000000000000006,-0.38,-0.050000000000000044,-0.0048799999999999955,0.0041599999999999415,-0.0036599999999999966,1742255397.039799
-0.395,0.2849999999999999,-0.14,-0.0037800000000000056,-0.0024400000000001087,0.0012199999999999989,-0.32000000000000006,-0.365,-0.050000000000000044,0.0012199999999999989,0.0012199999999999989,0.001100000000000101,1742255397.156867
-0.39,0.27,-0.14500000000000002,0.0025599999999998957,0.0037799999999998946,-0.00012000000000000899,-0.32499999999999996,-0.37,-0.04500000000000004,0.0006200000000000649,0.00048000000000003595,-0.00024000000000001798,1742255397.2676952
-0.385,0.2749999999999999,-0.14500000000000002,0.005740000000000078,-0.0024400000000001087,-0.002080000000000082,-0.32499999999999996,-0.365,-0.05500000000000005,0.0045200000000000795,0.0029200000000000337,-0.00012000000000000899,1742255397.381688
-0.39,0.28,-0.135,0.011360000000000037,-0.002080000000000082,-0.0022000000000000908,-0.32499999999999996,-0.37,-0.050000000000000044,-0.00024000000000001798,-0.0018400000000000638,0.0035399999999998766,1742255397.4958
-0.385,0.28,-0.14,0.010620000000000074,-0.0037800000000000056,-0.0075599999999999,-0.32000000000000006,-0.385,-0.020000000000000018,0.0006200000000000649,0.01966000000000001,0.018059999999999965,1742255397.609636
-0.385,0.30000000000000004,-0.17500000000000004,-0.0042799999999999505,-0.036739999999999995,-0.024780000000000024,-0.31499999999999995,-0.38,-0.07499999999999996,0.0017000000000000348,0.020259999999999945,-0.0031799999999999606,1742255397.723686
-0.36,0.2749999999999999,-0.12,-0.011360000000000037,-0.01427999999999996,-0.005979999999999985,-0.32499999999999996,-0.385,-0.04500000000000004,0.012939999999999952,-0.012940000000000063,-0.011099999999999999,1742255397.837758
-0.38,0.29000000000000004,-0.16000000000000003,0.006839999999999957,0.0035399999999998766,-0.0027999999999999137,-0.31499999999999995,-0.375,-0.040000000000000036,0.010860000000000092,-0.00660000000000005,-0.0012199999999999989,1742255397.951684
-0.355,0.2849999999999999,-0.14500000000000002,-0.0034199999999999786,0.00011999999999989797,-0.007200000000000095,-0.31499999999999995,-0.35,-0.040000000000000036,0.006839999999999957,-0.0025599999999998957,-0.0047599999999999865,1742255398.065851
-0.36,0.28,-0.15500000000000003,-0.0007399999999999629,0.00865999999999989,0.0046399999999999775,-0.32000000000000006,-0.375,-0.050000000000000044,0.0043999999999999595,0.0031799999999999606,-0.005240000000000022,1742255398.1796238
-0.37,0.30000000000000004,-0.15000000000000002,-0.002080000000000082,0.0006200000000000649,0.0008600000000000829,-0.3400000000000001,-0.365,-0.06000000000000005,0.007940000000000058,-0.005240000000000022,-0.006099999999999994,1742255398.296635
-0.365,0.29499999999999993,-0.14500000000000002,0.00011999999999989797,0.0048799999999999955,0.0040199999999999125,-0.33000000000000007,-0.36,-0.050000000000000044,-0.00036000000000002697,-0.0006199999999999539,-0.0026799999999999047,1742255398.4079812
-0.37,0.29499999999999993,-0.15500000000000003,-0.0022000000000000908,0.0012199999999999989,0.0025599999999998957,-0.33499999999999996,-0.365,-0.04500000000000004,0.0021999999999999797,-0.0032999999999999696,-0.0010999999999999899,1742255398.521686
-0.37,0.29000000000000004,-0.15500000000000003,0.0025599999999998957,-0.0039000000000000146,0.0032999999999998586,-0.33000000000000007,-0.365,-0.05500000000000005,-0.0009799999999999809,0.0032999999999998586,0.0,1742255398.637136
-0.375,0.29000000000000004,-0.15000000000000002,-0.0039000000000000146,-0.0030599999999999516,0.0007399999999999629,-0.33000000000000007,-0.365,-0.06000000000000005,0.006220000000000114,-0.007940000000000058,-0.00048000000000003595,1742255398.749674
-0.375,0.2849999999999999,-0.15500000000000003,0.0026800000000000157,0.0027999999999999137,-0.00048000000000003595,-0.33499999999999996,-0.36,-0.05500000000000005,0.0037799999999998946,-0.0023200000000000998,-0.0014600000000000168,1742255398.863679
-0.37,0.29000000000000004,-0.15500000000000003,-0.0008599999999999719,0.002080000000000082,0.0012199999999999989,-0.32499999999999996,-0.35,-0.06000000000000005,-0.0010999999999999899,-0.00036000000000002697,0.006099999999999994,1742255398.9803982
-0.37,0.28,-0.14500000000000002,-0.005619999999999958,-0.0025599999999998957,-0.0023200000000000998,-0.32499999999999996,-0.36,-0.05500000000000005,-0.0022000000000000908,-0.0018400000000000638,0.001100000000000101,1742255399.091655
-0.375,0.29499999999999993,-0.15500000000000003,-0.008919999999999928,0.0009799999999999809,0.00024000000000001798,-0.32499999999999996,-0.36,-0.05500000000000005,0.0046399999999999775,-0.005979999999999985,0.0029200000000000337,1742255399.205594
-0.37,0.2849999999999999,-0.15500000000000003,0.0007399999999999629,0.0032999999999998586,-0.0017000000000000348,-0.33000000000000007,-0.355,-0.05500000000000005,-0.0015800000000000258,-0.0025599999999998957,-0.0048799999999999955,1742255399.319764
-0.375,0.2849999999999999,-0.15500000000000003,-0.0045199999999999685,0.0021999999999999797,0.0040199999999999125,-0.33000000000000007,-0.37,-0.06000000000000005,-0.0024400000000001087,0.00035999999999991594,-0.00537999999999994,1742255399.433651
-0.38,0.29499999999999993,-0.15000000000000002,-0.0013400000000000079,0.005239999999999911,0.0014600000000000168,-0.33000000000000007,-0.36,-0.06000000000000005,0.00035999999999991594,-0.005739999999999967,0.0013400000000001189,1742255399.547786
-0.385,0.2650000000000001,0.16999999999999993,-0.02210000000000001,0.0032999999999998586,-0.0029199999999999227,-0.2849999999999999,-0.255,-0.355,0.00048000000000003595,-0.007200000000000095,-0.00770000000000004,1742258646.9345448
-0.385,0.26,0.15500000000000003,-0.03698000000000001,0.0037799999999998946,0.0046399999999999775,-0.27,-0.25,-0.32000000000000006,-0.019159999999999955,-0.005120000000000013,-0.011360000000000037,1742258647.052178
-0.38,0.2749999999999999,0.15500000000000003,-0.014519999999999977,0.0031799999999999606,0.006220000000000114,-0.2849999999999999,-0.26,-0.33499999999999996,-0.010739999999999972,-0.0037800000000000056,-0.00012000000000000899,1742258647.162657
-0.4099999999999999,0.2749999999999999,0.1200000000000001,-0.026739999999999986,-0.010259999999999936,0.01746000000000003,-0.28,-0.275,-0.30000000000000004,-0.0025599999999998957,0.00537999999999994,-0.013919999999999932,1742258647.280923
-0.4,0.2650000000000001,0.1299999999999999,-0.01085999999999998,-0.019399999999999973,0.006599999999999939,-0.29000000000000004,-0.28,-0.32499999999999996,-0.017080000000000095,0.009759999999999991,0.002080000000000082,1742258647.391704
-0.4099999999999999,0.2650000000000001,0.125,0.0026800000000000157,0.0023200000000000998,0.0007399999999999629,-0.2849999999999999,-0.265,-0.30499999999999994,-0.011099999999999999,0.010380000000000056,-0.0023200000000000998,1742258647.504561
-0.39,0.2549999999999999,0.11499999999999999,-0.016120000000000023,0.0023200000000000998,-0.0007399999999999629,-0.28,-0.26,-0.30000000000000004,-0.008179999999999965,0.00035999999999991594,-0.009159999999999946,1742258647.61869
-0.395,0.25,0.11499999999999999,-0.022340000000000027,-0.006720000000000059,0.012199999999999989,-0.30000000000000004,-0.265,-0.30000000000000004,-0.029059999999999975,0.015859999999999985,-0.020259999999999945,1742258647.732747
-0.41500000000000004,0.2849999999999999,0.1100000000000001,-0.019399999999999973,-0.0024400000000001087,0.009400000000000075,-0.30499999999999994,-0.275,-0.28,-0.008539999999999992,0.021120000000000028,-0.010140000000000038,1742258647.846505
-0.41500000000000004,0.28,0.1100000000000001,0.016720000000000068,-0.0045199999999999685,0.006960000000000077,-0.32000000000000006,-0.29499999999999993,-0.275,-0.0023200000000000998,0.011360000000000037,-0.01636000000000004,1742258647.960487
-0.41999999999999993,0.27,0.10000000000000009,-0.005240000000000022,-0.01537999999999995,-0.0009799999999999809,-0.32499999999999996,-0.26,-0.27,-0.0042799999999999505,0.013299999999999867,-0.0018400000000000638,1742258648.074475
-0.41500000000000004,0.26,0.09000000000000008,0.016119999999999912,-0.0046399999999999775,-0.001960000000000073,-0.32499999999999996,-0.265,-0.26,-0.005240000000000022,0.008539999999999992,0.006599999999999939,1742258648.191593
-0.42500000000000004,0.24,0.1100000000000001,0.0045200000000000795,-0.00036000000000002697,0.009279999999999955,-0.33000000000000007,-0.255,-0.30000000000000004,0.09251999999999994,-0.009399999999999964,-0.09129999999999994,1742258648.302499
-0.42500000000000004,0.2549999999999999,0.1100000000000001,-0.03601999999999994,0.007440000000000113,-0.0014600000000000168,-0.345,-0.22499999999999998,-0.29000000000000004,0.019279999999999964,-0.0006199999999999539,-0.0029199999999999227,1742258648.41647
-0.4099999999999999,0.2650000000000001,0.08000000000000007,-0.022820000000000062,0.01428000000000007,-0.021120000000000028,-0.345,-0.25,-0.27,0.013800000000000034,-0.01537999999999995,0.04370000000000007,1742258648.53282
-0.395,0.29000000000000004,0.09000000000000008,0.0027999999999999137,-0.010619999999999963,-0.038940000000000086,-0.32000000000000006,-0.26,-0.27,0.005859999999999976,-0.012820000000000054,0.05944000000000016,1742258648.644428
-0.4,0.2749999999999999,0.09499999999999997,0.0047600000000000975,-0.02088000000000001,-0.032340000000000035,-0.29499999999999993,-0.255,-0.32000000000000006,-0.014039999999999941,0.0046399999999999775,0.04455999999999993,1742258648.758401
-0.38,0.2849999999999999,0.07499999999999996,-0.005859999999999976,-0.0018400000000000638,-0.022580000000000044,-0.275,-0.29000000000000004,-0.30000000000000004,-0.03064,-0.006840000000000068,0.040159999999999973,1742258648.8725371
-0.38,0.30000000000000004,0.09499999999999997,-0.018799999999999928,0.00011999999999989797,-0.007440000000000002,-0.265,-0.29499999999999993,-0.2849999999999999,-0.029779999999999918,0.0030599999999998406,0.031119999999999814,1742258648.98643
-0.39,0.31000000000000005,0.09000000000000008,0.004999999999999893,0.01428000000000007,-0.0036599999999999966,-0.28,-0.32499999999999996,-0.30000000000000004,0.004999999999999893,-0.007200000000000095,0.01195999999999997,1742258649.1004002
-0.41500000000000004,0.30499999999999994,0.06499999999999995,0.015139999999999931,0.028200000000000003,-0.0037800000000000056,-0.2849999999999999,-0.30499999999999994,-0.275,0.024900000000000144,-0.011840000000000073,-0.0043999999999999595,1742258649.214464
-0.365,0.29000000000000004,0.07499999999999996,-0.0034199999999999786,0.013539999999999885,-0.0013400000000000079,-0.26,-0.29000000000000004,-0.27,0.008299999999999974,-0.0027999999999999137,-0.0006199999999999539,1742258649.328489
-0.38,0.30000000000000004,0.08499999999999996,-0.006720000000000059,-0.002080000000000082,0.009519999999999973,-0.265,-0.29499999999999993,-0.28,0.009879999999999889,0.008299999999999974,-0.006340000000000012,1742258649.4424288
-0.385,0.30000000000000004,0.09499999999999997,-0.008660000000000001,-0.009039999999999937,0.02624000000000004,-0.265,-0.2849999999999999,-0.2849999999999999,0.005980000000000096,0.005980000000000096,-0.01415999999999995,1742258649.556392
-0.41500000000000004,0.30499999999999994,0.09499999999999997,0.0025599999999998957,-0.005859999999999976,0.021360000000000046,-0.29000000000000004,-0.31499999999999995,-0.30000000000000004,0.005859999999999976,0.016720000000000068,-0.01317999999999997,1742258649.671895
-0.4099999999999999,0.29000000000000004,0.10000000000000009,-0.0014600000000000168,-0.008179999999999965,-0.0040200000000000236,-0.2849999999999999,-0.29499999999999993,-0.30000000000000004,-0.00012000000000000899,-0.0009799999999999809,0.0024399999999999977,1742258649.784511
-0.4099999999999999,0.28,0.09499999999999997,0.010499999999999954,-0.0026799999999999047,-0.01746000000000003,-0.2849999999999999,-0.29499999999999993,-0.30000000000000004,-0.0040200000000000236,-0.010739999999999972,0.01550000000000007,1742258649.8985238
-0.395,0.29499999999999993,0.10000000000000009,0.006220000000000114,0.018920000000000048,-0.03613999999999995,-0.275,-0.31000000000000005,-0.2849999999999999,0.010000000000000009,0.0008600000000000829,0.049799999999999844,1742258650.013084
-0.36,0.27,0.10499999999999998,-0.020139999999999936,0.020140000000000047,-0.039919999999999956,-0.25,-0.29000000000000004,-0.28,-0.020499999999999963,-0.014780000000000015,0.024780000000000024,1742258650.126726
-0.35,0.29000000000000004,0.07499999999999996,-0.035640000000000005,-0.006340000000000012,0.00770000000000004,-0.235,-0.30000000000000004,-0.27,-0.02076,0.0041599999999999415,-0.027100000000000013,1742258650.240505
-0.375,0.32000000000000006,0.07499999999999996,-0.055299999999999905,-0.013299999999999979,0.02733999999999992,-0.255,-0.35,-0.28,-0.03539999999999999,0.008299999999999974,-0.026120000000000032,1742258650.354621
-0.385,0.33000000000000007,0.06499999999999995,-0.010499999999999954,0.0009799999999999809,0.01990000000000003,-0.26,-0.35,-0.275,-0.03308,-0.015739999999999976,-0.019039999999999946,1742258650.4727669
-0.4,0.33499999999999996,0.07000000000000006,0.02210000000000001,0.008059999999999956,-0.0023200000000000998,-0.255,-0.355,-0.275,0.0048799999999999955,-0.014519999999999977,0.0017000000000000348,1742258650.582519
-0.4,0.32499999999999996,0.07000000000000006,0.031500000000000083,0.02966000000000002,-0.021720000000000073,-0.25,-0.35,-0.27,0.022699999999999942,-0.022820000000000062,0.022460000000000147,1742258650.696509
-0.37,0.30000000000000004,0.09499999999999997,0.048699999999999966,0.03917999999999999,-0.03394000000000008,-0.245,-0.31000000000000005,-0.28,0.052240000000000064,-0.031000000000000028,0.014040000000000052,1742258650.810445
-0.35,0.2849999999999999,0.125,0.012820000000000054,0.013800000000000034,-0.017940000000000067,-0.235,-0.275,-0.29499999999999993,0.04064000000000001,-0.008419999999999983,-0.00024000000000001798,1742258650.924459
-0.36,0.30499999999999994,0.135,0.03735999999999984,0.031119999999999814,-0.007080000000000086,-0.22499999999999998,-0.29499999999999993,-0.33000000000000007,0.052000000000000046,-0.016720000000000068,-0.015859999999999985,1742258651.038576
-0.355,0.32499999999999996,0.17500000000000004,0.014399999999999968,0.0354000000000001,0.0039000000000000146,-0.235,-0.275,-0.36,0.025519999999999987,-0.02198,0.00048000000000003595,1742258651.152909
-0.32000000000000006,0.29499999999999993,0.16500000000000004,0.07874000000000003,0.05577999999999994,-0.025399999999999978,-0.19999999999999996,-0.255,-0.3400000000000001,0.06567999999999996,-0.05018,0.001100000000000101,1742258651.266316
-0.30499999999999994,0.31000000000000005,0.2250000000000001,0.033560000000000034,0.021600000000000064,0.0007399999999999629,-0.18999999999999995,-0.255,-0.38,0.03233999999999981,-0.02307999999999999,-0.011840000000000073,1742258651.380429
-0.30499999999999994,0.30000000000000004,0.23499999999999988,0.012820000000000054,-0.0034199999999999786,0.0,-0.19999999999999996,-0.22499999999999998,-0.395,0.026859999999999884,0.007560000000000011,-0.010619999999999963,1742258651.4943192
-0.33000000000000007,0.29499999999999993,0.25,0.015139999999999931,-0.010259999999999936,0.009160000000000057,-0.20999999999999996,-0.22499999999999998,-0.4099999999999999,0.01195999999999997,0.009759999999999991,-0.01427999999999996,1742258651.612271
-0.33499999999999996,0.29000000000000004,0.2450000000000001,-0.014639999999999986,-0.022220000000000018,0.016240000000000032,-0.21999999999999997,-0.21999999999999997,-0.4099999999999999,-0.008179999999999965,0.014520000000000088,-0.009519999999999973,1742258651.722412
-0.35,0.29000000000000004,0.23499999999999988,-0.03834000000000004,-0.025880000000000014,0.008059999999999956,-0.235,-0.25,-0.39,-0.05467999999999995,0.010739999999999972,0.012460000000000138,1742258651.837429
-0.37,0.30499999999999994,0.18500000000000005,-0.17468000000000006,-0.08557999999999999,0.017079999999999984,-0.22999999999999998,-0.265,-0.365,-0.19520000000000004,0.04150000000000009,0.04711999999999983,1742258651.9536471
-0.35,0.31499999999999995,0.1200000000000001,-0.11009999999999998,-0.04405999999999999,0.020019999999999927,-0.24,-0.3400000000000001,-0.28,-0.10560000000000003,0.025519999999999987,-0.002080000000000082,1742258652.0644338
-0.38,0.32000000000000006,0.06499999999999995,-0.056520000000000015,-0.03588000000000002,0.017819999999999947,-0.255,-0.38,-0.245,-0.03808,0.00782000000000016,-0.017340000000000022,1742258652.178415
-0.38,0.3400000000000001,0.030000000000000027,-0.03625999999999996,-0.04137999999999997,0.01428000000000007,-0.255,-0.375,-0.19500000000000006,-0.012580000000000036,0.025519999999999987,0.009160000000000057,1742258652.295758
-0.375,0.31000000000000005,0.014999999999999902,0.0023200000000000998,-0.04382000000000008,0.020019999999999927,-0.245,-0.38,-0.18999999999999995,-0.020499999999999963,0.05164000000000013,0.005859999999999976,1742258652.4063392
-0.38,0.30499999999999994,0.010000000000000009,-0.00048000000000003595,-0.028940000000000077,0.009640000000000093,-0.26,-0.375,-0.17999999999999994,-0.01770000000000005,0.019279999999999964,0.006839999999999957,1742258652.5203142
-0.39,0.30499999999999994,0.0,-0.014780000000000015,-0.035760000000000014,0.0023200000000000998,-0.245,-0.375,-0.17500000000000004,-0.036619999999999986,0.01317999999999997,0.005740000000000078,1742258652.634259
-0.39,0.31000000000000005,-0.020000000000000018,0.0031799999999999606,0.007319999999999993,0.010860000000000092,-0.25,-0.395,-0.16500000000000004,0.0025599999999998957,-0.01085999999999998,-0.01770000000000005,1742258652.748363
-0.39,0.30000000000000004,-0.0050000000000000044,-0.014900000000000024,0.010140000000000038,0.004999999999999893,-0.26,-0.375,-0.16500000000000004,0.011479999999999935,-0.006220000000000003,-0.022220000000000018,1742258652.862438
-0.39,0.2849999999999999,0.004999999999999893,0.0039000000000000146,0.015260000000000051,0.028079999999999883,-0.28,-0.355,-0.17500000000000004,0.02210000000000001,0.0032999999999998586,-0.04161999999999999,1742258652.976342
-0.405,0.2849999999999999,0.004999999999999893,0.010739999999999972,0.004999999999999893,0.03442000000000012,-0.30000000000000004,-0.355,-0.18999999999999995,0.028200000000000003,0.014780000000000015,-0.04577999999999993,1742258653.093814
-0.41500000000000004,0.28,0.010000000000000009,0.01097999999999999,-0.0034199999999999786,0.015740000000000087,-0.31000000000000005,-0.355,-0.19500000000000006,0.0045200000000000795,0.009759999999999991,-0.007320000000000104,1742258653.204347
-0.41999999999999993,0.27,0.0,0.0014600000000000168,-0.008660000000000001,0.0007399999999999629,-0.31000000000000005,-0.33499999999999996,-0.17999999999999994,-0.0023200000000000998,0.008419999999999872,0.0023200000000000998,1742258653.318352
