L-AccX,L-AccY,L-AccZ,L-GyrX,L-GyrY,L-GyrZ,R-AccX,R-AccY,R-AccZ,R-GyrX,R-GyrY,R-GyrZ,timestamp
0.30000000000000004,0.17999999999999994,0.3400000000000001,-0.052000000000000046,-0.049799999999999955,0.007200000000000095,0.31000000000000005,-0.27,-0.255,0.03442000000000012,0.00770000000000004,0.016599999999999948,1742249157.631188
0.30499999999999994,0.19999999999999996,0.355,0.021600000000000064,-0.022820000000000062,-0.0008599999999999719,0.30000000000000004,-0.2849999999999999,-0.29499999999999993,0.016960000000000086,0.01110000000000011,0.009640000000000093,1742249157.748584
0.29000000000000004,0.17500000000000004,0.385,-0.01208000000000009,-0.014780000000000015,-0.01415999999999995,0.32000000000000006,-0.29499999999999993,-0.29499999999999993,-0.02294000000000007,-0.00537999999999994,0.03968000000000016,1742249157.85923
0.31000000000000005,0.17500000000000004,0.365,-0.04688000000000003,0.03259999999999996,-0.035760000000000014,0.33000000000000007,-0.255,-0.255,-0.04296,-0.024540000000000006,0.03905999999999987,1742249157.97341
0.31499999999999995,0.21999999999999997,0.32000000000000006,-0.05018,0.0009799999999999809,0.00024000000000001798,0.32499999999999996,-0.29499999999999993,-0.24,0.012580000000000036,-0.0036599999999999966,0.0019599999999999618,1742249158.08726
0.33000000000000007,0.2450000000000001,0.395,-0.029899999999999927,-0.0036599999999999966,-0.019159999999999955,0.3799999999999999,-0.22999999999999998,-0.245,-0.016240000000000032,-0.051019999999999954,0.01855999999999991,1742249158.201371
0.31499999999999995,0.1200000000000001,0.3599999999999999,0.028799999999999937,0.01195999999999997,0.007079999999999975,0.3799999999999999,-0.235,-0.27,-0.015619999999999967,-0.028320000000000012,0.06824000000000008,1742249158.315348
0.32499999999999996,0.2749999999999999,0.28,0.029179999999999984,0.0009799999999999809,0.00035999999999991594,0.385,-0.21999999999999997,-0.18500000000000005,0.07922000000000007,-0.03625999999999996,-0.022220000000000018,1742249158.429425
0.31000000000000005,0.19500000000000006,0.3500000000000001,0.08557999999999999,-0.014900000000000024,-0.031240000000000046,0.3900000000000001,-0.21499999999999997,-0.21499999999999997,0.06591999999999998,-0.013679999999999914,0.04248000000000007,1742249158.545853
0.31000000000000005,0.050000000000000044,0.3700000000000001,0.017079999999999984,-0.0045199999999999685,-0.06359999999999999,0.3799999999999999,-0.18500000000000005,-0.24,-0.03064,0.019039999999999946,0.0048799999999999955,1742249158.657156
0.31000000000000005,0.1100000000000001,0.3700000000000001,-0.01305999999999996,-0.013299999999999979,-0.012940000000000063,0.395,-0.19999999999999996,-0.22499999999999998,-0.009159999999999946,0.01868000000000003,0.011479999999999935,1742249158.771137
0.29499999999999993,0.09499999999999997,0.395,-0.023320000000000007,-0.005120000000000013,-0.006960000000000077,0.3700000000000001,-0.21999999999999997,-0.245,-0.02734000000000003,0.01208000000000009,-0.005739999999999967,1742249158.885935
0.30499999999999994,0.14500000000000002,0.3700000000000001,0.009160000000000057,-0.0045199999999999685,0.006960000000000077,0.375,-0.22999999999999998,-0.22499999999999998,0.014639999999999986,-0.0048799999999999955,0.00770000000000004,1742249158.999157
0.30000000000000004,0.09000000000000008,0.385,0.019160000000000066,-0.012700000000000045,-0.0026799999999999047,0.3900000000000001,-0.19500000000000006,-0.22999999999999998,0.010000000000000009,0.012460000000000138,0.0015800000000001369,1742249159.113051
0.29499999999999993,0.11499999999999999,0.3799999999999999,0.019160000000000066,-0.009159999999999946,-0.00770000000000004,0.385,-0.19500000000000006,-0.24,0.01868000000000003,0.0042800000000000615,0.01097999999999999,1742249159.22829
0.29000000000000004,0.10000000000000009,0.3900000000000001,-0.010499999999999954,-0.011480000000000046,-0.0040200000000000236,0.3799999999999999,-0.18500000000000005,-0.25,0.00024000000000001798,0.020499999999999963,0.00024000000000001798,1742249159.343039
0.28,0.10000000000000009,0.395,-0.0032999999999999696,-0.0039000000000000146,0.0023200000000000998,0.375,-0.18999999999999995,-0.26,0.002080000000000082,0.008059999999999956,-0.0017000000000000348,1742249159.455182
0.2849999999999999,0.1100000000000001,0.395,-0.006960000000000077,-0.010619999999999963,0.006960000000000077,0.3799999999999999,-0.18999999999999995,-0.26,0.008419999999999872,0.017220000000000013,-0.0035399999999999876,1742249159.5691452
0.2749999999999999,0.1100000000000001,0.3999999999999999,0.0009799999999999809,-0.0034199999999999786,0.0034199999999999786,0.3700000000000001,-0.19500000000000006,-0.265,0.004999999999999893,0.006720000000000059,-0.005499999999999949,1742249159.68632
0.28,0.1100000000000001,0.3999999999999999,0.0015800000000001369,-0.005859999999999976,-0.0030599999999999516,0.3700000000000001,-0.18500000000000005,-0.27,0.0029200000000000337,0.007200000000000095,0.0,1742249159.797023
0.28,0.1100000000000001,0.3999999999999999,-0.006960000000000077,0.0019599999999999618,-0.0022000000000000908,0.3700000000000001,-0.18999999999999995,-0.27,-0.002080000000000082,0.007200000000000095,-0.005619999999999958,1742249159.911224
0.28,0.1200000000000001,0.395,0.005120000000000013,-0.0010999999999999899,-0.0015800000000000258,0.3700000000000001,-0.19500000000000006,-0.28,0.00550000000000006,0.0009799999999999809,0.0027999999999999137,1742249160.026463
0.2749999999999999,0.1100000000000001,0.395,0.0026800000000000157,0.00011999999999989797,0.0024399999999999977,0.3700000000000001,-0.18999999999999995,-0.27,0.00024000000000001798,0.00024000000000001798,-0.002080000000000082,1742249160.138133
0.28,0.11499999999999999,0.395,0.00024000000000001798,0.002080000000000082,0.0029200000000000337,0.3700000000000001,-0.19500000000000006,-0.27,-0.0034199999999999786,-0.0012199999999999989,-0.0017000000000000348,1742249160.252279
0.2749999999999999,0.1200000000000001,0.395,-0.0018400000000000638,0.0046399999999999775,-0.00012000000000000899,0.365,-0.19500000000000006,-0.265,-0.0026799999999999047,-0.0017000000000000348,-0.0012199999999999989,1742249160.366213
0.28,0.11499999999999999,0.395,-0.0025599999999998957,0.00024000000000001798,-0.0006199999999999539,0.365,-0.19500000000000006,-0.27,0.0021999999999999797,0.005239999999999911,-0.0034199999999999786,1742249160.480043
0.2749999999999999,0.1100000000000001,0.3999999999999999,0.00035999999999991594,0.00048000000000003595,0.0007399999999999629,0.365,-0.19500000000000006,-0.275,-0.00024000000000001798,-0.0007399999999999629,-0.0034199999999999786,1742249160.594207
0.28,0.11499999999999999,0.395,0.0018400000000000638,-0.0013400000000000079,0.00011999999999989797,0.3700000000000001,-0.18999999999999995,-0.275,0.00048000000000003595,0.00011999999999989797,0.0013400000000001189,1742249160.7080672
0.2749999999999999,0.11499999999999999,0.395,-0.002080000000000082,-0.00024000000000001798,0.0008600000000000829,0.3700000000000001,-0.19500000000000006,-0.275,-0.0013400000000000079,-0.00048000000000003595,-0.0022000000000000908,1742249160.825675
0.2749999999999999,0.11499999999999999,0.3999999999999999,-0.0006199999999999539,-0.0013400000000000079,0.00011999999999989797,0.3700000000000001,-0.18999999999999995,-0.275,-0.00048000000000003595,0.00048000000000003595,-0.001960000000000073,1742249160.93613
0.2849999999999999,0.11499999999999999,0.395,-0.0025599999999998957,-0.0027999999999999137,-0.00012000000000000899,0.3700000000000001,-0.19500000000000006,-0.265,-0.0017000000000000348,0.0024399999999999977,0.0006200000000000649,1742249161.050007
0.2749999999999999,0.11499999999999999,0.395,-0.0027999999999999137,-0.0030599999999999516,0.0014600000000000168,0.365,-0.18999999999999995,-0.275,0.0021999999999999797,0.0029200000000000337,-0.0037800000000000056,1742249161.165348
0.2849999999999999,0.125,0.3900000000000001,0.00024000000000001798,0.00024000000000001798,0.0021999999999999797,0.365,-0.19999999999999996,-0.275,0.00024000000000001798,0.0013400000000001189,-0.0014600000000000168,1742249161.2780108
0.2749999999999999,0.11499999999999999,0.395,0.0023200000000000998,-0.0014600000000000168,-0.00024000000000001798,0.3599999999999999,-0.19500000000000006,-0.275,-0.0023200000000000998,0.0031799999999999606,-0.00012000000000000899,1742249161.392123
0.2749999999999999,0.1200000000000001,0.3999999999999999,-0.0032999999999999696,0.00550000000000006,-0.0007399999999999629,0.365,-0.19500000000000006,-0.275,-0.0023200000000000998,-0.00048000000000003595,-0.0026799999999999047,1742249161.506262
0.2749999999999999,0.1200000000000001,0.405,-0.0012199999999999989,0.00035999999999991594,0.0017000000000000348,0.365,-0.19999999999999996,-0.275,0.00035999999999991594,0.001100000000000101,-0.0015800000000000258,1742249161.620046
0.28,0.1200000000000001,0.395,0.0027999999999999137,0.00024000000000001798,-0.0022000000000000908,0.365,-0.19500000000000006,-0.27,0.0017000000000000348,0.0007399999999999629,0.001100000000000101,1742249161.733963
0.2749999999999999,0.125,0.395,0.00048000000000003595,-0.0006199999999999539,0.00048000000000003595,0.3599999999999999,-0.19999999999999996,-0.275,0.00035999999999991594,0.0,-0.00012000000000000899,1742249161.848027
0.27,0.1200000000000001,0.3999999999999999,0.0008600000000000829,-0.00012000000000000899,-0.00036000000000002697,0.3599999999999999,-0.19500000000000006,-0.275,-0.0009799999999999809,-0.0009799999999999809,-0.0008599999999999719,1742249161.965394
0.2749999999999999,0.1200000000000001,0.3999999999999999,-0.0013400000000000079,-0.0006199999999999539,-0.001960000000000073,0.365,-0.19500000000000006,-0.28,0.0025599999999998957,-0.0007399999999999629,-0.0010999999999999899,1742249162.0761302
0.28,0.125,0.395,0.0006200000000000649,-0.00036000000000002697,-0.00036000000000002697,0.3599999999999999,-0.19999999999999996,-0.28,0.0030599999999998406,0.0012199999999999989,0.0008600000000000829,1742249162.189943
0.2749999999999999,0.1200000000000001,0.3999999999999999,0.0021999999999999797,-0.00048000000000003595,0.0008600000000000829,0.3599999999999999,-0.19500000000000006,-0.28,0.0021999999999999797,-0.0006199999999999539,-0.0010999999999999899,1742249162.305108
0.28,0.1200000000000001,0.3999999999999999,0.002080000000000082,-0.0013400000000000079,0.00024000000000001798,0.365,-0.19999999999999996,-0.28,0.0021999999999999797,-0.00024000000000001798,0.0006200000000000649,1742249162.418002
0.2749999999999999,0.11499999999999999,0.3999999999999999,0.0041599999999999415,-0.0014600000000000168,-0.0008599999999999719,0.365,-0.18999999999999995,-0.275,0.0029200000000000337,0.0007399999999999629,0.0025599999999998957,1742249162.531935
0.27,0.11499999999999999,0.3999999999999999,0.0029200000000000337,-0.0027999999999999137,-0.0006199999999999539,0.3599999999999999,-0.18500000000000005,-0.28,0.0031799999999999606,0.0013400000000001189,0.001100000000000101,1742249162.645943
0.27,0.11499999999999999,0.405,-0.0010999999999999899,-0.00012000000000000899,-0.0010999999999999899,0.365,-0.18999999999999995,-0.28,0.0030599999999998406,0.001100000000000101,-0.0018400000000000638,1742249162.759972
0.2749999999999999,0.125,0.3999999999999999,0.0025599999999998957,-0.0026799999999999047,-0.0013400000000000079,0.3599999999999999,-0.18999999999999995,-0.28,0.004999999999999893,0.0029200000000000337,0.0008600000000000829,1742249162.873822
0.27,0.1200000000000001,0.395,0.0036599999999999966,-0.006099999999999994,0.0031799999999999606,0.355,-0.19500000000000006,-0.2849999999999999,0.0036599999999999966,0.0037799999999998946,0.0012199999999999989,1742249162.987784
0.27,0.1100000000000001,0.405,0.007560000000000011,-0.005859999999999976,-0.0012199999999999989,0.3599999999999999,-0.18500000000000005,-0.29499999999999993,0.010499999999999954,0.007560000000000011,0.0007399999999999629,1742249163.10515
0.2650000000000001,0.11499999999999999,0.3999999999999999,0.021600000000000064,-0.011840000000000073,-0.008660000000000001,0.355,-0.17000000000000004,-0.29000000000000004,0.022460000000000147,0.00865999999999989,0.01208000000000009,1742249163.21594
0.25,0.08499999999999996,0.41999999999999993,0.02198000000000011,-0.011360000000000037,-0.0010999999999999899,0.355,-0.16500000000000004,-0.30000000000000004,0.013299999999999867,0.006340000000000012,0.0017000000000000348,1742249163.3298078
0.26,0.09000000000000008,0.41999999999999993,0.001100000000000101,0.0037799999999998946,0.002080000000000082,0.355,-0.17000000000000004,-0.29499999999999993,0.0024399999999999977,-0.0023200000000000998,-0.0050000000000000044,1742249163.445717
0.2549999999999999,0.10000000000000009,0.41500000000000004,0.0048799999999999955,-0.00537999999999994,0.00035999999999991594,0.355,-0.17000000000000004,-0.30000000000000004,0.005619999999999958,0.00048000000000003595,-0.0007399999999999629,1742249163.55792
0.2549999999999999,0.09499999999999997,0.41999999999999993,0.0041599999999999415,-0.010259999999999936,0.0037799999999998946,0.355,-0.17000000000000004,-0.30499999999999994,0.005120000000000013,0.005980000000000096,-0.001960000000000073,1742249163.671914
0.25,0.09000000000000008,0.41999999999999993,0.0035399999999998766,-0.014399999999999968,0.00011999999999989797,0.3500000000000001,-0.16500000000000004,-0.31000000000000005,0.005740000000000078,0.005859999999999976,0.0012199999999999989,1742249163.785902
0.2450000000000001,0.08499999999999996,0.42500000000000004,0.0037799999999998946,-0.0050000000000000044,-0.00036000000000002697,0.355,-0.16500000000000004,-0.31000000000000005,0.0039000000000000146,0.002080000000000082,-0.001960000000000073,1742249163.899924
0.2450000000000001,0.09000000000000008,0.41999999999999993,0.0025599999999998957,-0.0026799999999999047,0.001100000000000101,0.3500000000000001,-0.16500000000000004,-0.31000000000000005,0.002080000000000082,0.0030599999999998406,-0.0027999999999999137,1742249164.013987
0.2450000000000001,0.09000000000000008,0.42500000000000004,0.0013400000000001189,0.0006200000000000649,0.0012199999999999989,0.3500000000000001,-0.16500000000000004,-0.31499999999999995,0.0025599999999998957,0.0018400000000000638,-0.002080000000000082,1742249164.128065
0.2450000000000001,0.08499999999999996,0.42500000000000004,-0.0018400000000000638,-0.0008599999999999719,0.0023200000000000998,0.3500000000000001,-0.16000000000000003,-0.31000000000000005,-0.0035399999999999876,0.0046399999999999775,-0.006340000000000012,1742249164.242035
0.2450000000000001,0.09499999999999997,0.42500000000000004,-0.011480000000000046,-0.0026799999999999047,0.005980000000000096,0.3500000000000001,-0.17500000000000004,-0.31499999999999995,-0.005619999999999958,0.0039000000000000146,-0.0048799999999999955,1742249164.3558972
0.2450000000000001,0.10499999999999998,0.42500000000000004,0.0,-0.002080000000000082,-0.0009799999999999809,0.3400000000000001,-0.17500000000000004,-0.31499999999999995,0.0034199999999999786,0.001100000000000101,0.0017000000000000348,1742249164.46987
0.24,0.09499999999999997,0.42500000000000004,0.0013400000000001189,0.0,-0.00048000000000003595,0.3400000000000001,-0.17000000000000004,-0.31000000000000005,0.0015800000000001369,0.0006200000000000649,-0.0009799999999999809,1742249164.585075
0.23499999999999988,0.09499999999999997,0.42500000000000004,0.0029200000000000337,-0.0043999999999999595,-0.0009799999999999809,0.3500000000000001,-0.16000000000000003,-0.32000000000000006,0.0007399999999999629,-0.0026799999999999047,0.0,1742249164.697852
0.24,0.09499999999999997,0.42500000000000004,-0.00024000000000001798,-0.0017000000000000348,0.0048799999999999955,0.3400000000000001,-0.17500000000000004,-0.31499999999999995,0.0039000000000000146,0.0032999999999998586,-0.0046399999999999775,1742249164.8119109
0.24,0.09499999999999997,0.42500000000000004,-0.0006199999999999539,-0.0031799999999999606,0.0015800000000001369,0.3400000000000001,-0.17500000000000004,-0.31499999999999995,0.0013400000000001189,0.0027999999999999137,-0.0015800000000000258,1742249164.925844
0.23499999999999988,0.10000000000000009,0.42999999999999994,-0.0008599999999999719,-0.0013400000000000079,0.00035999999999991594,0.345,-0.17500000000000004,-0.32000000000000006,-0.0023200000000000998,0.0007399999999999629,-0.0007399999999999629,1742249165.046349
0.23499999999999988,0.10000000000000009,0.42500000000000004,0.0019599999999999618,-0.0013400000000000079,-0.0022000000000000908,0.3400000000000001,-0.17000000000000004,-0.31499999999999995,0.0009799999999999809,0.0014600000000000168,0.001100000000000101,1742249165.155738
0.22999999999999998,0.10000000000000009,0.42999999999999994,0.0026800000000000157,-0.00048000000000003595,-0.0006199999999999539,0.3400000000000001,-0.17000000000000004,-0.31499999999999995,0.0025599999999998957,0.0008600000000000829,-0.0012199999999999989,1742249165.269831
0.23499999999999988,0.09499999999999997,0.42999999999999994,0.00035999999999991594,-0.0025599999999998957,0.0018400000000000638,0.3400000000000001,-0.17000000000000004,-0.31499999999999995,0.00035999999999991594,0.0039000000000000146,-0.0015800000000000258,1742249165.384712
0.22999999999999998,0.09499999999999997,0.42999999999999994,-0.0032999999999999696,-0.00537999999999994,0.0014600000000000168,0.3400000000000001,-0.17000000000000004,-0.32499999999999996,0.0027999999999999137,0.010259999999999936,-0.0018400000000000638,1742249165.49783
0.22999999999999998,0.10000000000000009,0.42999999999999994,-0.0040200000000000236,-0.007440000000000002,-0.0018400000000000638,0.345,-0.17000000000000004,-0.33000000000000007,-0.0008599999999999719,0.0023200000000000998,-0.0039000000000000146,1742249165.611955
0.2250000000000001,0.10499999999999998,0.43500000000000005,-0.0014600000000000168,0.0019599999999999618,0.00048000000000003595,0.33499999999999996,-0.17000000000000004,-0.32000000000000006,-0.00537999999999994,-0.00782000000000005,-0.002080000000000082,1742249165.7273989
0.22999999999999998,0.10000000000000009,0.42999999999999994,0.0017000000000000348,-0.001960000000000073,0.0019599999999999618,0.33499999999999996,-0.17000000000000004,-0.32000000000000006,0.0013400000000001189,0.0023200000000000998,-0.00024000000000001798,1742249165.8398132
0.2250000000000001,0.10000000000000009,0.42999999999999994,0.0014600000000000168,-0.0036599999999999966,0.002080000000000082,0.33000000000000007,-0.17500000000000004,-0.32000000000000006,0.0035399999999998766,0.006960000000000077,-0.0039000000000000146,1742249165.953863
0.2250000000000001,0.10000000000000009,0.42999999999999994,-0.0031799999999999606,-0.010140000000000038,0.0021999999999999797,0.33499999999999996,-0.17500000000000004,-0.3400000000000001,0.01097999999999999,0.022699999999999942,-0.007440000000000002,1742249166.06785
0.21500000000000008,0.10499999999999998,0.43999999999999995,-0.0010999999999999899,-0.0040200000000000236,0.00537999999999994,0.33000000000000007,-0.18500000000000005,-0.33499999999999996,-0.0018400000000000638,0.0008600000000000829,-0.001960000000000073,1742249166.1850188
0.21500000000000008,0.10499999999999998,0.42999999999999994,0.0014600000000000168,-0.0045199999999999685,-0.0029199999999999227,0.32499999999999996,-0.17000000000000004,-0.33000000000000007,0.0017000000000000348,0.0040199999999999125,0.002080000000000082,1742249166.295786
0.20999999999999996,0.10499999999999998,0.43999999999999995,0.0012199999999999989,-0.0029199999999999227,-0.0018400000000000638,0.32499999999999996,-0.17000000000000004,-0.33000000000000007,0.013419999999999987,0.0037799999999998946,0.0018400000000000638,1742249166.409765
0.21500000000000008,0.09499999999999997,0.43500000000000005,0.018059999999999965,-0.013419999999999987,-0.0006199999999999539,0.31000000000000005,-0.15500000000000003,-0.3400000000000001,0.016839999999999966,0.014520000000000088,0.007200000000000095,1742249166.5250812
0.20500000000000007,0.10000000000000009,0.43999999999999995,0.011239999999999917,-0.029179999999999984,-0.00036000000000002697,0.32499999999999996,-0.16000000000000003,-0.37,0.011239999999999917,0.00878000000000001,0.00035999999999991594,1742249166.637756
0.19500000000000006,0.09000000000000008,0.44500000000000006,0.006839999999999957,-0.005739999999999967,0.0027999999999999137,0.30499999999999994,-0.15000000000000002,-0.355,0.0007399999999999629,0.0021999999999999797,0.00048000000000003595,1742249166.751724
0.18500000000000005,0.08499999999999996,0.44999999999999996,0.0032999999999998586,-0.0032999999999999696,0.0013400000000001189,0.31000000000000005,-0.15000000000000002,-0.36,0.0009799999999999809,0.002080000000000082,-0.0025599999999998957,1742249166.865937
0.19500000000000006,0.09000000000000008,0.44999999999999996,0.0026800000000000157,-0.0018400000000000638,-0.00024000000000001798,0.31000000000000005,-0.15000000000000002,-0.355,0.001100000000000101,-0.00024000000000001798,0.0013400000000001189,1742249166.979854
0.18999999999999995,0.09000000000000008,0.44999999999999996,0.0047600000000000975,-0.0036599999999999966,0.0021999999999999797,0.30499999999999994,-0.15000000000000002,-0.36,0.0030599999999998406,0.0030599999999998406,0.00011999999999989797,1742249167.093867
0.18999999999999995,0.09000000000000008,0.44999999999999996,0.0045200000000000795,-0.007080000000000086,0.0024399999999999977,0.30000000000000004,-0.14,-0.36,0.006599999999999939,0.013419999999999987,-0.0029199999999999227,1742249167.207841
0.18500000000000005,0.07499999999999996,0.45500000000000007,0.0,-0.01085999999999998,0.007319999999999993,0.30000000000000004,-0.14,-0.365,-0.014780000000000015,0.02429999999999999,-0.016240000000000032,1742249167.325087
0.17500000000000004,0.10000000000000009,0.45999999999999996,-0.019159999999999955,-0.010619999999999963,0.016960000000000086,0.28,-0.16000000000000003,-0.37,-0.0025599999999998957,0.010860000000000092,-0.013679999999999914,1742249167.4359648
0.16999999999999993,0.10499999999999998,0.45999999999999996,0.010499999999999954,-0.006460000000000021,0.010860000000000092,0.2849999999999999,-0.16000000000000003,-0.375,0.015260000000000051,-0.006840000000000068,-0.006460000000000021,1742249167.549814
0.17999999999999994,0.10499999999999998,0.45500000000000007,0.012320000000000109,-0.0025599999999998957,0.005619999999999958,0.2849999999999999,-0.15500000000000003,-0.38,0.012460000000000138,-0.0042799999999999505,-0.0013400000000000079,1742249167.664706
0.17500000000000004,0.08000000000000007,0.45500000000000007,0.02855999999999992,-0.0024400000000001087,-0.005859999999999976,0.29499999999999993,-0.135,-0.38,0.0006200000000000649,0.00035999999999991594,0.0046399999999999775,1742249167.777618
0.16999999999999993,0.09499999999999997,0.45500000000000007,-0.0046399999999999775,-0.007440000000000002,-0.0037800000000000056,0.29000000000000004,-0.15000000000000002,-0.385,0.004999999999999893,-0.0042799999999999505,0.0023200000000000998,1742249167.891862
0.16999999999999993,0.07499999999999996,0.45999999999999996,0.009759999999999991,-0.005619999999999958,-0.00770000000000004,0.2849999999999999,-0.14500000000000002,-0.38,-0.00537999999999994,0.0008600000000000829,-0.0042799999999999505,1742249168.00592
0.17500000000000004,0.08499999999999996,0.45500000000000007,-0.0046399999999999775,-0.0015800000000000258,-0.00660000000000005,0.29000000000000004,-0.14500000000000002,-0.38,-0.008299999999999974,0.0021999999999999797,0.006839999999999957,1742249168.119722
0.16500000000000004,0.08000000000000007,0.4650000000000001,-0.0029199999999999227,-0.007080000000000086,-0.00660000000000005,0.2849999999999999,-0.14,-0.38,-0.0009799999999999809,0.0023200000000000998,-0.0013400000000000079,1742249168.233831
0.16500000000000004,0.08000000000000007,0.45999999999999996,-0.0014600000000000168,-0.0013400000000000079,-0.00048000000000003595,0.2849999999999999,-0.15000000000000002,-0.38,0.0013400000000001189,0.0015800000000001369,0.00035999999999991594,1742249168.347695
0.16500000000000004,0.07499999999999996,0.45999999999999996,0.005740000000000078,-0.0010999999999999899,0.0014600000000000168,0.2849999999999999,-0.15000000000000002,-0.385,0.001100000000000101,0.0013400000000001189,-0.0043999999999999595,1742249168.4649332
0.16999999999999993,0.08499999999999996,0.45999999999999996,0.0030599999999998406,0.0006200000000000649,0.0023200000000000998,0.2849999999999999,-0.14500000000000002,-0.385,0.0,0.0039000000000000146,0.00011999999999989797,1742249168.575686
0.16500000000000004,0.08000000000000007,0.45999999999999996,0.0032999999999998586,-0.0043999999999999595,0.0029200000000000337,0.28,-0.14500000000000002,-0.38,0.00048000000000003595,0.0025599999999998957,-0.0013400000000000079,1742249168.689771
0.15999999999999992,0.07499999999999996,0.45999999999999996,-0.00024000000000001798,-0.0023200000000000998,0.0039000000000000146,0.28,-0.15000000000000002,-0.38,0.007200000000000095,0.0043999999999999595,-0.006099999999999994,1742249168.804376
0.15999999999999992,0.08000000000000007,0.45999999999999996,-0.0015800000000000258,-0.001960000000000073,0.0041599999999999415,0.28,-0.15500000000000003,-0.39,0.005740000000000078,0.00537999999999994,-0.0035399999999999876,1742249168.917761
0.15999999999999992,0.08499999999999996,0.45999999999999996,0.0035399999999998766,-0.00024000000000001798,-0.00036000000000002697,0.28,-0.14500000000000002,-0.39,-0.0008599999999999719,-0.0025599999999998957,-0.00012000000000000899,1742249169.03191
0.15999999999999992,0.08000000000000007,0.4650000000000001,0.0047600000000000975,-0.0010999999999999899,0.0009799999999999809,0.28,-0.14,-0.39,0.0,-0.00537999999999994,-0.0013400000000000079,1742249169.145808
0.16500000000000004,0.08000000000000007,0.45999999999999996,0.0043999999999999595,-0.0015800000000000258,-0.0007399999999999629,0.2749999999999999,-0.14,-0.385,0.0039000000000000146,-0.0017000000000000348,-0.00024000000000001798,1742249169.259852
0.15999999999999992,0.07000000000000006,0.45999999999999996,0.0014600000000000168,0.0025599999999998957,0.0014600000000000168,0.2749999999999999,-0.15000000000000002,-0.385,0.0039000000000000146,0.00024000000000001798,-0.001960000000000073,1742249169.3736992
0.15999999999999992,0.07499999999999996,0.4650000000000001,0.00048000000000003595,0.002080000000000082,-0.0007399999999999629,0.28,-0.15000000000000002,-0.385,0.0017000000000000348,-0.0014600000000000168,-0.00024000000000001798,1742249169.487811
0.15999999999999992,0.07499999999999996,0.4650000000000001,0.0029200000000000337,0.00035999999999991594,-0.0024400000000001087,0.28,-0.14,-0.385,0.0007399999999999629,-0.001960000000000073,0.00048000000000003595,1742249169.604574
0.15999999999999992,0.07000000000000006,0.45999999999999996,0.0032999999999998586,0.0012199999999999989,-0.0015800000000000258,0.2849999999999999,-0.14,-0.385,0.0007399999999999629,-0.0009799999999999809,-0.0012199999999999989,1742249169.7157938
0.16500000000000004,0.07000000000000006,0.45999999999999996,0.001100000000000101,0.0006200000000000649,-0.00024000000000001798,0.28,-0.14500000000000002,-0.385,0.0008600000000000829,0.0023200000000000998,0.0014600000000000168,1742249169.829677
0.15999999999999992,0.07000000000000006,0.4650000000000001,0.00024000000000001798,-0.00036000000000002697,-0.008919999999999928,0.28,-0.15000000000000002,-0.385,-0.0046399999999999775,0.0019599999999999618,0.010259999999999936,1742249169.944845
0.15999999999999992,0.06000000000000005,0.47,-0.0007399999999999629,0.0041599999999999415,-0.02954000000000001,0.29000000000000004,-0.135,-0.385,-0.03710000000000002,-0.009399999999999964,0.016599999999999948,1742249170.0578518
0.16500000000000004,0.07000000000000006,0.4650000000000001,-0.023679999999999923,0.00770000000000004,-0.03491999999999995,0.2849999999999999,-0.14500000000000002,-0.385,-0.03649999999999998,-0.01537999999999995,0.016720000000000068,1742249170.171838
0.16999999999999993,0.06499999999999995,0.45500000000000007,-0.01978000000000002,0.025880000000000125,-0.03882000000000008,0.29000000000000004,-0.14500000000000002,-0.36,-0.027700000000000058,-0.019279999999999964,0.01966000000000001,1742249170.285865
0.18999999999999995,0.06000000000000005,0.44999999999999996,-0.012820000000000054,0.03186,-0.03173999999999999,0.31499999999999995,-0.15000000000000002,-0.35,-0.020019999999999927,-0.012940000000000063,0.012580000000000036,1742249170.399886
0.21999999999999997,0.06499999999999995,0.43999999999999995,-0.012319999999999998,0.018799999999999928,-0.011099999999999999,0.31000000000000005,-0.16500000000000004,-0.3400000000000001,-0.0035399999999999876,-0.001960000000000073,-0.002080000000000082,1742249170.513931
0.2250000000000001,0.07000000000000006,0.43999999999999995,-0.0050000000000000044,-0.0035399999999999876,0.006599999999999939,0.31000000000000005,-0.17500000000000004,-0.345,0.006220000000000114,0.013679999999999914,-0.005859999999999976,1742249170.6276128
0.21999999999999997,0.08499999999999996,0.43500000000000005,-0.008059999999999956,-0.011360000000000037,0.01317999999999997,0.29499999999999993,-0.16500000000000004,-0.35,0.010259999999999936,0.018920000000000048,-0.013539999999999996,1742249170.741667
0.20500000000000007,0.09000000000000008,0.44500000000000006,-0.01085999999999998,-0.01427999999999996,0.016839999999999966,0.29000000000000004,-0.17500000000000004,-0.375,0.006960000000000077,0.02404000000000006,-0.017080000000000095,1742249170.855646
0.18999999999999995,0.1100000000000001,0.44500000000000006,-0.0006199999999999539,0.007319999999999993,0.016960000000000086,0.2849999999999999,-0.17999999999999994,-0.365,-0.0035399999999999876,0.0040199999999999125,-0.01097999999999999,1742249170.9697258
0.20500000000000007,0.09499999999999997,0.43999999999999995,-0.01648000000000005,0.0039000000000000146,0.0018400000000000638,0.2849999999999999,-0.17000000000000004,-0.375,-0.007200000000000095,0.013679999999999914,-0.013539999999999996,1742249171.084183
0.18999999999999995,0.11499999999999999,0.44500000000000006,-0.011840000000000073,0.0006200000000000649,0.007319999999999993,0.2749999999999999,-0.17999999999999994,-0.385,-0.015619999999999967,0.0015800000000001369,-0.021120000000000028,1742249171.197742
0.19999999999999996,0.125,0.43999999999999995,-0.016120000000000023,0.01855999999999991,0.009039999999999937,0.2749999999999999,-0.21499999999999997,-0.375,-0.012940000000000063,-0.013539999999999996,-0.02307999999999999,1742249171.3118458
0.21999999999999997,0.14000000000000012,0.43500000000000005,-0.009519999999999973,0.023679999999999923,0.0025599999999998957,0.2749999999999999,-0.20999999999999996,-0.365,-0.01966000000000001,-0.018320000000000003,-0.01525999999999994,1742249171.425826
0.21999999999999997,0.14500000000000002,0.41999999999999993,-0.00660000000000005,0.026000000000000023,-0.0010999999999999899,0.28,-0.21499999999999997,-0.345,-0.016720000000000068,-0.015859999999999985,-0.008539999999999992,1742249171.539798
0.2450000000000001,0.1299999999999999,0.41999999999999993,-0.006960000000000077,0.01110000000000011,0.0018400000000000638,0.28,-0.22499999999999998,-0.345,-0.0025599999999998957,-0.006840000000000068,-0.0034199999999999786,1742249171.6538649
0.23499999999999988,0.14500000000000002,0.41500000000000004,0.0042800000000000615,0.007940000000000058,-0.0008599999999999719,0.2849999999999999,-0.22999999999999998,-0.33499999999999996,0.009759999999999991,-0.0050000000000000044,0.0027999999999999137,1742249171.768034
0.2549999999999999,0.135,0.405,-0.0043999999999999595,-0.006220000000000003,-0.0007399999999999629,0.28,-0.22999999999999998,-0.345,0.00011999999999989797,0.011600000000000055,0.00035999999999991594,1742249171.884554
0.23499999999999988,0.1499999999999999,0.41999999999999993,-0.00024000000000001798,-0.007080000000000086,-0.0035399999999999876,0.2749999999999999,-0.21999999999999997,-0.355,0.0034199999999999786,0.006839999999999957,0.006340000000000012,1742249171.994462
0.22999999999999998,0.1499999999999999,0.41500000000000004,0.0032999999999998586,-0.006960000000000077,-0.0035399999999999876,0.2749999999999999,-0.20999999999999996,-0.35,0.0027999999999999137,0.0034199999999999786,0.0041599999999999415,1742249172.1085591
0.22999999999999998,0.14000000000000012,0.41999999999999993,0.0023200000000000998,-0.011960000000000082,-0.0034199999999999786,0.2749999999999999,-0.20999999999999996,-0.355,0.0041599999999999415,0.006839999999999957,0.007079999999999975,1742249172.222546
0.22999999999999998,0.1299999999999999,0.41999999999999993,-0.0017000000000000348,-0.006840000000000068,-0.0046399999999999775,0.2749999999999999,-0.20499999999999996,-0.355,0.005980000000000096,0.01097999999999999,0.005120000000000013,1742249172.33661
0.21500000000000008,0.1299999999999999,0.42999999999999994,0.0,-0.010499999999999954,0.0017000000000000348,0.2749999999999999,-0.19500000000000006,-0.37,0.005120000000000013,0.010000000000000009,-0.0022000000000000908,1742249172.450567
0.21999999999999997,0.1299999999999999,0.42999999999999994,0.0017000000000000348,-0.009279999999999955,0.007079999999999975,0.27,-0.19500000000000006,-0.37,0.005120000000000013,0.0032999999999998586,-0.0035399999999999876,1742249172.564553
0.21500000000000008,0.1299999999999999,0.42500000000000004,0.0008600000000000829,-0.0015800000000000258,0.007440000000000113,0.2650000000000001,-0.18999999999999995,-0.37,0.0024399999999999977,0.0018400000000000638,-0.0026799999999999047,1742249172.678539
0.21500000000000008,0.135,0.42999999999999994,0.0034199999999999786,-0.00036000000000002697,0.007200000000000095,0.2749999999999999,-0.19999999999999996,-0.375,0.0046399999999999775,0.0031799999999999606,-0.0032999999999999696,1742249172.792562
0.21500000000000008,0.135,0.42999999999999994,0.0027999999999999137,-0.005859999999999976,0.0046399999999999775,0.27,-0.19500000000000006,-0.37,0.006220000000000114,0.0040199999999999125,-0.0017000000000000348,1742249172.906877
0.20999999999999996,0.135,0.42500000000000004,-0.0018400000000000638,-0.007080000000000086,0.0039000000000000146,0.2549999999999999,-0.19500000000000006,-0.375,0.0047600000000000975,0.009640000000000093,-0.0040200000000000236,1742249173.0205498
0.20500000000000007,0.14500000000000002,0.42500000000000004,-0.0025599999999998957,-0.00537999999999994,0.006720000000000059,0.25,-0.19999999999999996,-0.365,0.0043999999999999595,0.013679999999999914,-0.0009799999999999809,1742249173.134542
0.19999999999999996,0.15500000000000003,0.42500000000000004,-0.006340000000000012,-0.00988,0.0040199999999999125,0.25,-0.18999999999999995,-0.39,0.012460000000000138,0.016119999999999912,0.00035999999999991594,1742249173.248385
0.19500000000000006,0.1499999999999999,0.44500000000000006,0.0031799999999999606,-0.0075599999999999,0.006599999999999939,0.24,-0.19500000000000006,-0.395,0.01317999999999997,0.007440000000000113,-0.0031799999999999606,1742249173.365191
0.18999999999999995,0.15500000000000003,0.43500000000000005,0.005120000000000013,-0.006960000000000077,0.009400000000000075,0.24,-0.17999999999999994,-0.405,0.01758000000000015,-0.0009799999999999809,-0.00537999999999994,1742249173.476665
0.17999999999999994,0.14000000000000012,0.43999999999999995,0.00782000000000016,0.0027999999999999137,0.012460000000000138,0.2450000000000001,-0.17999999999999994,-0.385,0.009759999999999991,-0.005499999999999949,-0.011720000000000064,1742249173.593705
0.18999999999999995,0.1299999999999999,0.42999999999999994,-0.002080000000000082,0.00770000000000004,0.011479999999999935,0.2450000000000001,-0.18500000000000005,-0.395,0.0047600000000000975,0.0021999999999999797,-0.016000000000000014,1742249173.706923
0.18999999999999995,0.14500000000000002,0.43999999999999995,-0.006220000000000003,0.0035399999999998766,0.00770000000000004,0.24,-0.18999999999999995,-0.4,0.0024399999999999977,0.0023200000000000998,-0.00770000000000004,1742249173.818605
0.18500000000000005,0.14500000000000002,0.43999999999999995,-0.0017000000000000348,0.0046399999999999775,0.0046399999999999775,0.23499999999999988,-0.17999999999999994,-0.405,0.006220000000000114,-0.0046399999999999775,-0.006099999999999994,1742249173.9352572
0.18999999999999995,0.1499999999999999,0.43500000000000005,0.0048799999999999955,0.006220000000000114,0.011239999999999917,0.24,-0.18500000000000005,-0.4,0.012820000000000054,-0.008660000000000001,-0.01085999999999998,1742249174.047536
0.19500000000000006,0.1499999999999999,0.42999999999999994,0.009039999999999937,0.0047600000000000975,0.009640000000000093,0.24,-0.18500000000000005,-0.395,0.0043999999999999595,-0.006220000000000003,-0.005739999999999967,1742249174.165698
0.19500000000000006,0.14500000000000002,0.42999999999999994,0.008419999999999872,0.0039000000000000146,0.0021999999999999797,0.24,-0.18500000000000005,-0.395,0.0025599999999998957,-0.00048000000000003595,-0.0024400000000001087,1742249174.275601
0.18999999999999995,0.14500000000000002,0.43500000000000005,0.0007399999999999629,0.0018400000000000638,-0.0012199999999999989,0.24,-0.17500000000000004,-0.4,0.005239999999999911,-0.0023200000000000998,0.0029200000000000337,1742249174.3894742
0.18999999999999995,0.14000000000000012,0.43999999999999995,0.011239999999999917,-0.0027999999999999137,-0.0013400000000000079,0.23499999999999988,-0.17500000000000004,-0.4,0.015020000000000033,0.0037799999999998946,-0.0023200000000000998,1742249174.504736
0.18999999999999995,0.135,0.43500000000000005,0.015020000000000033,-0.010140000000000038,0.0048799999999999955,0.2450000000000001,-0.17000000000000004,-0.4099999999999999,0.017340000000000133,0.006220000000000114,-0.014900000000000024,1742249174.617554
0.18500000000000005,0.14500000000000002,0.44500000000000006,0.011360000000000037,0.0009799999999999809,0.014639999999999986,0.23499999999999988,-0.17999999999999994,-0.4099999999999999,0.012580000000000036,-0.005859999999999976,-0.0035399999999999876,1742249174.7315378
0.19500000000000006,0.14000000000000012,0.43999999999999995,0.013679999999999914,0.0037799999999998946,0.00024000000000001798,0.23499999999999988,-0.16500000000000004,-0.405,0.0037799999999998946,-0.007080000000000086,0.0043999999999999595,1742249174.845514
0.19500000000000006,0.1299999999999999,0.43999999999999995,0.005859999999999976,0.0036599999999999966,-0.0041599999999999415,0.24,-0.15500000000000003,-0.4099999999999999,-0.00012000000000000899,-0.0039000000000000146,0.007940000000000058,1742249174.968241
0.18999999999999995,0.125,0.43999999999999995,0.009039999999999937,-0.0034199999999999786,-0.005859999999999976,0.25,-0.15000000000000002,-0.4,0.00550000000000006,-0.0008599999999999719,0.011479999999999935,1742249175.073548
0.18999999999999995,0.1100000000000001,0.43999999999999995,0.005740000000000078,-0.010739999999999972,-0.005499999999999949,0.23499999999999988,-0.14500000000000002,-0.41500000000000004,0.008419999999999872,0.009400000000000075,0.00770000000000004,1742249175.187286
0.17999999999999994,0.11499999999999999,0.44999999999999996,0.005980000000000096,-0.011480000000000046,-0.001960000000000073,0.23499999999999988,-0.14,-0.41500000000000004,0.012700000000000156,0.01110000000000011,0.0046399999999999775,1742249175.3086069
0.17500000000000004,0.125,0.44500000000000006,0.008179999999999854,-0.015859999999999985,0.00035999999999991594,0.23499999999999988,-0.13,-0.41500000000000004,0.017079999999999984,0.0012199999999999989,0.008920000000000039,1742249175.4133382
0.15999999999999992,0.09499999999999997,0.45500000000000007,0.011840000000000073,-0.0043999999999999595,-0.0037800000000000056,0.23499999999999988,-0.125,-0.41999999999999993,0.008539999999999992,0.0009799999999999809,0.0042800000000000615,1742249175.526468
0.16999999999999993,0.09499999999999997,0.4650000000000001,0.0015800000000001369,-0.00048000000000003595,-0.0025599999999998957,0.24,-0.135,-0.42999999999999994,0.005120000000000013,-0.0012199999999999989,0.0037799999999998946,1742249175.64431
0.16500000000000004,0.10499999999999998,0.45500000000000007,0.010140000000000038,-0.0008599999999999719,-0.008299999999999974,0.24,-0.11499999999999999,-0.41999999999999993,0.011840000000000073,-0.005619999999999958,0.011840000000000073,1742249175.754457
0.16999999999999993,0.09000000000000008,0.45999999999999996,0.014399999999999968,-0.005739999999999967,-0.0034199999999999786,0.2549999999999999,-0.11499999999999999,-0.41999999999999993,0.0009799999999999809,-0.0008599999999999719,0.006460000000000132,1742249175.868393
0.16500000000000004,0.10000000000000009,0.45999999999999996,0.007200000000000095,-0.0013400000000000079,-0.0014600000000000168,0.2549999999999999,-0.10999999999999999,-0.41999999999999993,0.005120000000000013,-0.0006199999999999539,0.011479999999999935,1742249175.985108
0.16500000000000004,0.09000000000000008,0.45999999999999996,0.009279999999999955,-0.010379999999999945,-0.0014600000000000168,0.24,-0.10499999999999998,-0.41500000000000004,0.006720000000000059,0.0032999999999998586,0.010380000000000056,1742249176.0963469
0.15999999999999992,0.08499999999999996,0.45999999999999996,0.009039999999999937,-0.02061999999999997,-0.0043999999999999595,0.24,-0.08999999999999997,-0.42500000000000004,0.006599999999999939,0.014040000000000052,0.010739999999999972,1742249176.210329
0.14500000000000002,0.07499999999999996,0.4650000000000001,-0.0007399999999999629,-0.030279999999999974,-0.008179999999999965,0.2450000000000001,-0.09999999999999998,-0.43999999999999995,-0.0009799999999999809,0.017819999999999947,0.014399999999999968,1742249176.324833
0.135,0.09000000000000008,0.47,-0.0022000000000000908,-0.016960000000000086,-0.012460000000000027,0.2250000000000001,-0.08999999999999997,-0.42500000000000004,-0.008539999999999992,0.0031799999999999606,0.020140000000000047,1742249176.4384372
0.1200000000000001,0.08499999999999996,0.4750000000000001,-0.007320000000000104,-0.007940000000000058,-0.01867999999999992,0.23499999999999988,-0.07999999999999996,-0.41500000000000004,-0.04455999999999993,-0.06434000000000006,0.015139999999999931,1742249176.5525398
0.14500000000000002,0.09000000000000008,0.4650000000000001,0.009879999999999889,0.025880000000000125,0.0034199999999999786,0.27,-0.09999999999999998,-0.395,-0.01855999999999991,-0.03637999999999997,0.017819999999999947,1742249176.666537
0.1499999999999999,0.07000000000000006,0.4650000000000001,0.00537999999999994,0.021120000000000028,-0.0035399999999999876,0.29000000000000004,-0.08999999999999997,-0.405,-0.006220000000000003,-0.02415999999999996,-0.009399999999999964,1742249176.7806358
0.16500000000000004,0.07499999999999996,0.47,0.017079999999999984,0.018920000000000048,0.020499999999999963,0.2849999999999999,-0.13,-0.38,0.010000000000000009,-0.03198000000000001,-0.015619999999999967,1742249176.8944352
0.17500000000000004,0.09000000000000008,0.4650000000000001,0.019039999999999946,0.029179999999999984,-0.0015800000000000258,0.30499999999999994,-0.09499999999999997,-0.38,0.018920000000000048,-0.04700000000000004,-0.010000000000000009,1742249177.008563
0.19500000000000006,0.03499999999999992,0.45500000000000007,0.02404000000000006,0.01990000000000003,0.009640000000000093,0.31499999999999995,-0.10499999999999998,-0.36,0.0014600000000000168,-0.011360000000000037,0.008059999999999956,1742249177.124831
0.18999999999999995,0.04499999999999993,0.45500000000000007,0.0024399999999999977,0.0017000000000000348,-0.005979999999999985,0.32000000000000006,-0.09499999999999997,-0.37,0.015139999999999931,-0.03161999999999998,-0.024419999999999997,1742249177.236429
0.19500000000000006,0.030000000000000027,0.45999999999999996,0.016119999999999912,0.007200000000000095,0.017819999999999947,0.33499999999999996,-0.10999999999999999,-0.36,0.008059999999999956,-0.02954000000000001,-0.008059999999999956,1742249177.350529
0.19999999999999996,0.020000000000000018,0.45500000000000007,0.0048799999999999955,0.03161999999999998,0.012460000000000138,0.33499999999999996,-0.11499999999999999,-0.355,-0.009159999999999946,-0.01855999999999991,-0.008919999999999928,1742249177.464971
0.20999999999999996,0.050000000000000044,0.43999999999999995,-0.009039999999999937,0.021600000000000064,0.014399999999999968,0.30000000000000004,-0.12,-0.32499999999999996,-0.04125999999999996,-0.011360000000000037,0.00011999999999989797,1742249177.578426
0.20500000000000007,0.07499999999999996,0.42500000000000004,-0.0035399999999999876,0.011840000000000073,0.019279999999999964,0.33000000000000007,-0.135,-0.33499999999999996,0.01110000000000011,0.00048000000000003595,-0.011360000000000037,1742249177.6923451
0.20500000000000007,0.07499999999999996,0.44999999999999996,0.0009799999999999809,-0.0007399999999999629,-0.0007399999999999629,0.345,-0.14,-0.345,-0.0010999999999999899,-0.016120000000000023,0.006720000000000059,1742249177.806422
0.2250000000000001,0.05499999999999994,0.43500000000000005,0.0014600000000000168,0.025140000000000162,-0.01305999999999996,0.355,-0.12,-0.32499999999999996,-0.0023200000000000998,-0.028200000000000003,0.012700000000000156,1742249177.9204218
0.21999999999999997,0.040000000000000036,0.43999999999999995,-0.0050000000000000044,0.03929999999999989,-0.02307999999999999,0.3700000000000001,-0.12,-0.33499999999999996,-0.016120000000000023,-0.041019999999999945,0.019160000000000066,1742249178.0344498
0.25,0.06499999999999995,0.43500000000000005,0.027959999999999985,0.03956000000000004,-0.027700000000000058,0.385,-0.10499999999999998,-0.265,0.006720000000000059,-0.048960000000000004,0.008920000000000039,1742249178.1483672
0.2849999999999999,0.010000000000000009,0.3999999999999999,0.02540000000000009,0.015020000000000033,-0.014519999999999977,0.385,-0.08999999999999997,-0.28,0.009640000000000093,-0.014039999999999941,0.00865999999999989,1742249178.262371
0.2650000000000001,-0.010000000000000009,0.41999999999999993,0.00782000000000016,-0.0040200000000000236,-0.006460000000000021,0.405,-0.09499999999999997,-0.2849999999999999,0.006720000000000059,-0.011720000000000064,-0.009519999999999973,1742249178.376439
0.27,-0.0050000000000000044,0.43500000000000005,-0.007200000000000095,-0.022820000000000062,0.0007399999999999629,0.4099999999999999,-0.11499999999999999,-0.265,-0.034420000000000006,-0.013299999999999979,-0.0024400000000001087,1742249178.490552
0.25,0.004999999999999893,0.405,-0.009159999999999946,-0.021720000000000073,0.007560000000000011,0.3999999999999999,-0.09499999999999997,-0.26,0.010620000000000074,-0.0043999999999999595,0.0006200000000000649,1742249178.604843
0.25,-0.025000000000000022,0.42500000000000004,0.011600000000000055,0.00024000000000001798,0.00770000000000004,0.4099999999999999,-0.10999999999999999,-0.275,0.0021999999999999797,0.005980000000000096,-0.009519999999999973,1742249178.718813
0.2450000000000001,0.004999999999999893,0.43999999999999995,0.005980000000000096,-0.006720000000000059,0.005859999999999976,0.405,-0.10499999999999998,-0.27,-0.01867999999999992,0.006599999999999939,0.009279999999999955,1742249178.832314
0.2450000000000001,0.010000000000000009,0.43500000000000005,0.00782000000000016,-0.020139999999999936,-0.009039999999999937,0.4099999999999999,-0.11499999999999999,-0.26,-0.03882000000000008,0.009400000000000075,0.014780000000000015,1742249178.946377
0.23499999999999988,0.0,0.42500000000000004,-0.017340000000000022,-0.010379999999999945,-0.028679999999999928,0.41500000000000004,-0.09999999999999998,-0.27,-0.00537999999999994,0.00011999999999989797,0.0012199999999999989,1742249179.0644228
0.2250000000000001,-0.015000000000000013,0.44500000000000006,0.004999999999999893,-0.0027999999999999137,0.0018400000000000638,0.3999999999999999,-0.10999999999999999,-0.27,-0.00012000000000000899,-0.00024000000000001798,-0.0048799999999999955,1742249179.174436
0.2250000000000001,-0.010000000000000009,0.43999999999999995,0.0030599999999998406,0.00011999999999989797,0.004999999999999893,0.3999999999999999,-0.11499999999999999,-0.27,0.009759999999999991,-0.00036000000000002697,-0.01317999999999997,1742249179.289349
0.2250000000000001,-0.0050000000000000044,0.44500000000000006,0.0041599999999999415,0.0031799999999999606,0.012199999999999989,0.3999999999999999,-0.12,-0.27,0.0009799999999999809,0.00550000000000006,-0.009159999999999946,1742249179.405366
0.22999999999999998,0.0,0.44500000000000006,-0.0047599999999999865,0.00011999999999989797,0.0043999999999999595,0.3999999999999999,-0.12,-0.275,0.0034199999999999786,0.0008600000000000829,-0.0014600000000000168,1742249179.516363
0.22999999999999998,-0.0050000000000000044,0.44500000000000006,-0.00036000000000002697,0.0006200000000000649,0.0006200000000000649,0.395,-0.12,-0.275,0.00550000000000006,0.0035399999999998766,-0.0034199999999999786,1742249179.6303658
0.22999999999999998,-0.0050000000000000044,0.43999999999999995,-0.0008599999999999719,-0.0035399999999999876,0.0019599999999999618,0.3900000000000001,-0.12,-0.28,0.0046399999999999775,0.0012199999999999989,0.0006200000000000649,1742249179.747547
0.21999999999999997,0.0,0.43999999999999995,0.0018400000000000638,0.00024000000000001798,0.00035999999999991594,0.395,-0.10999999999999999,-0.28,0.013299999999999867,-0.00048000000000003595,-0.011720000000000064,1742249179.8584478
0.23499999999999988,-0.0050000000000000044,0.44500000000000006,0.0036599999999999966,-0.0009799999999999809,0.012939999999999952,0.3900000000000001,-0.12,-0.28,0.0032999999999998586,0.0025599999999998957,0.00048000000000003595,1742249179.972121
0.2250000000000001,0.0,0.44500000000000006,0.0018400000000000638,-0.0043999999999999595,0.0008600000000000829,0.3900000000000001,-0.12,-0.28,0.0031799999999999606,0.0008600000000000829,-0.0036599999999999966,1742249180.086227
0.2250000000000001,0.0,0.44500000000000006,0.00024000000000001798,-0.0009799999999999809,0.0014600000000000168,0.395,-0.11499999999999999,-0.2849999999999999,0.002080000000000082,0.0015800000000001369,0.0007399999999999629,1742249180.200143
0.2250000000000001,0.0,0.43999999999999995,0.0012199999999999989,-0.0015800000000000258,-0.0009799999999999809,0.3900000000000001,-0.11499999999999999,-0.28,-0.0008599999999999719,0.0036599999999999966,-0.0047599999999999865,1742249180.31434
0.2250000000000001,0.0,0.44500000000000006,-0.0015800000000000258,-0.0010999999999999899,0.0048799999999999955,0.3900000000000001,-0.11499999999999999,-0.28,0.0034199999999999786,0.004999999999999893,-0.0032999999999999696,1742249180.428262
0.21999999999999997,0.004999999999999893,0.44500000000000006,-0.0012199999999999989,-0.0048799999999999955,0.0032999999999998586,0.3900000000000001,-0.12,-0.28,0.0017000000000000348,0.0032999999999998586,-0.0042799999999999505,1742249180.544974
0.21999999999999997,0.004999999999999893,0.44500000000000006,0.00024000000000001798,-0.001960000000000073,0.0024399999999999977,0.3900000000000001,-0.125,-0.2849999999999999,0.0027999999999999137,-0.00012000000000000899,-0.0008599999999999719,1742249180.656317
0.21999999999999997,0.004999999999999893,0.44500000000000006,0.0029200000000000337,-0.00048000000000003595,-0.00048000000000003595,0.3900000000000001,-0.11499999999999999,-0.2849999999999999,0.001100000000000101,0.0006200000000000649,-0.0041599999999999415,1742249180.770303
0.21999999999999997,0.0,0.44500000000000006,-0.0014600000000000168,0.00011999999999989797,0.0037799999999998946,0.3900000000000001,-0.125,-0.2849999999999999,0.0021999999999999797,0.0024399999999999977,-0.0023200000000000998,1742249180.884314
0.21999999999999997,0.004999999999999893,0.44500000000000006,-0.00012000000000000899,-0.0039000000000000146,0.001100000000000101,0.385,-0.11499999999999999,-0.2849999999999999,0.0009799999999999809,0.0025599999999998957,-0.0037800000000000056,1742249180.9982772
0.21999999999999997,0.004999999999999893,0.44500000000000006,-0.0012199999999999989,-0.0025599999999998957,0.0032999999999998586,0.3900000000000001,-0.125,-0.29000000000000004,0.00048000000000003595,0.0007399999999999629,-0.0022000000000000908,1742249181.112286
0.21999999999999997,0.014999999999999902,0.44999999999999996,0.002080000000000082,-0.00024000000000001798,-0.0006199999999999539,0.385,-0.12,-0.2849999999999999,0.0014600000000000168,0.0,-0.0017000000000000348,1742249181.227126
0.21999999999999997,0.004999999999999893,0.44500000000000006,-0.0013400000000000079,-0.00024000000000001798,0.0015800000000001369,0.385,-0.125,-0.29000000000000004,0.00024000000000001798,0.0026800000000000157,0.00024000000000001798,1742249181.340178
0.21999999999999997,0.010000000000000009,0.44500000000000006,0.00024000000000001798,-0.0029199999999999227,-0.0014600000000000168,0.385,-0.12,-0.2849999999999999,0.0017000000000000348,0.0017000000000000348,-0.00012000000000000899,1742249181.454247
0.21500000000000008,0.0,0.44500000000000006,0.00035999999999991594,-0.00036000000000002697,-0.00048000000000003595,0.385,-0.125,-0.2849999999999999,0.0013400000000001189,0.0018400000000000638,-0.0017000000000000348,1742249181.568292
0.21999999999999997,0.004999999999999893,0.44500000000000006,-0.00024000000000001798,-0.001960000000000073,0.00024000000000001798,0.385,-0.125,-0.2849999999999999,-0.0007399999999999629,-0.0018400000000000638,-0.0015800000000000258,1742249181.6849449
0.21999999999999997,0.004999999999999893,0.44500000000000006,-0.0010999999999999899,0.0009799999999999809,0.00035999999999991594,0.3799999999999999,-0.12,-0.29000000000000004,-0.0017000000000000348,-0.0014600000000000168,-0.0012199999999999989,1742249181.796476
0.21999999999999997,0.004999999999999893,0.44500000000000006,-0.00024000000000001798,0.00011999999999989797,-0.00048000000000003595,0.3799999999999999,-0.12,-0.29000000000000004,-0.0006199999999999539,0.0008600000000000829,0.0,1742249181.91024
0.21999999999999997,0.010000000000000009,0.44500000000000006,0.00035999999999991594,-0.0013400000000000079,-0.0010999999999999899,0.385,-0.12,-0.29000000000000004,0.0,-0.00012000000000000899,-0.0006199999999999539,1742249182.024262
0.21999999999999997,0.004999999999999893,0.44999999999999996,0.0006200000000000649,0.00035999999999991594,-0.0006199999999999539,0.3799999999999999,-0.12,-0.29000000000000004,-0.00024000000000001798,-0.0009799999999999809,0.0008600000000000829,1742249182.1383429
0.21999999999999997,0.010000000000000009,0.44500000000000006,0.0017000000000000348,-0.0007399999999999629,-0.0010999999999999899,0.385,-0.12,-0.29499999999999993,0.0017000000000000348,-0.00012000000000000899,-0.0024400000000001087,1742249182.252256
0.21999999999999997,0.004999999999999893,0.44999999999999996,-0.00036000000000002697,0.0008600000000000829,0.001100000000000101,0.3799999999999999,-0.12,-0.29499999999999993,0.0024399999999999977,0.001100000000000101,0.0,1742249182.366071
0.21500000000000008,0.010000000000000009,0.44500000000000006,0.0012199999999999989,-0.0012199999999999989,0.0006200000000000649,0.385,-0.12,-0.29499999999999993,-0.00024000000000001798,0.0045200000000000795,0.001100000000000101,1742249182.479281
0.21500000000000008,0.004999999999999893,0.44500000000000006,-0.0014600000000000168,-0.0014600000000000168,-0.0022000000000000908,0.3799999999999999,-0.12,-0.29499999999999993,0.00048000000000003595,0.0034199999999999786,0.0031799999999999606,1742249182.593196
0.20999999999999996,0.010000000000000009,0.44999999999999996,0.0009799999999999809,-0.0030599999999999516,-0.0027999999999999137,0.3799999999999999,-0.12,-0.29499999999999993,-0.0023200000000000998,0.0018400000000000638,0.0008600000000000829,1742249182.707272
0.21500000000000008,0.010000000000000009,0.44500000000000006,-0.00036000000000002697,-0.00048000000000003595,-0.0024400000000001087,0.385,-0.11499999999999999,-0.29499999999999993,-0.0029199999999999227,0.004999999999999893,0.0007399999999999629,1742249182.8247528
0.21500000000000008,0.004999999999999893,0.44999999999999996,0.00035999999999991594,-0.0037800000000000056,-0.0036599999999999966,0.375,-0.12,-0.29499999999999993,-0.011099999999999999,0.008179999999999854,0.009279999999999955,1742249182.935175
0.20500000000000007,0.004999999999999893,0.44999999999999996,-0.005859999999999976,-0.012460000000000027,-0.014639999999999986,0.3700000000000001,-0.12,-0.30000000000000004,-0.0006199999999999539,0.0029200000000000337,-0.00024000000000001798,1742249183.049372
0.20500000000000007,0.004999999999999893,0.44999999999999996,-0.0018400000000000638,-0.001960000000000073,-0.0018400000000000638,0.3799999999999999,-0.11499999999999999,-0.30499999999999994,-0.00012000000000000899,0.0015800000000001369,-0.0031799999999999606,1742249183.16429
0.20500000000000007,0.004999999999999893,0.45500000000000007,0.00024000000000001798,0.00048000000000003595,0.0025599999999998957,0.375,-0.11499999999999999,-0.30000000000000004,0.0026800000000000157,0.0036599999999999966,0.00024000000000001798,1742249183.2771552
0.20500000000000007,0.004999999999999893,0.44999999999999996,-0.0010999999999999899,-0.0010999999999999899,-0.001960000000000073,0.3700000000000001,-0.12,-0.30000000000000004,-0.00024000000000001798,0.0025599999999998957,-0.0043999999999999595,1742249183.391257
0.20500000000000007,0.010000000000000009,0.44999999999999996,-0.0030599999999999516,0.0,0.0024399999999999977,0.3799999999999999,-0.12,-0.30000000000000004,-0.00012000000000000899,-0.001960000000000073,-0.0039000000000000146,1742249183.505334
0.20999999999999996,0.004999999999999893,0.44999999999999996,0.00011999999999989797,-0.00048000000000003595,0.0017000000000000348,0.375,-0.12,-0.30000000000000004,-0.00036000000000002697,0.00024000000000001798,-0.0034199999999999786,1742249183.619264
0.20999999999999996,0.010000000000000009,0.44999999999999996,-0.0010999999999999899,0.00035999999999991594,0.0025599999999998957,0.375,-0.125,-0.30499999999999994,-0.0025599999999998957,0.0030599999999998406,-0.0050000000000000044,1742249183.733294
0.20999999999999996,0.014999999999999902,0.45500000000000007,-0.0036599999999999966,-0.0008599999999999719,0.0014600000000000168,0.3700000000000001,-0.125,-0.30000000000000004,0.0014600000000000168,0.00011999999999989797,-0.0025599999999998957,1742249183.847214
0.20500000000000007,0.010000000000000009,0.44999999999999996,-0.001960000000000073,0.00035999999999991594,0.0018400000000000638,0.375,-0.125,-0.30000000000000004,0.0015800000000001369,0.0017000000000000348,-0.0045199999999999685,1742249183.965481
0.20999999999999996,0.014999999999999902,0.44999999999999996,0.00011999999999989797,-0.0012199999999999989,0.0036599999999999966,0.375,-0.125,-0.30000000000000004,-0.0015800000000000258,-0.0009799999999999809,-0.0017000000000000348,1742249184.075369
0.21500000000000008,0.014999999999999902,0.44500000000000006,-0.0015800000000000258,0.0,0.00024000000000001798,0.3700000000000001,-0.13,-0.30000000000000004,-0.0009799999999999809,0.0023200000000000998,-0.0014600000000000168,1742249184.189269
0.20999999999999996,0.014999999999999902,0.44999999999999996,-0.002080000000000082,-0.0024400000000001087,0.00035999999999991594,0.3700000000000001,-0.125,-0.30000000000000004,0.0006200000000000649,0.0030599999999998406,0.0012199999999999989,1742249184.3036969
0.20999999999999996,0.014999999999999902,0.44999999999999996,-0.00048000000000003595,-0.0031799999999999606,-0.0017000000000000348,0.3700000000000001,-0.125,-0.30499999999999994,-0.0010999999999999899,0.0013400000000001189,-0.002080000000000082,1742249184.417289
0.20500000000000007,0.020000000000000018,0.44999999999999996,-0.0012199999999999989,-0.00048000000000003595,0.0008600000000000829,0.3700000000000001,-0.125,-0.30499999999999994,0.00048000000000003595,0.0013400000000001189,0.0008600000000000829,1742249184.5310988
0.20500000000000007,0.020000000000000018,0.44999999999999996,0.00024000000000001798,-0.0018400000000000638,-0.0013400000000000079,0.3700000000000001,-0.13,-0.31000000000000005,-0.0007399999999999629,0.0008600000000000829,-0.0030599999999999516,1742249184.6452649
0.20500000000000007,0.02499999999999991,0.45500000000000007,-0.0018400000000000638,0.0013400000000001189,0.0007399999999999629,0.3700000000000001,-0.125,-0.31000000000000005,0.00048000000000003595,0.0019599999999999618,0.0009799999999999809,1742249184.759063
0.19999999999999996,0.020000000000000018,0.45500000000000007,-0.00012000000000000899,-0.0006199999999999539,-0.0015800000000000258,0.365,-0.13,-0.30499999999999994,-0.0006199999999999539,0.001100000000000101,-0.0008599999999999719,1742249184.873163
0.20500000000000007,0.020000000000000018,0.44999999999999996,-0.0006199999999999539,-0.0006199999999999539,-0.00024000000000001798,0.365,-0.13,-0.31000000000000005,-0.0006199999999999539,0.0009799999999999809,-0.0023200000000000998,1742249184.987256
0.20500000000000007,0.020000000000000018,0.44999999999999996,-0.0010999999999999899,0.001100000000000101,0.00048000000000003595,0.365,-0.13,-0.31000000000000005,0.002080000000000082,0.0015800000000001369,-0.0014600000000000168,1742249185.104681
0.20500000000000007,0.020000000000000018,0.45500000000000007,0.00048000000000003595,0.0013400000000001189,0.00035999999999991594,0.365,-0.125,-0.30499999999999994,0.00048000000000003595,0.0013400000000001189,-0.0036599999999999966,1742249185.21505
0.20500000000000007,0.020000000000000018,0.44999999999999996,-0.0007399999999999629,-0.0006199999999999539,0.0027999999999999137,0.365,-0.13,-0.31499999999999995,0.0026800000000000157,0.00024000000000001798,-0.0014600000000000168,1742249185.329066
0.20500000000000007,0.02499999999999991,0.45500000000000007,0.0019599999999999618,-0.00048000000000003595,0.001100000000000101,0.365,-0.13,-0.31000000000000005,0.0006200000000000649,0.0013400000000001189,-0.0012199999999999989,1742249185.44413
0.20500000000000007,0.02499999999999991,0.45500000000000007,0.00035999999999991594,0.0009799999999999809,0.0008600000000000829,0.365,-0.13,-0.31000000000000005,-0.00048000000000003595,0.0015800000000001369,-0.00024000000000001798,1742249185.557158
0.20500000000000007,0.02499999999999991,0.45500000000000007,0.00048000000000003595,0.0008600000000000829,-0.0006199999999999539,0.365,-0.13,-0.31000000000000005,0.0012199999999999989,-0.0007399999999999629,0.0024399999999999977,1742249185.6710222
0.20500000000000007,0.020000000000000018,0.44999999999999996,0.0026800000000000157,-0.00036000000000002697,-0.0022000000000000908,0.3599999999999999,-0.13,-0.31000000000000005,0.00011999999999989797,-0.00048000000000003595,-0.0015800000000000258,1742249185.7851362
0.20500000000000007,0.020000000000000018,0.44999999999999996,0.00024000000000001798,0.00035999999999991594,0.0006200000000000649,0.365,-0.135,-0.31000000000000005,0.0015800000000001369,-0.0018400000000000638,-0.001960000000000073,1742249185.899161
0.20999999999999996,0.02499999999999991,0.44999999999999996,0.0019599999999999618,0.0014600000000000168,0.0017000000000000348,0.365,-0.13,-0.31000000000000005,0.0042800000000000615,-0.005859999999999976,-0.00537999999999994,1742249186.013204
0.20500000000000007,0.014999999999999902,0.44999999999999996,0.006340000000000012,0.006599999999999939,0.008059999999999956,0.365,-0.135,-0.31499999999999995,0.0009799999999999809,0.0019599999999999618,-0.0035399999999999876,1742249186.127077
0.20999999999999996,0.02499999999999991,0.45500000000000007,-0.00048000000000003595,-0.0015800000000000258,0.002080000000000082,0.365,-0.125,-0.31000000000000005,0.00048000000000003595,-0.0045199999999999685,-0.0014600000000000168,1742249186.241131
0.20500000000000007,0.02499999999999991,0.44999999999999996,0.002080000000000082,0.0037799999999998946,0.0,0.3700000000000001,-0.13,-0.30499999999999994,0.0007399999999999629,-0.0029199999999999227,-0.002080000000000082,1742249186.355127
0.21500000000000008,0.020000000000000018,0.44999999999999996,0.0017000000000000348,0.0027999999999999137,0.0015800000000001369,0.3700000000000001,-0.125,-0.31000000000000005,-0.00036000000000002697,0.0019599999999999618,-0.00036000000000002697,1742249186.4691598
0.20999999999999996,0.020000000000000018,0.44999999999999996,-0.0006199999999999539,0.0006200000000000649,0.00011999999999989797,0.365,-0.135,-0.31000000000000005,0.0017000000000000348,-0.0014600000000000168,0.0012199999999999989,1742249186.584929
0.20999999999999996,0.030000000000000027,0.44999999999999996,0.00048000000000003595,0.00035999999999991594,-0.0009799999999999809,0.3700000000000001,-0.13,-0.30499999999999994,0.00035999999999991594,0.0017000000000000348,-0.0035399999999999876,1742249186.697079
0.20999999999999996,0.020000000000000018,0.44999999999999996,-0.001960000000000073,0.0,0.0025599999999998957,0.3700000000000001,-0.14,-0.31000000000000005,-0.0017000000000000348,0.010499999999999954,-0.0035399999999999876,1742249186.8111858
0.21500000000000008,0.02499999999999991,0.44999999999999996,-0.009279999999999955,-0.008059999999999956,0.0032999999999998586,0.3599999999999999,-0.135,-0.31499999999999995,-0.0039000000000000146,0.0015800000000001369,0.001100000000000101,1742249186.9250538
0.20500000000000007,0.030000000000000027,0.44999999999999996,-0.0017000000000000348,0.00024000000000001798,-0.0031799999999999606,0.3599999999999999,-0.13,-0.31000000000000005,-0.0010999999999999899,-0.0006199999999999539,0.00011999999999989797,1742249187.0391638
0.20999999999999996,0.030000000000000027,0.44999999999999996,0.0,0.0026800000000000157,-0.0018400000000000638,0.3599999999999999,-0.135,-0.31000000000000005,0.0015800000000001369,0.00024000000000001798,-0.0013400000000000079,1742249187.1529732
0.21500000000000008,0.03499999999999992,0.44999999999999996,-0.0015800000000000258,0.0008600000000000829,0.0018400000000000638,0.3599999999999999,-0.135,-0.31000000000000005,0.0013400000000001189,0.0037799999999998946,-0.0018400000000000638,1742249187.268089
0.20999999999999996,0.030000000000000027,0.44500000000000006,-0.0012199999999999989,-0.006840000000000068,0.0023200000000000998,0.3599999999999999,-0.14500000000000002,-0.31499999999999995,-0.002080000000000082,0.0026800000000000157,-0.005240000000000022,1742249187.384084
0.20999999999999996,0.03499999999999992,0.44999999999999996,-0.0034199999999999786,-0.0014600000000000168,0.0046399999999999775,0.3599999999999999,-0.14,-0.31499999999999995,0.00024000000000001798,0.0019599999999999618,0.00048000000000003595,1742249187.494967
0.20500000000000007,0.03499999999999992,0.44999999999999996,-0.0018400000000000638,-0.0013400000000000079,0.0,0.355,-0.14,-0.31499999999999995,0.00048000000000003595,0.00011999999999989797,-0.0010999999999999899,1742249187.6089642
0.20999999999999996,0.03499999999999992,0.44999999999999996,0.00011999999999989797,0.001100000000000101,0.0006200000000000649,0.3599999999999999,-0.135,-0.32000000000000006,0.0013400000000001189,0.0030599999999998406,-0.00036000000000002697,1742249187.726582
0.20500000000000007,0.03499999999999992,0.44999999999999996,-0.0018400000000000638,-0.0025599999999998957,-0.00012000000000000899,0.355,-0.14,-0.31499999999999995,0.0034199999999999786,0.002080000000000082,0.001100000000000101,1742249187.8369842
0.20500000000000007,0.03499999999999992,0.44500000000000006,0.0015800000000001369,-0.001960000000000073,0.0,0.3599999999999999,-0.14,-0.31499999999999995,-0.00012000000000000899,0.0032999999999998586,-0.001960000000000073,1742249187.95102
0.20500000000000007,0.03499999999999992,0.44999999999999996,-0.0023200000000000998,-0.0047599999999999865,0.0008600000000000829,0.355,-0.14,-0.32000000000000006,-0.00048000000000003595,0.0024399999999999977,0.0009799999999999809,1742249188.064961
0.20500000000000007,0.03499999999999992,0.45500000000000007,-0.0008599999999999719,-0.002080000000000082,-0.0017000000000000348,0.355,-0.135,-0.32000000000000006,0.00035999999999991594,0.0015800000000001369,0.0008600000000000829,1742249188.178883
0.19999999999999996,0.03499999999999992,0.44999999999999996,0.00024000000000001798,-0.0014600000000000168,-0.0014600000000000168,0.3599999999999999,-0.14,-0.32000000000000006,0.00024000000000001798,0.0006200000000000649,-0.0009799999999999809,1742249188.292945
0.19999999999999996,0.03499999999999992,0.45500000000000007,-0.00048000000000003595,-0.001960000000000073,0.00035999999999991594,0.355,-0.14500000000000002,-0.32000000000000006,-0.01305999999999996,0.011239999999999917,0.011600000000000055,1742249188.40694
0.19999999999999996,0.03499999999999992,0.45500000000000007,-0.008179999999999965,-0.01525999999999994,-0.01978000000000002,0.3400000000000001,-0.135,-0.32499999999999996,-0.008419999999999983,0.01195999999999997,0.010620000000000074,1742249188.5212328
0.18999999999999995,0.040000000000000036,0.45500000000000007,-0.005859999999999976,-0.015020000000000033,-0.015859999999999985,0.355,-0.13,-0.32499999999999996,-0.0017000000000000348,0.01110000000000011,0.006460000000000132,1742249188.6350029
0.18999999999999995,0.030000000000000027,0.45999999999999996,-0.0039000000000000146,-0.012319999999999998,-0.01097999999999999,0.345,-0.13,-0.33000000000000007,-0.0023200000000000998,0.005980000000000096,0.0040199999999999125,1742249188.748958
0.17999999999999994,0.03499999999999992,0.45999999999999996,-0.001960000000000073,-0.008179999999999965,-0.005240000000000022,0.345,-0.125,-0.33000000000000007,-0.00012000000000000899,0.0024399999999999977,-0.0007399999999999629,1742249188.864724
0.17999999999999994,0.03499999999999992,0.45999999999999996,-0.0018400000000000638,-0.0013400000000000079,-0.0009799999999999809,0.345,-0.135,-0.33499999999999996,-0.0008599999999999719,0.0027999999999999137,-0.0024400000000001087,1742249188.977103
0.17500000000000004,0.04499999999999993,0.45999999999999996,-0.0017000000000000348,0.0006200000000000649,0.0019599999999999618,0.3500000000000001,-0.135,-0.33000000000000007,-0.0007399999999999629,-0.0008599999999999719,-0.0007399999999999629,1742249189.091164
0.18500000000000005,0.040000000000000036,0.4650000000000001,0.0008600000000000829,-0.0007399999999999629,0.00048000000000003595,0.345,-0.135,-0.33000000000000007,-0.0006199999999999539,-0.0012199999999999989,-0.0012199999999999989,1742249189.205345
0.17500000000000004,0.040000000000000036,0.45999999999999996,0.0015800000000001369,0.0031799999999999606,0.0006200000000000649,0.3400000000000001,-0.135,-0.33499999999999996,-0.0010999999999999899,0.002080000000000082,0.0007399999999999629,1742249189.318999
0.17999999999999994,0.040000000000000036,0.45999999999999996,-0.0018400000000000638,-0.0006199999999999539,-0.0012199999999999989,0.345,-0.13,-0.33000000000000007,0.0007399999999999629,-0.0025599999999998957,0.0,1742249189.432849
0.17500000000000004,0.040000000000000036,0.45999999999999996,0.0018400000000000638,0.0030599999999998406,-0.0007399999999999629,0.345,-0.135,-0.33499999999999996,0.002080000000000082,-0.0032999999999999696,-0.002080000000000082,1742249189.547075
0.17500000000000004,0.04499999999999993,0.45999999999999996,0.0029200000000000337,0.004999999999999893,0.0019599999999999618,0.355,-0.14,-0.33000000000000007,0.002080000000000082,-0.0075599999999999,0.0039000000000000146,1742249189.663914
0.18999999999999995,0.040000000000000036,0.45999999999999996,0.00782000000000016,0.005239999999999911,-0.0030599999999999516,0.3500000000000001,-0.13,-0.32499999999999996,-0.0022000000000000908,-0.006460000000000021,-0.00024000000000001798,1742249189.775074
0.18999999999999995,0.03499999999999992,0.45999999999999996,-0.00036000000000002697,0.0037799999999998946,0.0008600000000000829,0.3500000000000001,-0.135,-0.32499999999999996,-0.0042799999999999505,0.00035999999999991594,-0.0040200000000000236,1742249189.889034
0.18999999999999995,0.030000000000000027,0.45999999999999996,-0.0013400000000000079,0.0027999999999999137,0.0026800000000000157,0.345,-0.14,-0.33499999999999996,0.00011999999999989797,0.0,-0.006099999999999994,1742249190.004608
0.18500000000000005,0.04499999999999993,0.45999999999999996,-0.001960000000000073,-0.0012199999999999989,0.006839999999999957,0.3500000000000001,-0.14,-0.32000000000000006,0.001100000000000101,-0.0031799999999999606,-0.0010999999999999899,1742249190.117098
0.18999999999999995,0.04499999999999993,0.45500000000000007,0.0032999999999998586,0.0021999999999999797,0.0015800000000001369,0.3500000000000001,-0.14,-0.33000000000000007,-0.0012199999999999989,-0.0008599999999999719,-0.0026799999999999047,1742249190.231099
0.18999999999999995,0.040000000000000036,0.45999999999999996,-0.0006199999999999539,0.00035999999999991594,0.0017000000000000348,0.3500000000000001,-0.135,-0.32499999999999996,-0.002080000000000082,0.00048000000000003595,0.0027999999999999137,1742249190.344828
0.18999999999999995,0.040000000000000036,0.45500000000000007,0.00035999999999991594,-0.0008599999999999719,-0.0035399999999999876,0.345,-0.135,-0.32499999999999996,-0.00012000000000000899,0.0018400000000000638,-0.002080000000000082,1742249190.458957
0.18999999999999995,0.04499999999999993,0.45500000000000007,-0.0027999999999999137,-0.0007399999999999629,0.00035999999999991594,0.3500000000000001,-0.135,-0.33000000000000007,-0.0006199999999999539,0.0015800000000001369,-0.0031799999999999606,1742249190.572957
0.18999999999999995,0.04499999999999993,0.45999999999999996,-0.0018400000000000638,-0.0017000000000000348,0.0009799999999999809,0.345,-0.14,-0.32499999999999996,0.00035999999999991594,0.0006200000000000649,-0.0009799999999999809,1742249190.686852
0.18999999999999995,0.04499999999999993,0.45500000000000007,-0.00024000000000001798,-0.0012199999999999989,0.00011999999999989797,0.3500000000000001,-0.14500000000000002,-0.33000000000000007,-0.00012000000000000899,0.0023200000000000998,-0.0012199999999999989,1742249190.8032918
0.18999999999999995,0.04499999999999993,0.45500000000000007,0.0,-0.0018400000000000638,0.0006200000000000649,0.345,-0.14,-0.32499999999999996,-0.0010999999999999899,-0.0010999999999999899,0.002080000000000082,1742249190.9151192
0.18500000000000005,0.04499999999999993,0.45500000000000007,0.0008600000000000829,0.0015800000000001369,-0.0026799999999999047,0.3500000000000001,-0.14500000000000002,-0.33000000000000007,-0.0022000000000000908,0.002080000000000082,-0.0045199999999999685,1742249191.0293708
0.18999999999999995,0.04499999999999993,0.45999999999999996,-0.0024400000000001087,0.0014600000000000168,0.0029200000000000337,0.345,-0.135,-0.32499999999999996,0.0012199999999999989,-0.0009799999999999809,0.0035399999999998766,1742249191.144228
0.18500000000000005,0.050000000000000044,0.45500000000000007,0.0031799999999999606,-0.0012199999999999989,-0.0027999999999999137,0.3500000000000001,-0.14500000000000002,-0.32499999999999996,-0.0010999999999999899,0.0009799999999999809,-0.005619999999999958,1742249191.2569852
0.18999999999999995,0.04499999999999993,0.45500000000000007,-0.0015800000000000258,0.0017000000000000348,0.0034199999999999786,0.3500000000000001,-0.14,-0.33000000000000007,0.0008600000000000829,0.00048000000000003595,0.0024399999999999977,1742249191.370794
0.18500000000000005,0.050000000000000044,0.45999999999999996,0.0013400000000001189,-0.0030599999999999516,-0.0018400000000000638,0.345,-0.14,-0.32000000000000006,0.0021999999999999797,-0.0010999999999999899,0.0025599999999998957,1742249191.4849029
0.18999999999999995,0.04499999999999993,0.45500000000000007,0.0046399999999999775,0.0009799999999999809,-0.001960000000000073,0.345,-0.14,-0.33000000000000007,-0.0013400000000000079,0.00035999999999991594,-0.0037800000000000056,1742249191.598977
0.18500000000000005,0.04499999999999993,0.45999999999999996,-0.0013400000000000079,0.0,0.0026800000000000157,0.3500000000000001,-0.14,-0.32499999999999996,0.0008600000000000829,-0.002080000000000082,-0.00024000000000001798,1742249191.7129622
0.18999999999999995,0.050000000000000044,0.45999999999999996,0.00035999999999991594,0.0024399999999999977,0.00024000000000001798,0.3500000000000001,-0.14,-0.32000000000000006,0.00011999999999989797,0.0019599999999999618,-0.0027999999999999137,1742249191.826889
0.18999999999999995,0.04499999999999993,0.45500000000000007,-0.0013400000000000079,-0.00048000000000003595,0.0017000000000000348,0.3500000000000001,-0.14500000000000002,-0.33000000000000007,-0.00024000000000001798,0.0017000000000000348,0.0006200000000000649,1742249191.941708
0.18999999999999995,0.050000000000000044,0.45999999999999996,-0.0012199999999999989,-0.0015800000000000258,0.0,0.345,-0.14,-0.32499999999999996,-0.00048000000000003595,-0.0007399999999999629,-0.0009799999999999809,1742249192.0550542
0.18500000000000005,0.04499999999999993,0.45500000000000007,0.0008600000000000829,0.0021999999999999797,-0.0007399999999999629,0.345,-0.14500000000000002,-0.33000000000000007,0.00011999999999989797,0.0019599999999999618,-0.0012199999999999989,1742249192.168868
0.18999999999999995,0.050000000000000044,0.45999999999999996,0.0,-0.0010999999999999899,0.0018400000000000638,0.345,-0.13,-0.32499999999999996,-0.0012199999999999989,-0.00048000000000003595,0.0026800000000000157,1742249192.2828748
0.18999999999999995,0.040000000000000036,0.45999999999999996,0.0034199999999999786,0.0013400000000001189,-0.0029199999999999227,0.345,-0.14500000000000002,-0.33000000000000007,-0.00024000000000001798,0.0017000000000000348,-0.0034199999999999786,1742249192.397014
0.19500000000000006,0.05499999999999994,0.45500000000000007,-0.0013400000000000079,0.0006200000000000649,0.0041599999999999415,0.345,-0.14,-0.33000000000000007,0.00048000000000003595,0.0,-0.0008599999999999719,1742249192.510762
0.18500000000000005,0.050000000000000044,0.45999999999999996,0.00011999999999989797,-0.00048000000000003595,0.0006200000000000649,0.345,-0.14500000000000002,-0.33000000000000007,0.0,0.0006200000000000649,0.0017000000000000348,1742249192.6247191
0.18500000000000005,0.050000000000000044,0.45500000000000007,-0.0010999999999999899,-0.0013400000000000079,-0.0007399999999999629,0.345,-0.14,-0.32499999999999996,-0.001960000000000073,0.00011999999999989797,-0.0029199999999999227,1742249192.738886
0.18500000000000005,0.04499999999999993,0.45999999999999996,-0.0023200000000000998,0.0021999999999999797,-0.0006199999999999539,0.345,-0.14,-0.33000000000000007,-0.0006199999999999539,0.00024000000000001798,0.0006200000000000649,1742249192.85281
0.18500000000000005,0.050000000000000044,0.45999999999999996,-0.00024000000000001798,-0.0008599999999999719,-0.0010999999999999899,0.345,-0.14500000000000002,-0.32499999999999996,-0.001960000000000073,-0.0006199999999999539,-0.0030599999999999516,1742249192.9669352
0.18999999999999995,0.050000000000000044,0.44999999999999996,-0.0006199999999999539,0.0023200000000000998,0.0019599999999999618,0.3400000000000001,-0.15000000000000002,-0.33000000000000007,0.0031799999999999606,0.0025599999999998957,-0.0012199999999999989,1742249193.082004
0.18999999999999995,0.05499999999999994,0.45500000000000007,0.0,-0.0012199999999999989,0.0027999999999999137,0.345,-0.14500000000000002,-0.33000000000000007,0.0017000000000000348,0.0024399999999999977,-0.0009799999999999809,1742249193.194787
0.18999999999999995,0.050000000000000044,0.45999999999999996,0.0009799999999999809,-0.0022000000000000908,0.0008600000000000829,0.3400000000000001,-0.14500000000000002,-0.33000000000000007,-0.0022000000000000908,0.0041599999999999415,-0.0017000000000000348,1742249193.3088572
0.18500000000000005,0.050000000000000044,0.45500000000000007,-0.0014600000000000168,-0.002080000000000082,0.0008600000000000829,0.3400000000000001,-0.14500000000000002,-0.33499999999999996,-0.0013400000000000079,0.00035999999999991594,-0.002080000000000082,1742249193.425128
0.18500000000000005,0.06000000000000005,0.45999999999999996,-0.0014600000000000168,0.0012199999999999989,0.00048000000000003595,0.3400000000000001,-0.15000000000000002,-0.33000000000000007,0.001100000000000101,-0.001960000000000073,0.002080000000000082,1742249193.536836
0.18999999999999995,0.06000000000000005,0.45999999999999996,-0.00012000000000000899,-0.0006199999999999539,-0.0006199999999999539,0.3400000000000001,-0.14500000000000002,-0.33499999999999996,-0.002080000000000082,-0.0024400000000001087,-0.0035399999999999876,1742249193.6509728
0.17999999999999994,0.050000000000000044,0.45500000000000007,0.0006200000000000649,0.0031799999999999606,-0.00036000000000002697,0.3400000000000001,-0.15000000000000002,-0.33000000000000007,0.0013400000000001189,0.00048000000000003595,0.0037799999999998946,1742249193.768048
0.18999999999999995,0.06000000000000005,0.45999999999999996,0.00011999999999989797,-0.0015800000000000258,-0.0010999999999999899,0.3400000000000001,-0.14500000000000002,-0.32499999999999996,-0.00024000000000001798,0.0007399999999999629,-0.0006199999999999539,1742249193.878853
0.18500000000000005,0.04499999999999993,0.45500000000000007,0.0014600000000000168,0.00048000000000003595,-0.0024400000000001087,0.345,-0.15000000000000002,-0.3400000000000001,0.0041599999999999415,0.012199999999999989,0.005619999999999958,1742249193.992618
0.19500000000000006,0.06000000000000005,0.45999999999999996,0.00024000000000001798,-0.011960000000000082,-0.002080000000000082,0.33499999999999996,-0.135,-0.33499999999999996,-0.00048000000000003595,0.0047600000000000975,0.0048799999999999955,1742249194.106812
0.17500000000000004,0.04499999999999993,0.45999999999999996,0.0008600000000000829,-0.006220000000000003,-0.006720000000000059,0.3500000000000001,-0.14,-0.33499999999999996,-0.01317999999999997,0.010860000000000092,-0.005739999999999967,1742249194.220842
0.18500000000000005,0.040000000000000036,0.45999999999999996,-0.018440000000000012,-0.00024000000000001798,-0.0006199999999999539,0.32499999999999996,-0.14500000000000002,-0.3400000000000001,0.0014600000000000168,0.0019599999999999618,0.006960000000000077,1742249194.33459
0.17500000000000004,0.08000000000000007,0.45999999999999996,-0.006460000000000021,-0.0040200000000000236,-0.0035399999999999876,0.33000000000000007,-0.14,-0.3400000000000001,0.0,0.007560000000000011,-0.0031799999999999606,1742249194.4487948
0.17999999999999994,0.05499999999999994,0.45999999999999996,-0.0024400000000001087,-0.0006199999999999539,-0.00036000000000002697,0.32499999999999996,-0.14500000000000002,-0.345,0.007440000000000113,0.007319999999999993,0.0042800000000000615,1742249194.564227
0.17500000000000004,0.07000000000000006,0.45999999999999996,0.00011999999999989797,-0.007200000000000095,0.0025599999999998957,0.33000000000000007,-0.13,-0.345,0.0007399999999999629,0.0015800000000001369,0.0009799999999999809,1742249194.676794
0.16500000000000004,0.05499999999999994,0.4650000000000001,0.00035999999999991594,-0.0025599999999998957,-0.0040200000000000236,0.32499999999999996,-0.135,-0.35,0.0034199999999999786,0.0042800000000000615,-0.00036000000000002697,1742249194.790813
0.17500000000000004,0.06000000000000005,0.45999999999999996,-0.00024000000000001798,-0.00036000000000002697,0.0013400000000001189,0.32499999999999996,-0.13,-0.35,-0.0014600000000000168,-0.0006199999999999539,-0.0007399999999999629,1742249194.904973
0.16999999999999993,0.06000000000000005,0.45999999999999996,-0.00048000000000003595,0.0036599999999999966,-0.0010999999999999899,0.32499999999999996,-0.14,-0.35,-0.0018400000000000638,0.0008600000000000829,-0.002080000000000082,1742249195.018891
0.17999999999999994,0.06000000000000005,0.45999999999999996,-0.0042799999999999505,0.007560000000000011,0.0009799999999999809,0.32499999999999996,-0.135,-0.3400000000000001,-0.005499999999999949,0.005859999999999976,-0.0039000000000000146,1742249195.13281
0.17999999999999994,0.06000000000000005,0.44999999999999996,-0.008660000000000001,0.008179999999999854,0.0018400000000000638,0.32499999999999996,-0.14500000000000002,-0.36,-0.0007399999999999629,0.0047600000000000975,-0.00660000000000005,1742249195.247277
0.17999999999999994,0.08000000000000007,0.45999999999999996,-0.00878000000000001,0.0029200000000000337,0.00550000000000006,0.32499999999999996,-0.15000000000000002,-0.345,0.0014600000000000168,-0.0046399999999999775,-0.0006199999999999539,1742249195.364465
0.18500000000000005,0.08000000000000007,0.45500000000000007,0.0036599999999999966,0.005859999999999976,0.0034199999999999786,0.32499999999999996,-0.135,-0.345,-0.0010999999999999899,0.0043999999999999595,-0.0030599999999999516,1742249195.474894
0.18999999999999995,0.06000000000000005,0.45500000000000007,-0.00048000000000003595,-0.001960000000000073,0.0,0.32499999999999996,-0.14500000000000002,-0.35,-0.0047599999999999865,0.0015800000000001369,-0.0007399999999999629,1742249195.5888069
0.18500000000000005,0.08499999999999996,0.44999999999999996,-0.007940000000000058,0.00024000000000001798,-0.001960000000000073,0.32000000000000006,-0.15000000000000002,-0.35,-0.0014600000000000168,0.0007399999999999629,0.00035999999999991594,1742249195.705239
0.18999999999999995,0.08000000000000007,0.45500000000000007,-0.001960000000000073,0.00048000000000003595,-0.0012199999999999989,0.33000000000000007,-0.15000000000000002,-0.345,0.02293999999999996,-0.01537999999999995,0.010620000000000074,1742249195.816715
0.18500000000000005,0.10000000000000009,0.44999999999999996,0.024780000000000024,0.005120000000000013,-0.006720000000000059,0.3400000000000001,-0.13,-0.345,-0.01660000000000006,0.0,0.03709999999999991,1742249195.930689
0.19500000000000006,0.030000000000000027,0.44999999999999996,0.031239999999999934,-0.00770000000000004,-0.048960000000000004,0.3400000000000001,-0.10499999999999998,-0.3400000000000001,-0.02954000000000001,-0.00988,0.010499999999999954,1742249196.044732
0.17500000000000004,0.010000000000000009,0.4650000000000001,-0.009279999999999955,0.018440000000000012,-0.036860000000000004,0.33499999999999996,-0.10499999999999998,-0.32000000000000006,-0.006460000000000021,0.009879999999999889,-0.006720000000000059,1742249196.1587782
0.19500000000000006,0.020000000000000018,0.44500000000000006,-0.02307999999999999,0.006340000000000012,-0.010140000000000038,0.33000000000000007,-0.11499999999999999,-0.355,0.008419999999999872,0.01537999999999995,-0.03355999999999992,1742249196.272646
0.17500000000000004,0.020000000000000018,0.44500000000000006,-0.020019999999999927,0.006340000000000012,0.019039999999999946,0.31499999999999995,-0.15500000000000003,-0.33499999999999996,-0.012700000000000045,0.0039000000000000146,-0.048960000000000004,1742249196.386792
0.18500000000000005,0.050000000000000044,0.43500000000000005,-0.03076000000000001,0.015859999999999985,0.03503999999999996,0.32000000000000006,-0.20999999999999996,-0.355,-0.008179999999999965,0.007319999999999993,-0.03637999999999997,1742249196.502379
0.2250000000000001,0.11499999999999999,0.43999999999999995,-0.03260000000000007,0.00550000000000006,0.011479999999999935,0.30499999999999994,-0.21999999999999997,-0.37,-0.02198,-0.011600000000000055,-0.014519999999999977,1742249196.614843
0.24,0.14500000000000002,0.44999999999999996,-0.020499999999999963,0.015740000000000087,-0.0036599999999999966,0.30000000000000004,-0.21499999999999997,-0.32499999999999996,-0.027700000000000058,-0.018919999999999937,-0.020139999999999936,1742249196.728848
0.2250000000000001,0.1200000000000001,0.42999999999999994,-0.018059999999999965,0.03905999999999987,-0.0015800000000000258,0.31000000000000005,-0.235,-0.31499999999999995,-0.021480000000000055,-0.007080000000000086,-0.01770000000000005,1742249196.844733
0.25,0.1200000000000001,0.4099999999999999,-0.016240000000000032,0.027220000000000022,0.00011999999999989797,0.30000000000000004,-0.245,-0.33000000000000007,-0.015020000000000033,-0.005499999999999949,-0.006460000000000021,1742249196.956791
0.23499999999999988,0.1299999999999999,0.42999999999999994,-0.013679999999999914,0.006460000000000132,-0.00782000000000005,0.31000000000000005,-0.24,-0.31499999999999995,-0.021120000000000028,-0.009159999999999946,0.010739999999999972,1742249197.070782
0.2650000000000001,0.1299999999999999,0.4099999999999999,-0.00048000000000003595,0.00770000000000004,-0.01537999999999995,0.31499999999999995,-0.235,-0.29499999999999993,-0.028679999999999928,-0.0050000000000000044,0.00782000000000016,1742249197.184799
0.2450000000000001,0.1100000000000001,0.4099999999999999,-0.008919999999999928,0.0030599999999998406,-0.028679999999999928,0.31499999999999995,-0.25,-0.31000000000000005,-0.00036000000000002697,0.01428000000000007,0.0039000000000000146,1742249197.2985868
0.2849999999999999,0.135,0.405,-0.009519999999999973,0.0015800000000001369,-0.0026799999999999047,0.30499999999999994,-0.235,-0.30499999999999994,0.012820000000000054,0.013299999999999867,0.007940000000000058,1742249197.412468
0.25,0.125,0.3999999999999999,0.00035999999999991594,-0.01758000000000004,0.0012199999999999989,0.31499999999999995,-0.24,-0.31000000000000005,0.014639999999999986,0.015859999999999985,0.01746000000000003,1742249197.525478
0.2549999999999999,0.1200000000000001,0.41500000000000004,0.0034199999999999786,-0.01537999999999995,-0.006960000000000077,0.31000000000000005,-0.235,-0.32499999999999996,0.009279999999999955,0.01305999999999985,0.02648000000000006,1742249197.639444
0.26,0.1299999999999999,0.41999999999999993,0.0048799999999999955,-0.019159999999999955,-0.01208000000000009,0.31000000000000005,-0.19500000000000006,-0.32499999999999996,0.014520000000000088,0.009519999999999973,0.031500000000000083,1742249197.752417
0.22999999999999998,0.10499999999999998,0.41999999999999993,0.013679999999999914,-0.013539999999999996,-0.017820000000000058,0.31499999999999995,-0.18500000000000005,-0.33000000000000007,0.008419999999999872,0.008920000000000039,0.018059999999999965,1742249197.865439
0.2250000000000001,0.08499999999999996,0.41999999999999993,0.009160000000000057,-0.014519999999999977,-0.016000000000000014,0.31499999999999995,-0.18999999999999995,-0.355,0.017220000000000013,0.010000000000000009,0.015740000000000087,1742249197.9794712
0.2250000000000001,0.10000000000000009,0.44500000000000006,0.009879999999999889,-0.013539999999999996,-0.0029199999999999227,0.31000000000000005,-0.16000000000000003,-0.33499999999999996,0.027220000000000022,0.005120000000000013,0.027099999999999902,1742249198.093465
0.20999999999999996,0.09499999999999997,0.43999999999999995,0.023560000000000025,-0.015020000000000033,-0.005859999999999976,0.30000000000000004,-0.125,-0.33000000000000007,0.022699999999999942,-0.0006199999999999539,0.0024399999999999977,1742249198.206578
0.18500000000000005,0.05499999999999994,0.42500000000000004,0.023679999999999923,-0.014900000000000024,0.00770000000000004,0.33000000000000007,-0.14,-0.33000000000000007,0.007200000000000095,-0.017080000000000095,-0.011840000000000073,1742249198.324515
0.18999999999999995,0.05499999999999994,0.42500000000000004,0.016240000000000032,0.0041599999999999415,0.016599999999999948,0.345,-0.15500000000000003,-0.3400000000000001,-0.00048000000000003595,-0.008660000000000001,-0.023440000000000016,1742249198.434817
0.23499999999999988,0.07000000000000006,0.44999999999999996,-0.011600000000000055,0.025140000000000162,0.022580000000000044,0.32499999999999996,-0.17999999999999994,-0.33499999999999996,-0.0050000000000000044,0.00011999999999989797,-0.022460000000000035,1742249198.5486898
0.2250000000000001,0.08000000000000007,0.44999999999999996,-0.005619999999999958,0.009879999999999889,0.027220000000000022,0.32000000000000006,-0.16500000000000004,-0.3400000000000001,-0.006099999999999994,0.00878000000000001,0.009400000000000075,1742249198.6641438
0.24,0.10000000000000009,0.4099999999999999,-0.0023200000000000998,0.008920000000000039,0.0034199999999999786,0.32000000000000006,-0.18500000000000005,-0.33000000000000007,-0.03479999999999994,-0.03588000000000002,0.017940000000000067,1742249198.7766988
0.21999999999999997,0.08499999999999996,0.45500000000000007,0.0329600000000001,0.03845999999999994,-0.02100000000000002,0.32499999999999996,-0.15500000000000003,-0.3400000000000001,-0.032220000000000026,-0.005619999999999958,0.008299999999999974,1742249198.8907
0.2450000000000001,0.06000000000000005,0.41500000000000004,-0.006220000000000003,-0.006460000000000021,-0.031000000000000028,0.3400000000000001,-0.18999999999999995,-0.33000000000000007,-0.02966000000000002,-0.011099999999999999,-0.009759999999999991,1742249199.005085
0.23499999999999988,0.07000000000000006,0.41999999999999993,-0.020379999999999954,0.030019999999999936,0.006220000000000114,0.345,-0.18500000000000005,-0.31499999999999995,-0.008299999999999974,-0.010000000000000009,-0.002080000000000082,1742249199.118689
0.27,0.08499999999999996,0.42999999999999994,-0.009639999999999982,0.0295399999999999,0.0024399999999999977,0.3500000000000001,-0.17999999999999994,-0.29000000000000004,0.010259999999999936,-0.0031799999999999606,0.0017000000000000348,1742249199.232594
0.28,0.07499999999999996,0.405,0.004999999999999893,-0.011720000000000064,0.006099999999999994,0.3400000000000001,-0.16500000000000004,-0.31499999999999995,0.008179999999999854,-0.0032999999999999696,-0.010000000000000009,1742249199.346564
0.25,0.08000000000000007,0.41500000000000004,0.011600000000000055,-0.0013400000000000079,0.01537999999999995,0.3599999999999999,-0.18500000000000005,-0.32000000000000006,0.00550000000000006,-0.00770000000000004,-0.010140000000000038,1742249199.4605792
0.2650000000000001,0.08499999999999996,0.405,0.0041599999999999415,0.00011999999999989797,0.03370000000000006,0.345,-0.19999999999999996,-0.30499999999999994,0.007440000000000113,-0.010140000000000038,-0.00782000000000005,1742249199.5747242
0.31499999999999995,0.10000000000000009,0.3400000000000001,0.03088000000000002,0.010739999999999972,-0.03710000000000002,0.33499999999999996,-0.20499999999999996,-0.245,0.037839999999999874,0.04699999999999993,0.027220000000000022,1742249862.871382
0.30000000000000004,0.07499999999999996,0.395,-0.00012000000000000899,-0.040899999999999936,-0.013679999999999914,0.3799999999999999,-0.18500000000000005,-0.28,0.02293999999999996,0.04833999999999983,0.040039999999999853,1742249862.9881349
0.2849999999999999,0.06000000000000005,0.4099999999999999,-0.01867999999999992,-0.0122000000000001,-0.021360000000000046,0.3799999999999999,-0.15000000000000002,-0.30499999999999994,0.0021999999999999797,0.007560000000000011,0.013539999999999885,1742249863.109594
0.29000000000000004,0.06499999999999995,0.395,-0.0024400000000001087,0.006960000000000077,0.0039000000000000146,0.365,-0.18500000000000005,-0.29000000000000004,0.00048000000000003595,-0.007320000000000104,-0.0042799999999999505,1742249863.213578
0.30000000000000004,0.09000000000000008,0.3900000000000001,0.0039000000000000146,-0.0046399999999999775,0.0048799999999999955,0.345,-0.19500000000000006,-0.2849999999999999,0.005239999999999911,0.004999999999999893,0.0035399999999998766,1742249863.327904
0.29499999999999993,0.09000000000000008,0.385,0.010140000000000038,-0.006840000000000068,0.00550000000000006,0.355,-0.18500000000000005,-0.29499999999999993,0.01550000000000007,0.01770000000000005,0.0029200000000000337,1742249863.448013
0.29499999999999993,0.07499999999999996,0.3999999999999999,-0.0030599999999999516,-0.018799999999999928,0.008920000000000039,0.3500000000000001,-0.17500000000000004,-0.30000000000000004,0.011840000000000073,0.025880000000000125,0.0007399999999999629,1742249863.554368
0.2749999999999999,0.08000000000000007,0.395,0.009519999999999973,-0.008059999999999956,0.0036599999999999966,0.3400000000000001,-0.17500000000000004,-0.30499999999999994,0.01415999999999995,0.00770000000000004,-0.005499999999999949,1742249863.670982
0.28,0.06499999999999995,0.41500000000000004,0.011840000000000073,-0.007200000000000095,-0.0017000000000000348,0.345,-0.16500000000000004,-0.32499999999999996,0.007200000000000095,0.007560000000000011,-0.0046399999999999775,1742249863.7877388
0.2749999999999999,0.08499999999999996,0.4099999999999999,0.005980000000000096,-0.0024400000000001087,0.00024000000000001798,0.3400000000000001,-0.17000000000000004,-0.32499999999999996,0.011600000000000055,0.0012199999999999989,-0.00012000000000000899,1742249863.89653
0.27,0.07499999999999996,0.405,0.01097999999999999,-0.005739999999999967,0.00048000000000003595,0.33499999999999996,-0.16500000000000004,-0.32000000000000006,0.012199999999999989,0.005239999999999911,0.0047600000000000975,1742249864.010317
0.2650000000000001,0.07000000000000006,0.41500000000000004,-0.0034199999999999786,-0.008660000000000001,-0.00782000000000005,0.33499999999999996,-0.14500000000000002,-0.33499999999999996,0.008059999999999956,0.010380000000000056,0.0014600000000000168,1742249864.1279218
0.2650000000000001,0.07499999999999996,0.41999999999999993,-0.00537999999999994,-0.011600000000000055,0.005980000000000096,0.33499999999999996,-0.16000000000000003,-0.345,0.004999999999999893,0.010620000000000074,-0.007440000000000002,1742249864.2481909
0.26,0.08499999999999996,0.41500000000000004,-0.001960000000000073,-0.0040200000000000236,0.002080000000000082,0.32499999999999996,-0.16000000000000003,-0.3400000000000001,0.0013400000000001189,0.005239999999999911,-0.0032999999999999696,1742249864.352565
0.26,0.08000000000000007,0.41999999999999993,-0.0013400000000000079,-0.0041599999999999415,0.0032999999999998586,0.32499999999999996,-0.16000000000000003,-0.3400000000000001,0.0014600000000000168,0.00537999999999994,-0.0039000000000000146,1742249864.4671192
0.26,0.08000000000000007,0.41999999999999993,-0.0007399999999999629,-0.00012000000000000899,0.0015800000000001369,0.32000000000000006,-0.16000000000000003,-0.345,-0.0013400000000000079,0.0040199999999999125,-0.0024400000000001087,1742249864.58681
0.26,0.08499999999999996,0.41500000000000004,-0.005499999999999949,-0.0008599999999999719,0.0017000000000000348,0.32000000000000006,-0.16000000000000003,-0.345,-0.0031799999999999606,0.005239999999999911,-0.0035399999999999876,1742249864.6945431
0.2549999999999999,0.08499999999999996,0.41500000000000004,-0.007200000000000095,-0.0023200000000000998,0.0039000000000000146,0.32000000000000006,-0.16500000000000004,-0.345,-0.0043999999999999595,0.0045200000000000795,-0.005120000000000013,1742249864.808426
0.26,0.09000000000000008,0.41500000000000004,-0.0047599999999999865,-0.0014600000000000168,0.0035399999999998766,0.31499999999999995,-0.17000000000000004,-0.345,-0.0027999999999999137,0.00537999999999994,-0.002080000000000082,1742249864.927051
0.2549999999999999,0.09000000000000008,0.41500000000000004,-0.0050000000000000044,0.005239999999999911,0.0007399999999999629,0.31000000000000005,-0.16000000000000003,-0.3400000000000001,-0.006340000000000012,0.0037799999999998946,-0.0041599999999999415,1742249865.0364318
0.2549999999999999,0.10000000000000009,0.4099999999999999,-0.04613999999999996,-0.01085999999999998,0.012199999999999989,0.30499999999999994,-0.17999999999999994,-0.345,-0.018440000000000012,0.026619999999999866,-0.0232,1742249865.150385
0.2450000000000001,0.15500000000000003,0.41500000000000004,-0.03724000000000005,-0.024540000000000006,0.0023200000000000998,0.29000000000000004,-0.19999999999999996,-0.37,-0.01525999999999994,0.024660000000000126,0.0024399999999999977,1742249865.266345
0.24,0.14000000000000012,0.41999999999999993,-0.01085999999999998,0.0012199999999999989,-0.006099999999999994,0.2849999999999999,-0.18500000000000005,-0.355,-0.0075599999999999,0.008059999999999956,0.0041599999999999415,1742249865.379068
0.23499999999999988,0.14000000000000012,0.4099999999999999,-0.0036599999999999966,-0.0029199999999999227,0.0015800000000001369,0.28,-0.18999999999999995,-0.36,0.0012199999999999989,0.006720000000000059,-0.00660000000000005,1742249865.492322
0.24,0.14000000000000012,0.4099999999999999,-0.00036000000000002697,0.00011999999999989797,0.020140000000000047,0.2849999999999999,-0.19999999999999996,-0.365,0.00550000000000006,0.0008600000000000829,-0.018059999999999965,1742249865.606278
0.2450000000000001,0.14000000000000012,0.4099999999999999,0.010140000000000038,0.006599999999999939,0.020140000000000047,0.2749999999999999,-0.20999999999999996,-0.36,0.0019599999999999618,0.0007399999999999629,-0.008660000000000001,1742249865.724438
0.24,0.14500000000000002,0.4099999999999999,-0.008299999999999974,0.002080000000000082,0.0032999999999998586,0.28,-0.19500000000000006,-0.36,-0.0008599999999999719,0.00024000000000001798,-0.0042799999999999505,1742249865.8344362
0.24,0.1499999999999999,0.41500000000000004,-0.00660000000000005,0.0009799999999999809,0.0041599999999999415,0.2749999999999999,-0.19999999999999996,-0.36,-0.0010999999999999899,0.0012199999999999989,-0.0048799999999999955,1742249865.948301
0.23499999999999988,0.1499999999999999,0.41500000000000004,-0.0048799999999999955,-0.0027999999999999137,0.0014600000000000168,0.28,-0.20499999999999996,-0.37,-0.001960000000000073,0.0015800000000001369,-0.0046399999999999775,1742249866.064546
0.24,0.15999999999999992,0.405,-0.0024400000000001087,-0.0031799999999999606,0.0008600000000000829,0.27,-0.20499999999999996,-0.36,0.00011999999999989797,0.0019599999999999618,0.0006200000000000649,1742249866.176099
0.23499999999999988,0.1499999999999999,0.4099999999999999,-0.0009799999999999809,0.0035399999999998766,-0.0018400000000000638,0.2749999999999999,-0.19999999999999996,-0.355,-0.0032999999999999696,-0.0013400000000000079,-0.0018400000000000638,1742249866.290552
0.24,0.16500000000000004,0.405,0.0039000000000000146,-0.0010999999999999899,-0.0022000000000000908,0.2749999999999999,-0.20499999999999996,-0.365,0.0035399999999998766,-0.005120000000000013,0.0036599999999999966,1742249866.405321
0.2450000000000001,0.1499999999999999,0.4099999999999999,0.009039999999999937,0.0023200000000000998,-0.0045199999999999685,0.2749999999999999,-0.19999999999999996,-0.36,0.0029200000000000337,-0.006099999999999994,0.0042800000000000615,1742249866.519422
0.24,0.14000000000000012,0.405,0.03492000000000006,0.00035999999999991594,0.0014600000000000168,0.28,-0.19999999999999996,-0.355,0.01195999999999997,-0.007440000000000002,0.005740000000000078,1742249866.6323872
0.24,0.1299999999999999,0.41999999999999993,0.022580000000000044,-0.005859999999999976,-0.0036599999999999966,0.2849999999999999,-0.18999999999999995,-0.375,0.011719999999999953,-0.005499999999999949,0.0031799999999999606,1742249866.7462022
0.23499999999999988,0.1299999999999999,0.41500000000000004,0.024540000000000006,0.005120000000000013,-0.0015800000000000258,0.28,-0.18999999999999995,-0.36,0.012820000000000054,-0.011840000000000073,0.00011999999999989797,1742249866.864407
0.2450000000000001,0.11499999999999999,0.41999999999999993,0.01977999999999991,0.0029200000000000337,-0.0035399999999999876,0.29000000000000004,-0.17999999999999994,-0.365,0.01537999999999995,-0.010619999999999963,0.0034199999999999786,1742249866.9742022
0.2450000000000001,0.10000000000000009,0.42500000000000004,0.017340000000000133,0.0014600000000000168,-0.0006199999999999539,0.29499999999999993,-0.17999999999999994,-0.36,0.010620000000000074,-0.009759999999999991,0.0006200000000000649,1742249867.088213
0.2549999999999999,0.10499999999999998,0.41500000000000004,0.010380000000000056,-0.0012199999999999989,-0.0031799999999999606,0.30000000000000004,-0.17500000000000004,-0.355,0.012460000000000138,-0.00024000000000001798,0.00035999999999991594,1742249867.208784
0.24,0.09499999999999997,0.42500000000000004,-0.0015800000000000258,-0.0013400000000000079,-0.0037800000000000056,0.29499999999999993,-0.17000000000000004,-0.365,-0.00048000000000003595,0.00048000000000003595,0.00048000000000003595,1742249867.316247
0.24,0.09000000000000008,0.42500000000000004,0.0026800000000000157,0.0008600000000000829,-0.0035399999999999876,0.29499999999999993,-0.16000000000000003,-0.36,0.006960000000000077,0.0030599999999998406,-0.005979999999999985,1742249867.430218
0.24,0.08499999999999996,0.42500000000000004,0.006720000000000059,-0.009399999999999964,0.0045200000000000795,0.29000000000000004,-0.17500000000000004,-0.36,-0.00048000000000003595,0.0019599999999999618,0.0012199999999999989,1742249867.545033
0.24,0.08499999999999996,0.42999999999999994,0.0021999999999999797,0.00024000000000001798,0.0014600000000000168,0.29499999999999993,-0.17000000000000004,-0.36,0.0012199999999999989,0.00011999999999989797,0.00035999999999991594,1742249867.658122
0.23499999999999988,0.08499999999999996,0.42500000000000004,0.00035999999999991594,0.00011999999999989797,0.0023200000000000998,0.2849999999999999,-0.16500000000000004,-0.365,-0.0007399999999999629,0.0041599999999999415,-0.0017000000000000348,1742249867.7723231
0.23499999999999988,0.09499999999999997,0.42999999999999994,-0.0026799999999999047,-0.0037800000000000056,0.0032999999999998586,0.29000000000000004,-0.17000000000000004,-0.365,0.0025599999999998957,0.005740000000000078,-0.0034199999999999786,1742249867.886245
0.22999999999999998,0.09499999999999997,0.42999999999999994,-0.002080000000000082,-0.0024400000000001087,0.00011999999999989797,0.29000000000000004,-0.17500000000000004,-0.365,0.0006200000000000649,0.0027999999999999137,-0.0023200000000000998,1742249868.005163
0.23499999999999988,0.09499999999999997,0.42999999999999994,-0.0014600000000000168,-0.0015800000000000258,0.00024000000000001798,0.29000000000000004,-0.17500000000000004,-0.37,-0.0026799999999999047,0.0014600000000000168,-0.0015800000000000258,1742249868.114321
0.23499999999999988,0.09499999999999997,0.42500000000000004,-0.0023200000000000998,0.00024000000000001798,0.0014600000000000168,0.2849999999999999,-0.17000000000000004,-0.365,-0.0025599999999998957,0.0,-0.0007399999999999629,1742249868.2283142
0.23499999999999988,0.09499999999999997,0.42999999999999994,0.0026800000000000157,-0.0010999999999999899,0.0027999999999999137,0.2849999999999999,-0.17999999999999994,-0.365,0.001100000000000101,0.00537999999999994,-0.0026799999999999047,1742249868.344625
0.2250000000000001,0.10000000000000009,0.43500000000000005,-0.0007399999999999629,-0.0047599999999999865,0.0025599999999998957,0.2849999999999999,-0.17000000000000004,-0.375,-0.005859999999999976,-0.0022000000000000908,0.0025599999999998957,1742249868.456439
0.22999999999999998,0.09499999999999997,0.42999999999999994,-0.0027999999999999137,0.0046399999999999775,0.00035999999999991594,0.2849999999999999,-0.17000000000000004,-0.365,-0.0030599999999999516,0.001100000000000101,-0.001960000000000073,1742249868.570324
0.22999999999999998,0.09499999999999997,0.42999999999999994,-0.0024400000000001087,-0.0027999999999999137,-0.0010999999999999899,0.2849999999999999,-0.17000000000000004,-0.37,-0.005739999999999967,0.013679999999999914,0.00024000000000001798,1742249868.687796
0.2250000000000001,0.10499999999999998,0.42999999999999994,0.0,-0.0030599999999999516,0.00550000000000006,0.2749999999999999,-0.17999999999999994,-0.37,0.0021999999999999797,0.0036599999999999966,-0.0046399999999999775,1742249868.804179
0.2250000000000001,0.10499999999999998,0.43500000000000005,-0.0008599999999999719,-0.0007399999999999629,0.0025599999999998957,0.28,-0.17999999999999994,-0.365,-0.00048000000000003595,0.00011999999999989797,-0.0035399999999999876,1742249868.912328
0.2250000000000001,0.10499999999999998,0.42999999999999994,-0.0029199999999999227,-0.0015800000000000258,0.0006200000000000649,0.28,-0.17999999999999994,-0.37,-0.0025599999999998957,0.0030599999999998406,-0.00012000000000000899,1742249869.02624
0.2250000000000001,0.10499999999999998,0.42999999999999994,-0.0042799999999999505,0.0006200000000000649,-0.0015800000000000258,0.2749999999999999,-0.17500000000000004,-0.375,-0.00036000000000002697,0.0021999999999999797,-0.0012199999999999989,1742249869.145494
0.2250000000000001,0.1100000000000001,0.43500000000000005,-0.0018400000000000638,0.0,-0.0008599999999999719,0.28,-0.17999999999999994,-0.375,0.0017000000000000348,0.00048000000000003595,-0.0009799999999999809,1742249869.254126
0.2250000000000001,0.1100000000000001,0.42999999999999994,-0.0009799999999999809,-0.0035399999999999876,0.001100000000000101,0.28,-0.18500000000000005,-0.375,0.00024000000000001798,0.0025599999999998957,-0.00048000000000003595,1742249869.368125
0.2250000000000001,0.1100000000000001,0.42999999999999994,0.00048000000000003595,-0.0032999999999999696,0.0,0.2749999999999999,-0.17999999999999994,-0.375,0.001100000000000101,0.0008600000000000829,-0.00012000000000000899,1742249869.483407
0.21999999999999997,0.1100000000000001,0.42999999999999994,0.0023200000000000998,-0.0032999999999999696,0.0008600000000000829,0.2749999999999999,-0.17999999999999994,-0.375,-0.00036000000000002697,0.0007399999999999629,0.0,1742249869.596153
0.21999999999999997,0.1100000000000001,0.43500000000000005,0.00048000000000003595,-0.00024000000000001798,0.0009799999999999809,0.2749999999999999,-0.17500000000000004,-0.375,-0.0029199999999999227,-0.0029199999999999227,-0.00036000000000002697,1742249869.710337
0.2250000000000001,0.10499999999999998,0.42999999999999994,0.0042800000000000615,-0.0009799999999999809,-0.00048000000000003595,0.2749999999999999,-0.17500000000000004,-0.38,-0.00024000000000001798,0.00035999999999991594,-0.0007399999999999629,1742249869.824196
0.21999999999999997,0.10499999999999998,0.43500000000000005,0.00024000000000001798,0.00011999999999989797,-0.00036000000000002697,0.2749999999999999,-0.17500000000000004,-0.375,0.00024000000000001798,-0.0007399999999999629,-0.0022000000000000908,1742249869.9415948
0.21999999999999997,0.1100000000000001,0.43500000000000005,0.00024000000000001798,0.0006200000000000649,-0.0008599999999999719,0.2749999999999999,-0.17999999999999994,-0.375,0.001100000000000101,-0.0010999999999999899,0.00048000000000003595,1742249870.052116
0.2250000000000001,0.1100000000000001,0.42999999999999994,0.0009799999999999809,0.00035999999999991594,-0.0018400000000000638,0.2749999999999999,-0.17999999999999994,-0.375,-0.0007399999999999629,-0.0013400000000000079,0.0008600000000000829,1742249870.166206
0.21999999999999997,0.1100000000000001,0.43500000000000005,0.0014600000000000168,0.006460000000000132,-0.0015800000000000258,0.2749999999999999,-0.17999999999999994,-0.38,-0.0034199999999999786,-0.007200000000000095,0.0013400000000001189,1742249870.2842271
0.22999999999999998,0.10499999999999998,0.42500000000000004,0.00048000000000003595,0.0039000000000000146,-0.002080000000000082,0.2849999999999999,-0.17999999999999994,-0.37,0.00035999999999991594,-0.0030599999999999516,-0.002080000000000082,1742249870.394241
0.22999999999999998,0.1100000000000001,0.42999999999999994,0.0012199999999999989,0.0017000000000000348,-0.0006199999999999539,0.28,-0.17999999999999994,-0.37,0.0,-0.0039000000000000146,0.0021999999999999797,1742249870.508039
0.22999999999999998,0.10499999999999998,0.42999999999999994,0.00537999999999994,0.0007399999999999629,-0.0007399999999999629,0.2849999999999999,-0.17999999999999994,-0.365,0.0012199999999999989,-0.0050000000000000044,0.0040199999999999125,1742249870.623877
0.22999999999999998,0.10499999999999998,0.42999999999999994,0.0037799999999998946,-0.0013400000000000079,-0.00036000000000002697,0.2849999999999999,-0.17500000000000004,-0.37,0.001100000000000101,-0.0017000000000000348,0.00024000000000001798,1742249870.736158
0.22999999999999998,0.10499999999999998,0.42500000000000004,0.0007399999999999629,-0.00048000000000003595,0.0034199999999999786,0.2849999999999999,-0.17999999999999994,-0.37,-0.001960000000000073,-0.0015800000000000258,-0.0006199999999999539,1742249870.850247
0.22999999999999998,0.10499999999999998,0.42500000000000004,0.0019599999999999618,0.00024000000000001798,0.0,0.2849999999999999,-0.17000000000000004,-0.365,-0.0012199999999999989,-0.00036000000000002697,0.0018400000000000638,1742249870.964149
0.22999999999999998,0.10000000000000009,0.42999999999999994,-0.0043999999999999595,0.00048000000000003595,-0.0017000000000000348,0.29000000000000004,-0.17999999999999994,-0.37,-0.0031799999999999606,0.0008600000000000829,-0.0009799999999999809,1742249871.0829198
0.23499999999999988,0.10499999999999998,0.42500000000000004,-0.0018400000000000638,-0.002080000000000082,-0.00024000000000001798,0.2849999999999999,-0.17500000000000004,-0.37,0.00011999999999989797,0.0018400000000000638,0.0009799999999999809,1742249871.192047
0.22999999999999998,0.10499999999999998,0.42500000000000004,-0.0022000000000000908,-0.0025599999999998957,-0.00012000000000000899,0.2849999999999999,-0.17999999999999994,-0.37,-0.00012000000000000899,0.0029200000000000337,-0.0013400000000000079,1742249871.306148
0.2250000000000001,0.1100000000000001,0.42999999999999994,-0.0027999999999999137,-0.0027999999999999137,-0.0006199999999999539,0.2849999999999999,-0.17500000000000004,-0.37,-0.0008599999999999719,0.0034199999999999786,-0.0013400000000000079,1742249871.422964
0.2250000000000001,0.1100000000000001,0.42999999999999994,-0.0039000000000000146,0.0018400000000000638,-0.00012000000000000899,0.28,-0.17999999999999994,-0.37,-0.0027999999999999137,0.0030599999999998406,-0.002080000000000082,1742249871.5342212
0.22999999999999998,0.1100000000000001,0.42999999999999994,-0.0012199999999999989,-0.0022000000000000908,0.0006200000000000649,0.28,-0.18500000000000005,-0.37,-0.0023200000000000998,0.0023200000000000998,-0.0009799999999999809,1742249871.648094
0.2250000000000001,0.10499999999999998,0.42999999999999994,-0.0012199999999999989,-0.0034199999999999786,0.001100000000000101,0.2849999999999999,-0.17999999999999994,-0.37,-0.0031799999999999606,0.002080000000000082,-0.0031799999999999606,1742249871.763263
0.2250000000000001,0.11499999999999999,0.42999999999999994,-0.0009799999999999809,-0.0008599999999999719,0.00035999999999991594,0.2749999999999999,-0.17999999999999994,-0.37,0.0,0.0007399999999999629,-0.0008599999999999719,1742249871.8760052
0.2250000000000001,0.1100000000000001,0.42999999999999994,-0.0012199999999999989,-0.0010999999999999899,0.00011999999999989797,0.28,-0.18500000000000005,-0.37,0.0009799999999999809,0.0039000000000000146,-0.0026799999999999047,1742249871.99011
0.2250000000000001,0.1200000000000001,0.42999999999999994,-0.0007399999999999629,-0.0017000000000000348,0.00035999999999991594,0.28,-0.18500000000000005,-0.37,-0.00036000000000002697,0.0018400000000000638,0.0015800000000001369,1742249872.1039848
0.2250000000000001,0.1100000000000001,0.42999999999999994,0.00048000000000003595,-0.002080000000000082,0.00011999999999989797,0.2749999999999999,-0.18500000000000005,-0.37,-0.0008599999999999719,0.0024399999999999977,0.00011999999999989797,1742249872.221664
0.2250000000000001,0.11499999999999999,0.42999999999999994,0.00048000000000003595,-0.0007399999999999629,-0.00036000000000002697,0.2749999999999999,-0.17999999999999994,-0.375,-0.00036000000000002697,0.0021999999999999797,0.0,1742249872.331972
0.2250000000000001,0.11499999999999999,0.42999999999999994,-0.0018400000000000638,-0.0010999999999999899,-0.00012000000000000899,0.2749999999999999,-0.17999999999999994,-0.375,-0.00048000000000003595,0.0006200000000000649,-0.0023200000000000998,1742249872.446055
0.21999999999999997,0.11499999999999999,0.42999999999999994,0.00011999999999989797,-0.00048000000000003595,0.0007399999999999629,0.27,-0.18500000000000005,-0.375,0.0009799999999999809,0.0014600000000000168,-0.00048000000000003595,1742249872.562645
0.2250000000000001,0.11499999999999999,0.42999999999999994,0.001100000000000101,-0.0010999999999999899,-0.00012000000000000899,0.2749999999999999,-0.17999999999999994,-0.375,-0.00012000000000000899,0.00048000000000003595,-0.0013400000000000079,1742249872.674145
0.21999999999999997,0.1200000000000001,0.42999999999999994,-0.0007399999999999629,0.0007399999999999629,-0.00012000000000000899,0.27,-0.17999999999999994,-0.375,-0.00024000000000001798,0.0008600000000000829,0.00011999999999989797,1742249872.788039
0.2250000000000001,0.11499999999999999,0.42999999999999994,-0.0015800000000000258,0.0,-0.0014600000000000168,0.2749999999999999,-0.18500000000000005,-0.375,0.00035999999999991594,0.001100000000000101,-0.0009799999999999809,1742249872.9026492
0.2250000000000001,0.1200000000000001,0.42999999999999994,0.0007399999999999629,-0.0015800000000000258,-0.00012000000000000899,0.27,-0.18500000000000005,-0.375,0.0007399999999999629,0.00011999999999989797,0.0009799999999999809,1742249873.015906
0.21999999999999997,0.11499999999999999,0.42999999999999994,0.001100000000000101,-0.0040200000000000236,-0.0006199999999999539,0.27,-0.18500000000000005,-0.38,0.00011999999999989797,-0.002080000000000082,-0.0027999999999999137,1742249873.130112
0.21999999999999997,0.1200000000000001,0.42999999999999994,-0.00036000000000002697,-0.0008599999999999719,-0.00012000000000000899,0.27,-0.17999999999999994,-0.375,0.0017000000000000348,-0.00036000000000002697,0.0006200000000000649,1742249873.243966
0.21999999999999997,0.11499999999999999,0.42999999999999994,0.0008600000000000829,-0.00036000000000002697,0.0006200000000000649,0.27,-0.17999999999999994,-0.38,0.0007399999999999629,-0.0013400000000000079,-0.0009799999999999809,1742249873.35797
0.2250000000000001,0.11499999999999999,0.42999999999999994,0.0006200000000000649,0.0009799999999999809,-0.0013400000000000079,0.27,-0.17999999999999994,-0.38,0.0026800000000000157,0.00035999999999991594,0.0006200000000000649,1742249873.471905
0.2250000000000001,0.11499999999999999,0.42500000000000004,0.00035999999999991594,0.00048000000000003595,-0.00024000000000001798,0.27,-0.18500000000000005,-0.375,0.00035999999999991594,0.00011999999999989797,-0.00048000000000003595,1742249873.585918
0.21999999999999997,0.11499999999999999,0.42999999999999994,0.0026800000000000157,0.0,-0.00048000000000003595,0.2749999999999999,-0.17999999999999994,-0.375,0.0006200000000000649,-0.0010999999999999899,0.0012199999999999989,1742249873.699902
0.21999999999999997,0.11499999999999999,0.42999999999999994,0.0007399999999999629,-0.0035399999999999876,-0.00036000000000002697,0.2749999999999999,-0.18500000000000005,-0.38,0.0024399999999999977,0.0017000000000000348,-0.0014600000000000168,1742249873.8139331
0.21999999999999997,0.1200000000000001,0.42999999999999994,0.005239999999999911,-0.005240000000000022,-0.0031799999999999606,0.27,-0.17999999999999994,-0.375,0.0043999999999999595,0.0026800000000000157,0.005120000000000013,1742249873.9277928
0.21999999999999997,0.10499999999999998,0.42999999999999994,0.0030599999999998406,-0.005739999999999967,-0.0036599999999999966,0.2749999999999999,-0.17500000000000004,-0.38,0.0021999999999999797,0.0045200000000000795,0.0042800000000000615,1742249874.041771
0.21500000000000008,0.1100000000000001,0.43500000000000005,-0.00024000000000001798,-0.0046399999999999775,-0.0035399999999999876,0.27,-0.17000000000000004,-0.38,0.0021999999999999797,0.0034199999999999786,0.0047600000000000975,1742249874.15577
0.21500000000000008,0.1100000000000001,0.43500000000000005,0.00011999999999989797,-0.0022000000000000908,-0.0018400000000000638,0.27,-0.17000000000000004,-0.38,0.0021999999999999797,0.0027999999999999137,0.0021999999999999797,1742249874.268796
0.20999999999999996,0.1100000000000001,0.43500000000000005,0.00024000000000001798,-0.0018400000000000638,-0.0007399999999999629,0.27,-0.17000000000000004,-0.38,0.0006200000000000649,0.0013400000000001189,-0.0006199999999999539,1742249874.381996
0.21500000000000008,0.1100000000000001,0.43999999999999995,0.00011999999999989797,-0.0010999999999999899,0.002080000000000082,0.27,-0.17000000000000004,-0.385,0.0007399999999999629,0.0021999999999999797,-0.0008599999999999719,1742249874.495883
0.20999999999999996,0.1100000000000001,0.43500000000000005,0.0008600000000000829,-0.0013400000000000079,-0.00048000000000003595,0.27,-0.17000000000000004,-0.385,-0.00012000000000000899,0.001100000000000101,-0.0006199999999999539,1742249874.610028
0.20500000000000007,0.1100000000000001,0.43999999999999995,-0.00012000000000000899,0.00035999999999991594,-0.0017000000000000348,0.2650000000000001,-0.17000000000000004,-0.385,0.0,0.0008600000000000829,0.00011999999999989797,1742249874.7237492
0.20999999999999996,0.1100000000000001,0.43999999999999995,0.0008600000000000829,-0.00024000000000001798,-0.00024000000000001798,0.2650000000000001,-0.17000000000000004,-0.385,-0.0017000000000000348,-0.00012000000000000899,0.0,1742249874.836992
0.20999999999999996,0.1100000000000001,0.43500000000000005,0.00048000000000003595,-0.0006199999999999539,0.00024000000000001798,0.2650000000000001,-0.17000000000000004,-0.385,0.00011999999999989797,-0.0008599999999999719,-0.0025599999999998957,1742249874.951012
0.20999999999999996,0.1100000000000001,0.43500000000000005,-0.0008599999999999719,-0.00048000000000003595,0.0012199999999999989,0.2650000000000001,-0.17500000000000004,-0.38,-0.00024000000000001798,-0.00024000000000001798,-0.0023200000000000998,1742249875.065112
0.20999999999999996,0.1100000000000001,0.43999999999999995,-0.0010999999999999899,0.001100000000000101,0.0008600000000000829,0.2650000000000001,-0.17000000000000004,-0.38,-0.00036000000000002697,0.00048000000000003595,-0.001960000000000073,1742249875.178983
0.20999999999999996,0.11499999999999999,0.43500000000000005,0.0,-0.00036000000000002697,-0.00036000000000002697,0.2650000000000001,-0.17000000000000004,-0.385,0.0,-0.00024000000000001798,-0.0009799999999999809,1742249875.293032
