L-AccX,L-AccY,L-AccZ,L-GyrX,L-GyrY,L-GyrZ,R-AccX,R-AccY,R-AccZ,R-GyrX,R-GyrY,R-GyrZ,timestamp
0.405,0.16999999999999993,0.565,0.006960000000000077,0.014040000000000052,0.020499999999999963,0.375,-0.32499999999999996,-0.355,0.0046399999999999775,-0.2783199999999999,-0.08594000000000002,1742249202.992455
0.28,0.15999999999999992,0.41999999999999993,0.04492000000000007,0.08311999999999986,-0.03355999999999992,0.4750000000000001,-0.38,-0.10499999999999998,-0.05371999999999999,0.10179999999999989,0.07957999999999998,1742249203.10636
0.19999999999999996,0.17999999999999994,0.125,0.0006200000000000649,0.08472000000000013,-0.05712000000000006,0.25,-0.22499999999999998,-0.13,0.10973999999999995,0.18554000000000004,0.05908000000000002,1742249203.220244
0.24,0.125,0.31499999999999995,-0.2876000000000001,-0.09350000000000003,0.021360000000000046,0.014999999999999902,-0.14,-0.48,0.04920000000000013,0.15368000000000004,0.09716000000000014,1742249203.334313
0.44500000000000006,0.23499999999999988,0.45500000000000007,-0.09179999999999999,0.0008600000000000829,-0.013919999999999932,0.20999999999999996,-0.35,-0.2849999999999999,0.0625,-0.28601999999999994,-0.25524,1742249203.448493
0.3700000000000001,0.15500000000000003,0.43999999999999995,0.0671400000000002,-0.04700000000000004,0.019160000000000066,0.645,-0.365,0.10000000000000009,0.016000000000000014,0.06335999999999986,0.020499999999999963,1742249203.5659351
0.1499999999999999,0.1299999999999999,0.1299999999999999,0.04688000000000003,0.04577999999999993,-0.03858000000000006,0.4849999999999999,-0.28,-0.20499999999999996,0.007440000000000113,0.13513999999999982,0.03308,1742249203.675244
0.26,-0.07999999999999996,0.3599999999999999,-0.09998000000000007,-0.1311,0.14100000000000001,-0.07000000000000006,-0.135,-0.645,0.0015800000000001369,0.15894000000000008,0.07764000000000015,1742249203.792165
0.3799999999999999,0.16999999999999993,0.54,0.05152000000000001,-0.09802,0.06811999999999996,0.24,-0.21499999999999997,-0.10999999999999999,-0.005979999999999985,-0.26354,-0.19494,1742249203.9070048
0.30499999999999994,0.20500000000000007,0.42500000000000004,-0.008299999999999974,-0.017080000000000095,0.0672600000000001,0.5899999999999999,-0.38,-0.0050000000000000044,0.010140000000000038,0.03833999999999982,-0.005859999999999976,1742249204.0173812
0.2450000000000001,0.17999999999999994,0.17500000000000004,0.05553999999999992,0.04090000000000016,0.02320000000000011,0.405,-0.33000000000000007,-0.14500000000000002,0.08240000000000003,0.12158000000000002,0.0041599999999999415,1742249204.131309
0.27,0.04499999999999993,0.44500000000000006,0.08349999999999991,-0.04149999999999998,0.018179999999999863,-0.07000000000000006,-0.07000000000000006,-0.63,-0.06446000000000007,0.10143999999999997,0.20031999999999983,1742249204.24975
0.385,0.17500000000000004,0.45999999999999996,0.22765999999999997,-0.02088000000000001,0.10340000000000016,0.1200000000000001,-0.28,-0.07000000000000006,-0.0041599999999999415,-0.37098,-0.11426000000000003,1742249204.359494
0.30499999999999994,0.19999999999999996,0.48,-0.10058,0.07469999999999999,-0.02758000000000005,0.8399999999999999,-0.42500000000000004,0.2250000000000001,-0.014900000000000024,-0.007080000000000086,0.06702000000000008,1742249204.4734662
0.27,0.18500000000000005,0.19500000000000006,0.05140000000000011,0.07299999999999995,-0.05615999999999999,0.3500000000000001,-0.32499999999999996,-0.21499999999999997,0.048960000000000115,0.14050000000000007,0.07835999999999999,1742249204.587382
0.345,0.20999999999999996,0.2749999999999999,0.2522,-0.08544000000000007,0.006099999999999994,0.030000000000000027,-0.12,-0.525,-0.06408000000000003,0.1800599999999999,0.1423399999999999,1742249204.702077
0.2650000000000001,0.25,0.43500000000000005,0.05738000000000021,-0.08204,0.034660000000000135,0.08499999999999996,-0.19500000000000006,-0.405,-0.03503999999999996,-0.30310000000000004,-0.11791999999999991,1742249204.815488
0.2849999999999999,0.2450000000000001,0.51,-0.09620000000000006,-0.001960000000000073,0.02540000000000009,0.73,-0.44999999999999996,0.1299999999999999,-0.02501999999999993,-0.12414000000000003,-0.012820000000000054,1742249204.929373
0.21999999999999997,0.23499999999999988,0.2849999999999999,-0.10131999999999997,0.07031999999999994,-0.06762000000000001,0.30499999999999994,-0.385,-0.09999999999999998,0.03283999999999998,0.15026000000000006,0.08972000000000002,1742249205.0477388
0.31499999999999995,0.17500000000000004,0.22999999999999998,0.15894000000000008,0.10851999999999995,-0.06946000000000008,-0.0050000000000000044,-0.18500000000000005,-0.57,0.11352000000000007,0.2036199999999999,0.04614000000000007,1742249205.157272
0.2450000000000001,0.28,0.375,0.0021999999999999797,-0.12255999999999989,0.0317400000000001,0.040000000000000036,-0.17999999999999994,-0.545,0.007560000000000011,-0.21887999999999996,-0.14318000000000008,1742249205.271351
0.2749999999999999,0.125,0.605,-0.049679999999999946,0.013679999999999914,-0.013799999999999923,0.5550000000000002,-0.33000000000000007,-0.015000000000000013,-0.08228000000000002,-0.15649999999999997,-0.03736000000000006,1742249205.387688
0.33000000000000007,0.1200000000000001,0.2549999999999999,-0.19104,0.06529999999999991,-0.06005999999999989,0.42500000000000004,-0.31499999999999995,-0.21999999999999997,0.07068000000000008,0.015740000000000087,0.008419999999999872,1742249205.4991722
0.30499999999999994,0.17500000000000004,0.26,0.05030000000000001,0.09129999999999994,-0.05908000000000002,0.19500000000000006,-0.265,-0.365,0.00550000000000006,0.17676000000000003,0.0920399999999999,1742249205.612214
0.2849999999999999,0.3400000000000001,0.24,-0.11048000000000002,-0.04944000000000004,-0.032340000000000035,0.125,-0.125,-0.43999999999999995,0.025519999999999987,-0.09620000000000006,-0.06738,1742249205.729962
0.31499999999999995,0.15999999999999992,0.625,-0.03698000000000001,0.0013400000000001189,-0.04577999999999993,0.5350000000000001,-0.235,-0.09999999999999998,-0.07055999999999996,-0.17688000000000004,-0.01758000000000004,1742249205.8404858
0.18999999999999995,0.19500000000000006,0.4099999999999999,-0.09960000000000002,0.07359999999999989,-0.06359999999999999,0.5,-0.25,-0.07999999999999996,-0.08460000000000001,0.11376000000000008,0.07166000000000006,1742249205.954329
0.2549999999999999,0.2450000000000001,0.2250000000000001,0.03492000000000006,0.012700000000000156,-0.053100000000000036,0.14500000000000002,-0.22499999999999998,-0.38,0.13451999999999997,0.16357999999999984,-0.047719999999999985,1742249206.068303
0.14500000000000002,0.3700000000000001,0.365,-0.17381999999999997,-0.10046,0.03869999999999996,0.14500000000000002,-0.09499999999999997,-0.545,-0.11009999999999998,-0.025639999999999996,-0.012319999999999998,1742249206.188283
0.3700000000000001,0.11499999999999999,0.645,-0.0009799999999999809,-0.02294000000000007,0.0031799999999999606,0.3900000000000001,-0.29499999999999993,-0.26,-0.017080000000000095,-0.2744200000000001,-0.07850000000000001,1742249206.296442
0.2450000000000001,0.19500000000000006,0.41999999999999993,-0.0966800000000001,0.09606000000000003,-0.00988,0.56,-0.255,-0.06499999999999995,0.04174000000000011,0.08814000000000011,0.08118000000000003,1742249206.41023
0.20500000000000007,0.20999999999999996,0.10499999999999998,-0.0036599999999999966,0.037959999999999994,-0.043460000000000054,0.28,-0.19500000000000006,-0.235,0.1663800000000002,0.12916000000000016,-0.06518000000000002,1742249206.527335
0.2749999999999999,0.020000000000000018,0.395,-0.23339999999999994,-0.10021999999999998,0.062019999999999964,0.10000000000000009,-0.10999999999999999,-0.525,-0.07116,0.05896000000000012,0.07972000000000001,1742249206.638338
0.385,0.1100000000000001,0.54,0.059579999999999966,-0.06481999999999999,0.004999999999999893,0.16500000000000004,-0.4099999999999999,-0.17000000000000004,-0.02734000000000003,-0.23131999999999997,-0.13514000000000004,1742249206.752515
0.2849999999999999,0.18999999999999995,0.41500000000000004,0.015139999999999931,0.07409999999999983,0.03370000000000006,0.7349999999999999,-0.21999999999999997,0.16999999999999993,-0.11853999999999998,0.06140000000000012,0.09448000000000012,1742249206.868986
0.21500000000000008,0.21500000000000008,0.16999999999999993,-0.10411999999999999,-0.0031799999999999606,-0.040159999999999973,0.3900000000000001,-0.18999999999999995,-0.15500000000000003,0.07618000000000014,0.18859999999999988,0.023440000000000127,1742249206.9801831
0.30000000000000004,-0.0050000000000000044,0.33499999999999996,0.11241999999999996,-0.03649999999999998,0.03956000000000004,0.050000000000000044,-0.09499999999999997,-0.545,0.02844000000000002,0.08570000000000011,0.05383999999999989,1742249207.094209
0.32000000000000006,0.1499999999999999,0.44500000000000006,0.02611999999999992,-0.09094000000000002,0.02222000000000013,0.1499999999999999,-0.19500000000000006,-0.24,0.0036599999999999966,-0.32458,-0.16296,1742249207.209419
0.28,0.22999999999999998,0.45999999999999996,-0.04565999999999992,-0.022220000000000018,0.05761999999999978,0.675,-0.38,0.08499999999999996,-0.03465999999999991,-0.11205999999999994,-0.06701999999999997,1742249207.329224
0.2749999999999999,0.1499999999999999,0.23499999999999988,-0.13990000000000002,0.05249999999999999,-0.032480000000000064,0.42500000000000004,-0.355,-0.08499999999999996,0.021360000000000046,0.1311,0.07153999999999994,1742249207.436112
0.3400000000000001,0.19999999999999996,0.32499999999999996,0.1358600000000001,0.21813999999999978,-0.022460000000000035,0.0,-0.22499999999999998,-0.515,0.09631999999999996,0.14427999999999996,0.03381999999999996,1742249207.550208
0.33000000000000007,0.29000000000000004,0.16999999999999993,-0.08044000000000007,-0.16662,0.022820000000000062,0.05499999999999994,-0.22499999999999998,-0.45500000000000007,0.006220000000000114,-0.28479999999999994,-0.11926000000000003,1742249207.66873
0.22999999999999998,0.19999999999999996,0.5899999999999999,-0.026619999999999977,0.0034199999999999786,0.0014600000000000168,0.5049999999999999,-0.33499999999999996,-0.015000000000000013,0.0034199999999999786,-0.16381999999999997,-0.06213999999999997,1742249207.778421
0.3500000000000001,0.17500000000000004,0.24,-0.09301999999999999,0.1190199999999999,-0.039919999999999956,0.48,-0.31000000000000005,-0.040000000000000036,0.02624000000000004,0.13868000000000014,0.07996000000000003,1742249207.892192
0.43999999999999995,0.2549999999999999,0.21500000000000008,0.06494,0.04675999999999991,-0.05065999999999993,0.09000000000000008,-0.22499999999999998,-0.41500000000000004,0.11511999999999989,0.21727999999999992,0.06738000000000022,1742249208.009325
0.28,0.2650000000000001,0.16500000000000004,-0.07177999999999995,-0.16810000000000003,0.03516000000000008,0.16999999999999993,-0.15000000000000002,-0.535,-0.07386000000000004,-0.05932000000000004,-0.01746000000000003,1742249208.1291788
0.31000000000000005,0.135,0.6699999999999999,-0.024899999999999922,-0.041019999999999945,-0.011840000000000073,0.3900000000000001,-0.35,-0.07000000000000006,-0.11865999999999999,-0.21216000000000002,-0.10986000000000007,1742249208.23442
0.20500000000000007,0.17999999999999994,0.385,-0.14600000000000002,0.11146000000000011,0.0,0.48,-0.39,-0.15000000000000002,-0.031379999999999963,0.16515999999999997,0.12059999999999982,1742249208.3495412
0.25,0.33000000000000007,0.04499999999999993,0.08216000000000001,-0.03088000000000002,-0.03808,0.21500000000000008,-0.18999999999999995,-0.31499999999999995,0.09129999999999994,0.14294000000000007,0.020019999999999927,1742249208.47007
0.18999999999999995,0.29499999999999993,0.345,-0.1936,-0.13891999999999993,0.0013400000000001189,0.20500000000000007,-0.13,-0.52,-0.08618000000000003,-0.10986000000000007,-0.07141999999999993,1742249208.576396
0.31499999999999995,0.07499999999999996,0.6200000000000001,-0.05577999999999994,-0.0700599999999999,-0.026000000000000023,0.3400000000000001,-0.48,-0.03500000000000003,-0.012580000000000036,-0.29625999999999997,-0.12791999999999992,1742249208.6904252
0.2450000000000001,0.18999999999999995,0.3700000000000001,0.005619999999999958,0.12071999999999994,0.0007399999999999629,0.49,-0.31000000000000005,-0.14,-0.03064,0.09729999999999994,0.07922000000000007,1742249208.808664
0.23499999999999988,0.18999999999999995,0.10000000000000009,-0.05176000000000003,-0.024899999999999922,-0.02648000000000006,0.16999999999999993,-0.3400000000000001,-0.24,0.10961999999999983,0.16456000000000004,0.05164000000000013,1742249208.918172
0.21999999999999997,0.25,0.4099999999999999,-0.13696000000000008,-0.05358000000000007,0.020140000000000047,0.125,-0.13,-0.495,0.054319999999999924,-0.0034199999999999786,-0.09998000000000007,1742249209.032314
0.365,0.11499999999999999,0.6000000000000001,-0.05286000000000002,-0.10351999999999995,0.012320000000000109,0.355,-0.30000000000000004,-0.33499999999999996,0.02733999999999992,-0.2871,-0.09911999999999999,1742249209.1493812
0.26,0.17500000000000004,0.405,0.025020000000000042,0.06896000000000013,-0.03198000000000001,0.5350000000000001,-0.32000000000000006,-0.05500000000000005,-0.04613999999999996,0.09802,0.08692000000000011,1742249209.260205
0.29499999999999993,0.20500000000000007,0.17999999999999994,0.0040199999999999125,0.03857999999999984,-0.014039999999999941,0.2549999999999999,-0.26,-0.17999999999999994,0.10973999999999995,0.17113999999999985,0.031380000000000186,1742249209.374131
0.33499999999999996,0.07499999999999996,0.32499999999999996,-0.027959999999999985,-0.14501999999999993,0.04455999999999993,0.08000000000000007,-0.09499999999999997,-0.55,-0.08838000000000001,0.15379999999999994,0.15905999999999998,1742249209.490203
0.3400000000000001,0.11499999999999999,0.44500000000000006,0.006460000000000132,-0.08311999999999997,0.005859999999999976,0.1499999999999999,-0.22499999999999998,-0.245,-0.04188000000000003,-0.29406,-0.11414000000000002,1742249209.610523
0.28,0.25,0.45999999999999996,-0.03186,0.011239999999999917,0.010620000000000074,0.7050000000000001,-0.42999999999999994,0.1100000000000001,-0.07862000000000002,-0.043460000000000054,0.020620000000000083,1742249209.7160802
0.32000000000000006,0.18500000000000005,0.2450000000000001,-0.11512,0.06128,-0.027100000000000013,0.42500000000000004,-0.30499999999999994,-0.26,0.07850000000000001,0.26746000000000003,0.09033999999999986,1742249209.830401
0.33000000000000007,0.20999999999999996,0.16999999999999993,0.12524000000000002,-0.07677999999999996,-0.03649999999999998,-0.06000000000000005,-0.17999999999999994,-0.645,0.013419999999999987,0.19422000000000006,0.1445399999999999,1742249209.950906
0.21999999999999997,0.16500000000000004,0.355,0.049919999999999964,-0.22387999999999997,0.02540000000000009,0.06499999999999995,-0.16000000000000003,-0.45500000000000007,-0.020379999999999954,-0.3426600000000001,-0.20177999999999996,1742249210.0583308
0.15500000000000003,0.22999999999999998,0.5350000000000001,-0.09887999999999997,0.0007399999999999629,-0.032220000000000026,0.625,-0.375,-0.025000000000000022,-0.06616,-0.21239999999999992,-0.07874000000000003,1742249210.172318
0.2250000000000001,0.17500000000000004,0.3799999999999999,-0.050899999999999945,0.15588000000000002,-0.05712000000000006,0.48,-0.29000000000000004,-0.09999999999999998,-0.07068000000000008,0.07752000000000003,0.03516000000000008,1742249210.294862
0.32000000000000006,0.15999999999999992,0.25,0.02293999999999996,0.07579999999999987,-0.036860000000000004,-0.03500000000000003,-0.27,-0.44999999999999996,0.09973999999999994,0.2304600000000001,0.018920000000000048,1742249210.400154
0.20999999999999996,0.29000000000000004,0.30000000000000004,-0.17786000000000002,-0.09729999999999994,0.056400000000000006,0.15500000000000003,-0.12,-0.61,0.12792000000000003,-0.022820000000000062,-0.08508000000000004,1742249210.5142348
0.29499999999999993,0.2549999999999999,0.585,-0.009039999999999937,-0.013799999999999923,-0.0034199999999999786,0.31499999999999995,-0.4,-0.06000000000000005,-0.14061999999999997,-0.32752000000000003,-0.07811999999999997,1742249210.630974
0.1200000000000001,0.17999999999999994,0.5249999999999999,0.03161999999999998,0.09924,0.012199999999999989,0.52,-0.385,-0.13,0.051020000000000065,0.1203599999999998,0.013919999999999932,1742249210.741951
0.2250000000000001,0.2650000000000001,0.10499999999999998,-0.011240000000000028,0.07898000000000005,-0.006720000000000059,0.11499999999999999,-0.255,-0.27,0.13904000000000005,0.21252000000000004,-0.05932000000000004,1742249210.856102
0.2650000000000001,0.030000000000000027,0.33000000000000007,-0.22474000000000005,-0.21838000000000002,0.0942400000000001,0.004999999999999893,-0.125,-0.57,0.044440000000000035,0.08983999999999992,0.03833999999999982,1742249210.971658
0.28,0.16999999999999993,0.52,-0.0013400000000000079,-0.06298000000000004,0.005619999999999958,0.30000000000000004,-0.31000000000000005,-0.29499999999999993,-0.06446000000000007,-0.34851999999999994,-0.13012,1742249211.0915232
0.21999999999999997,0.21500000000000008,0.45500000000000007,0.04394000000000009,0.06445999999999996,-0.006720000000000059,0.595,-0.345,-0.05500000000000005,-0.09192,0.1322000000000001,0.16527999999999987,1742249211.198051
0.2250000000000001,0.23499999999999988,0.19500000000000006,0.14440000000000008,0.0907,-0.011099999999999999,0.355,-0.17999999999999994,-0.29000000000000004,0.07642000000000015,0.28406,0.08448000000000011,1742249211.312074
0.31499999999999995,0.1100000000000001,0.29499999999999993,0.049799999999999844,-0.15295999999999998,-0.0024400000000001087,-0.14,-0.08499999999999996,-0.65,0.0035399999999998766,0.0697000000000001,0.06957999999999998,1742249211.431287
0.28,0.21999999999999997,0.4099999999999999,0.11119999999999997,-0.07787999999999995,-0.03967999999999994,0.2450000000000001,-0.29000000000000004,-0.09999999999999998,-0.07629999999999992,-0.2673399999999999,-0.11375999999999997,1742249211.540985
0.1499999999999999,0.21999999999999997,0.4650000000000001,-0.0700599999999999,0.028079999999999883,-0.02210000000000001,0.5800000000000001,-0.2849999999999999,-0.15500000000000003,-0.031000000000000028,0.06542000000000003,0.08642000000000016,1742249211.65414
0.16500000000000004,0.26,0.30499999999999994,0.025140000000000162,0.11158000000000001,-0.042120000000000046,0.30499999999999994,-0.21999999999999997,-0.20999999999999996,0.07972000000000001,0.1236600000000001,0.001100000000000101,1742249211.774475
0.30000000000000004,0.08000000000000007,0.3700000000000001,0.04785999999999979,-0.00770000000000004,0.017079999999999984,0.04499999999999993,-0.12,-0.525,-0.039919999999999956,0.05066000000000015,0.052240000000000064,1742249211.891332
0.29499999999999993,0.135,0.5049999999999999,0.13305999999999996,-0.03637999999999997,0.02293999999999996,0.31000000000000005,-0.2849999999999999,-0.22499999999999998,-0.028940000000000077,-0.19848,-0.03272000000000008,1742249211.9962869
0.17999999999999994,0.22999999999999998,0.45999999999999996,-0.014399999999999968,0.018320000000000114,-0.005739999999999967,0.69,-0.365,0.1200000000000001,-0.06323999999999996,-0.014039999999999941,0.03685999999999989,1742249212.111798
0.16999999999999993,0.2250000000000001,0.345,0.01208000000000009,0.12817999999999996,-0.031000000000000028,0.43999999999999995,-0.31000000000000005,-0.17500000000000004,0.048579999999999846,0.21667999999999998,0.023320000000000007,1742249212.233145
0.2849999999999999,0.135,0.355,0.25927999999999995,0.10607999999999995,-0.02734000000000003,0.020000000000000018,-0.20499999999999996,-0.545,-0.012700000000000045,0.19067999999999996,0.09314,1742249212.337989
0.24,0.25,0.41999999999999993,-0.036739999999999995,-0.15076,0.030160000000000187,0.1200000000000001,-0.15000000000000002,-0.255,-0.033440000000000025,-0.2815,-0.09155999999999997,1742249212.4523442
0.20500000000000007,0.19999999999999996,0.5449999999999999,-0.014900000000000024,0.032480000000000064,-0.023799999999999932,0.625,-0.45999999999999996,0.06499999999999995,0.017220000000000013,-0.17884,-0.10387999999999997,1742249212.571382
0.27,0.18999999999999995,0.31000000000000005,-0.08789999999999998,0.0684800000000001,-0.040039999999999965,0.45999999999999996,-0.365,-0.15500000000000003,0.043099999999999916,0.12683999999999984,0.03601999999999994,1742249212.67991
0.31000000000000005,0.17999999999999994,0.14500000000000002,-0.03370000000000006,0.058720000000000105,-0.03736000000000006,0.10000000000000009,-0.27,-0.41500000000000004,0.03929999999999989,0.16833999999999993,0.08020000000000005,1742249212.795684
0.21999999999999997,0.345,0.375,-0.21704,-0.07116,0.04078000000000004,0.09499999999999997,-0.125,-0.51,0.10938000000000003,-0.09620000000000006,-0.09314,1742249212.9118211
0.32000000000000006,0.1100000000000001,0.4950000000000001,-0.018440000000000012,-0.02855999999999992,-0.00048000000000003595,0.3799999999999999,-0.32000000000000006,0.014999999999999902,-0.09118000000000004,-0.28686,-0.11426000000000003,1742249213.032524
0.2450000000000001,0.125,0.43999999999999995,0.08472000000000013,0.04590000000000005,0.005619999999999958,0.5899999999999999,-0.31499999999999995,-0.16000000000000003,-0.02746000000000004,0.16333999999999982,0.10607999999999995,1742249213.1360269
0.21999999999999997,0.18500000000000005,0.2450000000000001,0.014899999999999913,0.06042000000000014,-0.019039999999999946,0.14500000000000002,-0.17999999999999994,-0.18999999999999995,0.17955999999999994,0.1816399999999998,-0.059700000000000086,1742249213.254505
0.32499999999999996,-0.040000000000000036,0.345,-0.10777999999999999,-0.17846000000000006,0.09105999999999992,0.040000000000000036,-0.07499999999999996,-0.52,-0.0232,0.09155999999999986,0.05932000000000004,1742249213.3724082
0.30499999999999994,0.08000000000000007,0.5150000000000001,0.15002000000000004,-0.06910000000000005,0.014520000000000088,0.22999999999999998,-0.235,-0.355,-0.013539999999999996,-0.25916000000000006,-0.18762,1742249213.478205
0.27,0.20500000000000007,0.43500000000000005,-0.013299999999999979,0.015260000000000051,0.005859999999999976,0.5800000000000001,-0.30000000000000004,-0.08999999999999997,-0.037719999999999976,0.13683999999999985,0.11292000000000013,1742249213.5923462
0.18999999999999995,0.25,0.29499999999999993,0.10644000000000009,0.05030000000000001,0.02746000000000004,0.3999999999999999,-0.345,-0.32000000000000006,0.01305999999999985,0.1308600000000002,0.06994000000000011,1742249213.7127051
0.31000000000000005,0.14500000000000002,0.3799999999999999,0.23536000000000024,0.0908199999999999,-0.025519999999999987,-0.030000000000000027,-0.09499999999999997,-0.59,-0.04932000000000003,0.09472000000000014,0.13050000000000006,1742249213.820029
0.22999999999999998,0.21500000000000008,0.375,0.03833999999999982,-0.10363999999999995,-0.005739999999999967,0.20999999999999996,-0.22999999999999998,-0.2849999999999999,-0.025519999999999987,-0.28248000000000006,-0.11414000000000002,1742249213.934195
0.20500000000000007,0.21999999999999997,0.575,-0.04577999999999993,0.029179999999999984,-0.025399999999999978,0.7250000000000001,-0.37,0.135,-0.06640000000000001,-0.035640000000000005,0.06128,1742249214.052188
0.26,0.14500000000000002,0.345,0.0048799999999999955,0.15307999999999988,-0.06115999999999999,0.48,-0.30000000000000004,-0.20499999999999996,0.03601999999999994,0.1973800000000001,0.033320000000000016,1742249214.171691
0.30000000000000004,0.14500000000000002,0.32000000000000006,0.11170000000000013,0.14623999999999993,-0.07568000000000008,0.125,-0.15500000000000003,-0.475,-0.07862000000000002,0.11755999999999989,0.09826000000000001,1742249214.276435
0.32499999999999996,0.1499999999999999,0.345,0.00550000000000006,-0.12536000000000003,0.05908000000000002,0.16999999999999993,-0.275,-0.355,-0.005859999999999976,-0.21239999999999992,-0.10753999999999997,1742249214.392595
0.2650000000000001,0.1200000000000001,0.5150000000000001,-0.06529999999999991,-0.028079999999999994,0.012939999999999952,0.625,-0.4,0.10499999999999998,-0.10815999999999992,-0.12303999999999993,0.021600000000000064,1742249214.511804
0.16999999999999993,0.28,0.44999999999999996,-0.07103999999999999,0.13354,-0.03649999999999998,0.3599999999999999,-0.31000000000000005,0.04499999999999993,0.05479999999999996,0.16125999999999996,0.031119999999999814,1742249214.617683
0.32000000000000006,0.18500000000000005,0.09499999999999997,-0.010140000000000038,0.10914000000000001,-0.05834000000000006,0.1499999999999999,-0.25,-0.385,-0.030279999999999974,0.12805999999999984,0.07347999999999999,1742249214.733952
0.2749999999999999,0.29000000000000004,0.20999999999999996,-0.03491999999999995,-0.12208000000000008,0.03308,0.19999999999999996,-0.28,-0.2849999999999999,0.043099999999999916,-0.1814,-0.09362000000000004,1742249214.852879
0.355,0.1499999999999999,0.5899999999999999,-0.11009999999999998,-0.04027999999999998,-0.0015800000000000258,0.44999999999999996,-0.345,0.014999999999999902,-0.015859999999999985,-0.15710000000000002,-0.03355999999999992,1742249214.958988
0.2849999999999999,0.18999999999999995,0.3599999999999999,-0.024899999999999922,0.10033999999999987,-0.03479999999999994,0.52,-0.33000000000000007,0.014999999999999902,0.012460000000000138,0.05126000000000008,0.06469999999999998,1742249215.072714
0.29000000000000004,0.15500000000000003,0.15999999999999992,-0.00988,0.07678000000000007,-0.027840000000000087,0.25,-0.25,-0.32000000000000006,-0.037719999999999976,0.17369999999999997,0.07225999999999999,1742249215.191574
0.29499999999999993,0.1499999999999999,0.31000000000000005,-0.12378,-0.14124000000000003,0.07630000000000003,0.21999999999999997,-0.17500000000000004,-0.30000000000000004,-0.007940000000000058,-0.15515999999999996,-0.06725999999999999,1742249215.305173
0.365,0.09499999999999997,0.5,-0.028200000000000003,-0.10741999999999996,0.02733999999999992,0.44500000000000006,-0.33000000000000007,0.03499999999999992,0.021239999999999926,-0.2889400000000001,-0.04944000000000004,1742249215.41644
0.32499999999999996,0.14000000000000012,0.385,-0.00782000000000005,0.10607999999999995,-0.016120000000000023,0.565,-0.29000000000000004,-0.030000000000000027,0.06152000000000002,0.08776000000000006,0.016240000000000032,1742249215.532068
0.3500000000000001,0.18500000000000005,0.135,0.011840000000000073,0.07044000000000006,-0.04200000000000004,0.29499999999999993,-0.20499999999999996,-0.235,0.0048799999999999955,0.16931999999999992,0.07044000000000006,1742249215.6517398
0.365,0.125,0.2250000000000001,-0.053100000000000036,-0.15734000000000004,0.038939999999999975,0.24,-0.17000000000000004,-0.3400000000000001,-0.030399999999999983,-0.09631999999999996,-0.07091999999999998,1742249215.7561269
0.385,0.08499999999999996,0.4849999999999999,0.0040199999999999125,-0.11158000000000001,-0.00036000000000002697,0.3900000000000001,-0.265,-0.21999999999999997,-0.04613999999999996,-0.14636000000000005,-0.06041999999999992,1742249215.871966
0.32000000000000006,0.14000000000000012,0.405,0.03857999999999984,0.09570000000000012,-0.014399999999999968,0.565,-0.275,-0.06499999999999995,-0.00988,0.0697000000000001,0.029059999999999864,1742249215.991945
0.27,0.15999999999999992,0.2549999999999999,0.005239999999999911,0.10485999999999995,-0.019279999999999964,0.2849999999999999,-0.22999999999999998,-0.17500000000000004,0.05553999999999992,0.1395200000000001,0.021120000000000028,1742249216.097833
0.3700000000000001,0.03499999999999992,0.17500000000000004,-0.020139999999999936,-0.06128,0.023560000000000025,0.2450000000000001,-0.19500000000000006,-0.39,-0.04358000000000006,-0.028079999999999994,-0.034420000000000006,1742249216.212394
0.3599999999999999,0.14000000000000012,0.52,0.033320000000000016,-0.051019999999999954,-0.0036599999999999966,0.32499999999999996,-0.27,-0.19500000000000006,-0.028320000000000012,-0.12255999999999989,-0.06053999999999993,1742249216.331137
0.31000000000000005,0.135,0.405,0.005980000000000096,0.04405999999999999,0.010499999999999954,0.605,-0.32499999999999996,0.1299999999999999,-0.02415999999999996,0.030160000000000187,0.015139999999999931,1742249216.439839
0.30000000000000004,0.18500000000000005,0.29499999999999993,-0.011360000000000037,0.11914000000000002,-0.0012199999999999989,0.43500000000000005,-0.265,-0.15500000000000003,0.0626199999999999,0.15393999999999997,0.007200000000000095,1742249216.553934
0.4099999999999999,0.17500000000000004,0.32499999999999996,0.1372,0.04614000000000007,0.0040199999999999125,0.10499999999999998,-0.18999999999999995,-0.51,0.03929999999999989,0.023800000000000043,-0.04161999999999999,1742249216.670732
0.3400000000000001,0.19500000000000006,0.32499999999999996,-0.09631999999999996,-0.16076000000000001,0.013679999999999914,0.33000000000000007,-0.29000000000000004,-0.07499999999999996,0.021239999999999926,-0.17908000000000002,-0.10462000000000005,1742249216.782037
0.29499999999999993,0.16999999999999993,0.4750000000000001,0.00550000000000006,0.008179999999999854,0.03625999999999996,0.625,-0.32000000000000006,0.16999999999999993,-0.05553999999999992,-0.029899999999999927,0.00550000000000006,1742249216.8958132
0.3999999999999999,0.11499999999999999,0.25,0.0017000000000000348,0.13853999999999989,-0.03320000000000001,0.355,-0.38,-0.08499999999999996,0.03198000000000012,0.16468000000000016,0.037719999999999976,1742249217.012109
0.41999999999999993,0.15999999999999992,0.22999999999999998,0.09448000000000012,-0.05810000000000004,0.0017000000000000348,0.14500000000000002,-0.17000000000000004,-0.42999999999999994,-0.04870000000000008,0.14549999999999996,0.09899999999999998,1742249217.131734
0.33499999999999996,0.2749999999999999,0.31000000000000005,0.06651999999999991,-0.10096000000000005,-0.007940000000000058,0.2250000000000001,-0.255,-0.17500000000000004,-0.026980000000000004,-0.09545999999999999,-0.10289999999999999,1742249217.2379909
0.2849999999999999,0.2250000000000001,0.47,-0.043340000000000045,-0.05615999999999999,-0.006460000000000021,0.585,-0.53,0.08499999999999996,0.023560000000000025,0.0015800000000001369,-0.041019999999999945,1742249217.352234
0.33000000000000007,0.16500000000000004,0.33000000000000007,0.005239999999999911,0.0662799999999999,-0.03625999999999996,0.3500000000000001,-0.38,-0.11499999999999999,-0.02746000000000004,0.14525999999999994,0.1038800000000002,1742249217.4719942
0.29499999999999993,0.24,0.18500000000000005,-0.03479999999999994,-0.04052,-0.011099999999999999,0.2250000000000001,-0.265,-0.33499999999999996,-0.00048000000000003595,0.16906,0.11182000000000003,1742249217.579835
0.26,0.28,0.5,-0.26478,-0.11975999999999998,0.03735999999999984,0.15999999999999992,-0.17999999999999994,-0.36,0.04161999999999999,-0.16358000000000006,-0.10253999999999996,1742249217.6939468
0.33000000000000007,0.09000000000000008,0.48,-0.005739999999999967,-0.1079199999999999,0.031380000000000186,0.3400000000000001,-0.385,-0.020000000000000018,-0.12841999999999998,-0.16125999999999996,-0.07481999999999989,1742249217.810765
0.28,0.135,0.3799999999999999,0.02746000000000004,0.08081999999999989,0.00035999999999991594,0.56,-0.355,-0.13,0.0329600000000001,0.08190000000000008,0.055299999999999905,1742249217.931743
0.2650000000000001,0.135,0.2250000000000001,0.0023200000000000998,0.10522000000000009,0.008059999999999956,0.2749999999999999,-0.245,-0.18500000000000005,0.05615999999999999,0.08094000000000001,0.059819999999999984,1742249218.035745
0.3799999999999999,0.18500000000000005,0.2549999999999999,0.18896000000000002,-0.022220000000000018,-0.04358000000000006,0.14000000000000012,-0.21499999999999997,-0.51,-0.028679999999999928,0.016599999999999948,0.056279999999999886,1742249218.151805
0.375,0.135,0.44500000000000006,0.005619999999999958,-0.15124000000000004,-0.010739999999999972,0.27,-0.17999999999999994,-0.275,-0.02648000000000006,-0.18128,-0.05920000000000003,1742249218.2743602
0.27,0.17500000000000004,0.4950000000000001,-0.014900000000000024,-0.07618000000000003,-0.09826000000000001,0.645,-0.365,0.040000000000000036,-0.08704,0.019400000000000084,0.04821999999999993,1742249218.377736
0.25,0.09000000000000008,0.3500000000000001,0.06103999999999998,0.059700000000000086,-0.09448000000000001,0.4950000000000001,-0.3400000000000001,-0.13,0.0006200000000000649,0.15650000000000008,0.11241999999999996,1742249218.491609
0.2849999999999999,0.15999999999999992,0.31499999999999995,0.11194000000000015,0.13598,-0.03283999999999998,0.11499999999999999,-0.09499999999999997,-0.44500000000000006,-0.01537999999999995,0.15270000000000006,0.09118000000000004,1742249218.611574
0.30499999999999994,0.14500000000000002,0.29499999999999993,-0.14588,-0.13160000000000005,0.03051999999999988,0.28,-0.21999999999999997,-0.15000000000000002,-0.021240000000000037,-0.1641800000000001,-0.1582,1742249218.7199302
0.29000000000000004,0.1299999999999999,0.53,-0.08716000000000002,-0.05628,0.022460000000000147,0.6949999999999998,-0.525,0.21999999999999997,-0.050779999999999936,-0.04259999999999997,-0.029059999999999975,1742249218.834018
0.31499999999999995,0.16999999999999993,0.32000000000000006,-0.07044000000000006,0.10803999999999991,0.06896000000000013,0.3400000000000001,-0.31499999999999995,-0.13,0.03614000000000006,0.09692000000000012,0.10875999999999997,1742249218.950725
0.2650000000000001,0.27,0.125,0.025020000000000042,0.027579999999999938,0.0013400000000001189,0.20500000000000007,-0.20499999999999996,-0.30499999999999994,0.04785999999999979,0.1165799999999999,0.03833999999999982,1742249219.071127
0.2650000000000001,0.32000000000000006,0.5150000000000001,-0.18065999999999993,-0.07264000000000004,0.0019599999999999618,0.22999999999999998,-0.16000000000000003,-0.33000000000000007,-0.11268000000000011,-0.05286000000000002,-0.0908199999999999,1742249219.17601
0.29000000000000004,0.03499999999999992,0.4750000000000001,-0.045539999999999914,-0.07189999999999996,-0.033320000000000016,0.3700000000000001,-0.38,-0.10499999999999998,0.008059999999999956,-0.18713999999999997,-0.09814,1742249219.295104
0.345,0.21500000000000008,0.42999999999999994,-0.046499999999999986,-0.008059999999999956,0.0283199999999999,0.565,-0.355,0.07499999999999996,-0.027840000000000087,0.05042000000000013,0.08299999999999996,1742249219.410463
0.31000000000000005,0.19500000000000006,0.31000000000000005,0.04956000000000005,0.10522000000000009,-0.02734000000000003,0.31000000000000005,-0.30499999999999994,-0.14500000000000002,0.0671400000000002,0.15661999999999998,0.07225999999999999,1742249219.517785
0.31000000000000005,0.16999999999999993,0.3400000000000001,0.13270000000000004,0.07347999999999999,-0.04613999999999996,0.09499999999999997,-0.14500000000000002,-0.595,0.0008600000000000829,-0.18089999999999995,-0.0026799999999999047,1742249219.6318212
0.2749999999999999,0.09499999999999997,0.45500000000000007,0.04723999999999995,-0.15844000000000003,-0.017220000000000013,0.43500000000000005,-0.37,-0.06499999999999995,-0.02513999999999994,-0.12194000000000005,-0.14915999999999996,1742249219.753084
0.29000000000000004,0.125,0.45500000000000007,-0.032340000000000035,0.08764000000000016,0.018059999999999965,0.56,-0.385,-0.03500000000000003,0.024780000000000024,0.16833999999999993,0.07946000000000009,1742249219.859757
0.28,0.19500000000000006,0.18999999999999995,0.03614000000000006,0.08618000000000015,0.04821999999999993,0.42999999999999994,-0.255,-0.15500000000000003,0.0343,0.06591999999999998,0.03857999999999984,1742249219.9737442
0.33000000000000007,0.125,0.345,0.09314,-0.037959999999999994,-0.010499999999999954,0.09499999999999997,-0.235,-0.555,-0.03210000000000002,-0.05164000000000002,-0.026739999999999986,1742249220.0913322
0.2849999999999999,0.17500000000000004,0.20999999999999996,-0.07299999999999995,-0.18628,0.023560000000000025,0.31499999999999995,-0.20999999999999996,-0.22999999999999998,-0.007320000000000104,-0.18176000000000003,-0.12791999999999992,1742249220.211676
0.27,0.23499999999999988,0.5350000000000001,-0.040159999999999973,-0.014900000000000024,-0.005499999999999949,0.615,-0.355,0.07000000000000006,-0.025880000000000014,0.02733999999999992,0.047719999999999985,1742249220.3155909
0.23499999999999988,0.16500000000000004,0.3400000000000001,-0.007320000000000104,0.15490000000000004,-0.017940000000000067,0.48,-0.30499999999999994,-0.19999999999999996,0.0578599999999998,0.034540000000000015,0.006960000000000077,1742249220.432023
0.32000000000000006,0.17999999999999994,0.32000000000000006,0.14270000000000005,0.12134,-0.04310000000000003,0.030000000000000027,-0.19999999999999996,-0.555,0.025519999999999987,0.049799999999999844,0.10816000000000003,1742249220.550954
0.31000000000000005,0.16999999999999993,0.06000000000000005,-0.01537999999999995,-0.09411999999999998,0.020620000000000083,0.24,-0.20499999999999996,-0.32000000000000006,0.06909999999999994,-0.11438000000000004,-0.10302,1742249220.6579351
0.42999999999999994,0.08000000000000007,0.7749999999999999,0.0007399999999999629,-0.04149999999999998,-0.08031999999999995,0.76,-0.385,0.29499999999999993,-0.060659999999999936,0.016720000000000068,0.048579999999999846,1742249220.773988
0.22999999999999998,0.19999999999999996,0.3999999999999999,0.013539999999999885,0.14904000000000006,0.04797999999999991,0.31000000000000005,-0.30499999999999994,-0.25,0.09118000000000004,0.1277999999999999,0.11206000000000005,1742249220.89143
0.25,0.24,-0.020000000000000018,0.17896,-0.06640000000000001,-0.07165999999999995,0.1100000000000001,-0.18999999999999995,-0.41500000000000004,0.031119999999999814,0.12646000000000002,0.06824000000000008,1742249220.999646
0.26,0.16999999999999993,0.655,-0.11768000000000012,-0.10668000000000011,-0.0023200000000000998,0.16500000000000004,-0.13,-0.4650000000000001,-0.008539999999999992,-0.20886000000000005,-0.15674,1742249221.113846
0.3700000000000001,0.020000000000000018,0.625,-0.04944000000000004,-0.09826000000000001,-0.006840000000000068,0.6200000000000001,-0.355,0.04499999999999993,-0.015619999999999967,-0.14124000000000003,-0.07264000000000004,1742249221.232716
0.26,0.17500000000000004,0.4849999999999999,0.10973999999999995,0.0932599999999999,0.03869999999999996,0.6200000000000001,-0.345,-0.0050000000000000044,-0.033320000000000016,0.16393999999999997,0.09167999999999998,1742249221.3512042
0.25,0.11499999999999999,0.19500000000000006,-0.04870000000000008,0.11059999999999981,-0.00770000000000004,0.16500000000000004,-0.20499999999999996,-0.16500000000000004,0.16784,0.03601999999999994,0.010739999999999972,1742249221.455608
0.30000000000000004,0.10000000000000009,0.11499999999999999,0.06518000000000002,-0.07874000000000003,0.023560000000000025,0.14500000000000002,-0.020000000000000018,-0.53,-0.0968,0.05821999999999994,0.07311999999999985,1742249221.571171
0.32000000000000006,0.19999999999999996,0.365,0.06884000000000001,-0.18872,-0.033440000000000025,0.21999999999999997,-0.20999999999999996,-0.07499999999999996,-0.04515999999999998,-0.22839999999999994,-0.14184000000000008,1742249221.691108
0.32499999999999996,0.08000000000000007,0.5800000000000001,-0.04259999999999997,-0.0024400000000001087,-0.016840000000000077,0.835,-0.30000000000000004,0.15999999999999992,-0.08204,0.08044000000000007,0.05590000000000006,1742249221.79757
0.2549999999999999,0.08499999999999996,0.31499999999999995,-0.026000000000000023,0.14892000000000016,-0.018059999999999965,0.42999999999999994,-0.36,-0.16500000000000004,0.08325999999999989,0.07359999999999989,0.030399999999999983,1742249221.911829
0.30000000000000004,0.2650000000000001,0.21500000000000008,0.01953999999999989,0.04797999999999991,-0.07922000000000007,0.04499999999999993,-0.15500000000000003,-0.51,-0.0916800000000001,0.17042000000000002,0.15002000000000004,1742249222.030615
0.15999999999999992,0.2250000000000001,0.375,-0.2257,-0.07591999999999999,0.09533999999999998,0.19999999999999996,-0.18500000000000005,-0.35,-0.006460000000000021,-0.24536000000000002,-0.16076000000000001,1742249222.1398258
0.43999999999999995,0.09499999999999997,0.7450000000000001,0.007079999999999975,-0.06701999999999997,0.015020000000000033,0.5,-0.24,-0.020000000000000018,-0.019540000000000002,-0.1320800000000001,-0.022460000000000035,1742249222.253802
0.18999999999999995,0.15500000000000003,0.44999999999999996,0.15442,0.14734000000000003,-0.01867999999999992,0.7050000000000001,-0.30000000000000004,0.004999999999999893,-0.04358000000000006,0.11083999999999983,0.10899999999999999,1742249222.371244
0.18500000000000005,0.18500000000000005,0.22999999999999998,-0.011360000000000037,0.08007999999999993,-0.033320000000000016,0.135,-0.29000000000000004,-0.18500000000000005,0.21618000000000004,0.0650599999999999,-0.0012199999999999989,1742249222.4806368
0.365,0.06000000000000005,0.23499999999999988,0.17652,-0.13648000000000005,0.033440000000000136,0.18999999999999995,-0.08999999999999997,-0.45999999999999996,-0.13624000000000003,0.0329600000000001,-0.008919999999999928,1742249222.594709
0.345,0.16500000000000004,0.5049999999999999,0.09582000000000002,-0.11694000000000004,0.028200000000000003,0.3700000000000001,-0.32499999999999996,-0.22999999999999998,-0.06529999999999991,-0.20886000000000005,-0.08508000000000004,1742249222.7117271
0.29000000000000004,0.16999999999999993,0.5150000000000001,-0.05786000000000002,0.023320000000000007,-0.0017000000000000348,0.7,-0.20499999999999996,0.1499999999999999,0.03186,0.03942000000000001,0.048960000000000115,1742249222.831595
0.23499999999999988,0.17500000000000004,0.365,0.03210000000000002,0.18798000000000004,-0.043460000000000054,0.3500000000000001,-0.31499999999999995,-0.12,0.03308,0.11035999999999979,0.019039999999999946,1742249222.9354692
0.32000000000000006,0.08499999999999996,0.20999999999999996,0.20921999999999996,-0.04491999999999996,-0.032220000000000026,0.14500000000000002,-0.12,-0.555,-0.026120000000000032,0.1248800000000001,0.09594000000000014,1742249223.051595
0.2650000000000001,0.27,0.10499999999999998,-0.03260000000000007,-0.10314000000000001,0.012700000000000156,0.23499999999999988,-0.21999999999999997,-0.25,-0.021720000000000073,-0.15905999999999998,-0.0625,1742249223.171259
0.45999999999999996,0.050000000000000044,0.675,-0.019399999999999973,-0.05065999999999993,-0.021600000000000064,0.635,-0.48,0.20500000000000007,-0.050779999999999936,-0.11339999999999995,0.03283999999999998,1742249223.2766058
0.26,0.135,0.42500000000000004,0.05944000000000016,0.14270000000000005,-0.02954000000000001,0.3900000000000001,-0.18999999999999995,-0.010000000000000009,-0.04736000000000007,0.2912600000000001,0.14207999999999998,1742249223.391844
0.2849999999999999,0.10000000000000009,0.09000000000000008,-0.018320000000000003,0.08898000000000006,-0.03088000000000002,0.30499999999999994,-0.030000000000000027,-0.2849999999999999,0.24461999999999984,0.12561999999999984,-0.04955999999999994,1742249223.5118551
0.23499999999999988,-0.09999999999999998,0.31499999999999995,-0.19616,-0.14258000000000004,0.09509999999999996,0.27,-0.010000000000000009,-0.4,-0.14294000000000007,0.09594000000000014,-0.04822000000000004,1742249223.618739
0.31000000000000005,0.07000000000000006,0.4849999999999999,0.020499999999999963,-0.15612000000000004,-0.01525999999999994,0.21500000000000008,-0.33499999999999996,-0.33499999999999996,-0.09510000000000007,-0.18738,-0.15539999999999998,1742249223.7331882
0.31000000000000005,0.14500000000000002,0.42500000000000004,-0.08484000000000003,-0.022220000000000018,0.05493999999999999,0.8,-0.41999999999999993,0.1499999999999999,-0.014900000000000024,-0.08531999999999995,0.02942,1742249223.851534
0.24,0.125,0.405,0.00550000000000006,0.1407400000000001,-0.014639999999999986,0.33000000000000007,-0.35,-0.11499999999999999,0.07531999999999983,0.21507999999999994,0.046640000000000015,1742249223.960523
0.26,0.19999999999999996,0.09499999999999997,-0.19886000000000004,0.08983999999999992,0.02868000000000004,-0.030000000000000027,-0.26,-0.525,0.1324400000000001,0.13134,0.02088000000000001,1742249224.0746188
0.30499999999999994,-0.07499999999999996,0.51,-0.15564,-0.09314,0.10729999999999995,0.1200000000000001,-0.125,-0.44999999999999996,-0.12915999999999994,-0.19874000000000003,-0.06335999999999997,1742249224.191078
0.355,0.03499999999999992,0.78,0.04090000000000016,-0.10631999999999997,-0.03210000000000002,0.53,-0.52,0.15500000000000003,0.048960000000000115,-0.19189999999999996,-0.08923999999999999,1742249224.310475
0.2849999999999999,0.2250000000000001,0.4849999999999999,0.08874000000000004,0.15783999999999998,0.02648000000000006,0.625,-0.33000000000000007,0.040000000000000036,-0.09924,0.17408,0.1947000000000001,1742249224.416499
0.20500000000000007,0.1200000000000001,0.1499999999999999,-0.12646000000000002,0.05042000000000013,-0.011600000000000055,0.15999999999999992,-0.12,-0.040000000000000036,0.020499999999999963,0.2389000000000001,0.00011999999999989797,1742249224.531952
0.33499999999999996,0.03499999999999992,0.07000000000000006,0.23607999999999985,-0.12170000000000003,-0.01208000000000009,0.21500000000000008,-0.050000000000000044,-0.475,-0.10070000000000001,-0.03210000000000002,0.00011999999999989797,1742249224.6516428
0.44999999999999996,0.21500000000000008,0.375,0.07702000000000009,-0.09974000000000005,0.07531999999999983,0.3599999999999999,-0.44999999999999996,0.030000000000000027,0.007079999999999975,-0.28736000000000006,-0.16271999999999998,1742249224.757638
0.32499999999999996,0.20500000000000007,0.49,0.0578599999999998,0.03638000000000008,0.0008600000000000829,0.645,-0.29000000000000004,0.08499999999999996,0.00048000000000003595,0.18859999999999988,0.08594000000000013,1742249224.8714418
0.2650000000000001,0.1100000000000001,0.2549999999999999,0.09400000000000008,0.11559999999999993,-0.053100000000000036,0.43999999999999995,-0.17000000000000004,-0.11499999999999999,0.09007999999999994,0.043220000000000036,-0.05603999999999998,1742249224.992542
0.30000000000000004,0.1100000000000001,0.09000000000000008,0.10411999999999999,-0.055179999999999896,-0.005739999999999967,0.0,0.004999999999999893,-0.71,-0.08520000000000005,0.16236000000000006,0.14427999999999996,1742249225.098635
0.23499999999999988,0.25,0.345,-0.016240000000000032,-0.20129999999999992,0.009519999999999973,0.14000000000000012,-0.25,-0.20999999999999996,-0.04259999999999997,-0.29003999999999996,-0.21118000000000003,1742249225.212678
0.29000000000000004,0.1299999999999999,0.625,-0.11021999999999998,-0.09192,-0.020139999999999936,0.7,-0.45500000000000007,0.08499999999999996,-0.04724000000000006,-0.11608000000000007,-0.014780000000000015,1742249225.331518
0.17500000000000004,0.07000000000000006,0.385,0.10997999999999997,0.17688000000000015,-0.007320000000000104,0.355,-0.30499999999999994,-0.10499999999999998,0.11925999999999992,0.18396000000000012,0.007940000000000058,1742249225.451125
0.19500000000000006,0.24,0.125,-0.11450000000000005,0.12670000000000003,0.02222000000000013,-0.07999999999999996,-0.17999999999999994,-0.59,0.06994000000000011,0.2401199999999999,0.07457999999999987,1742249225.5545752
0.22999999999999998,0.29000000000000004,0.6400000000000001,-0.24878,-0.022580000000000044,0.1301199999999998,0.06499999999999995,-0.235,-0.39,-0.08398000000000005,-0.2880799999999999,-0.18676000000000004,1742249225.671351
0.345,0.07000000000000006,0.905,0.07079999999999997,-0.07335999999999998,0.00537999999999994,0.7149999999999999,-0.53,0.2450000000000001,-0.024780000000000024,-0.12341999999999997,0.012320000000000109,1742249225.782506
0.28,0.23499999999999988,0.405,0.08216000000000001,0.22486000000000006,0.056640000000000024,0.4099999999999999,-0.39,-0.07499999999999996,0.21361999999999992,0.19520000000000004,0.09192,1742249225.896506
0.2450000000000001,0.2849999999999999,-0.050000000000000044,-0.05725999999999998,0.11131999999999986,0.012820000000000054,-0.030000000000000027,-0.25,-0.475,0.02075999999999989,0.20288000000000017,0.13440000000000007,1742249226.011167
0.2650000000000001,0.1200000000000001,0.48,-0.26014000000000004,-0.1596599999999999,0.05261999999999989,0.135,-0.20999999999999996,-0.4650000000000001,-0.05712000000000006,-0.17652,-0.05932000000000004,1742249226.130928
0.43500000000000005,0.135,0.7850000000000001,-0.11218000000000006,-0.12915999999999994,-0.033320000000000016,0.645,-0.37,-0.025000000000000022,-0.09838000000000002,-0.17346000000000006,-0.027959999999999985,1742249226.238726
0.25,0.2650000000000001,0.405,0.10949999999999993,-0.0035399999999999876,0.03968000000000016,0.43999999999999995,-0.29000000000000004,-0.19500000000000006,0.11681999999999992,0.08203999999999989,0.042119999999999935,1742249226.352413
0.21500000000000008,0.20500000000000007,0.19500000000000006,0.10046,0.07055999999999996,-0.03370000000000006,0.030000000000000027,-0.22999999999999998,-0.42999999999999994,0.07445999999999997,0.09973999999999994,0.04479999999999995,1742249226.472197
0.2650000000000001,0.02499999999999991,0.48,-0.05274000000000001,-0.07347999999999999,0.05018000000000011,0.11499999999999999,-0.15000000000000002,-0.33499999999999996,-0.06555999999999995,-0.25061999999999995,-0.08629999999999993,1742249226.579788
0.32000000000000006,0.06000000000000005,0.6000000000000001,0.0013400000000001189,-0.05577999999999994,-0.014780000000000015,0.6600000000000001,-0.385,0.14500000000000002,0.019039999999999946,-0.2108199999999999,-0.0010999999999999899,1742249226.693506
0.2549999999999999,0.25,0.42500000000000004,0.0895999999999999,0.13196000000000008,0.00550000000000006,0.4750000000000001,-0.28,-0.07999999999999996,0.0031799999999999606,0.00770000000000004,0.08203999999999989,1742249226.811182
0.21500000000000008,0.21500000000000008,0.135,0.05333999999999994,0.16822000000000004,-0.06713999999999998,0.24,-0.21999999999999997,-0.19500000000000006,0.016839999999999966,0.03685999999999989,0.09522000000000008,1742249226.9203389
0.3400000000000001,0.03499999999999992,0.31000000000000005,0.15894000000000008,-0.0040200000000000236,-0.04310000000000003,0.14500000000000002,-0.07999999999999996,-0.2849999999999999,-0.03405999999999998,-0.03503999999999996,-0.054440000000000044,1742249227.0337338
0.55,0.030000000000000027,0.44500000000000006,0.08177999999999996,-0.09277999999999997,0.005619999999999958,0.43999999999999995,-0.345,0.14000000000000012,-0.09741999999999995,-0.12818000000000007,-0.0795800000000001,1742249227.151733
0.355,0.1200000000000001,0.3599999999999999,0.05030000000000001,0.013679999999999914,0.013800000000000034,0.5,-0.31000000000000005,0.02499999999999991,0.05042000000000013,0.1445399999999999,-0.007080000000000086,1742249227.2613142
0.2650000000000001,0.09499999999999997,0.18500000000000005,0.010620000000000074,0.07531999999999983,0.012939999999999952,0.1299999999999999,-0.27,-0.19999999999999996,0.06176000000000004,0.24634,0.05944000000000016,1742249227.375285
0.3799999999999999,0.16999999999999993,0.09499999999999997,0.06896000000000013,-0.13525999999999994,0.07740000000000014,0.125,-0.17500000000000004,-0.44999999999999996,-0.07604,-0.22277999999999998,-0.06689999999999996,1742249227.49202
0.48,0.03499999999999992,0.5249999999999999,0.07885999999999993,-0.19372,0.05140000000000011,0.77,-0.43500000000000005,0.27,-0.02210000000000001,-0.25170000000000003,-0.00024000000000001798,1742249227.612148
0.32000000000000006,0.17999999999999994,0.44999999999999996,-0.018059999999999965,0.10242000000000018,0.010620000000000074,0.42999999999999994,-0.35,-0.09999999999999998,0.035880000000000134,0.014399999999999968,-0.03272000000000008,1742249227.7163992
0.19500000000000006,0.21500000000000008,0.06499999999999995,0.10033999999999987,0.22840000000000016,-0.022340000000000027,0.04499999999999993,-0.27,-0.38,0.07166000000000006,0.125,0.05455999999999994,1742249227.832018
0.395,0.09499999999999997,0.17500000000000004,-0.005979999999999985,-0.11253999999999997,0.048699999999999966,0.125,-0.16000000000000003,-0.525,-0.17298000000000002,-0.13879999999999992,0.016000000000000014,1742249227.951958
0.42999999999999994,0.030000000000000027,0.4650000000000001,-0.06981999999999988,-0.14085999999999999,-0.012319999999999998,0.6949999999999998,-0.49,0.375,-0.04161999999999999,-0.15894000000000008,0.009160000000000057,1742249228.058435
0.375,0.16500000000000004,0.42999999999999994,-0.07740000000000002,0.06018000000000012,0.041260000000000074,0.17999999999999994,-0.39,-0.0050000000000000044,-0.0075599999999999,0.32166000000000006,0.019279999999999964,1742249228.172504
0.2250000000000001,0.15500000000000003,0.010000000000000009,0.03320000000000012,0.08177999999999996,0.06457999999999986,0.09000000000000008,-0.24,-0.28,0.17931999999999992,0.10840000000000005,-0.03370000000000006,1742249228.2963378
0.2250000000000001,0.125,0.21999999999999997,0.03527999999999998,-0.17137999999999998,0.12353999999999998,0.1499999999999999,-0.14500000000000002,-0.45500000000000007,-0.18616,0.0019599999999999618,0.05235999999999996,1742249228.400434
0.48,0.07000000000000006,0.405,0.023560000000000025,-0.16589999999999994,-0.037719999999999976,0.4650000000000001,-0.43999999999999995,0.02499999999999991,-0.08228000000000002,-0.18128,-0.023559999999999914,1742249228.5144892
0.3599999999999999,0.27,0.33000000000000007,-0.12951999999999997,-0.011600000000000055,-0.00048000000000003595,0.605,-0.30000000000000004,-0.03500000000000003,0.040039999999999853,0.14246000000000003,0.08373999999999993,1742249228.632242
0.33000000000000007,0.125,0.565,-0.11131999999999997,0.0023200000000000998,-0.036739999999999995,0.405,-0.355,-0.27,0.05908000000000002,-0.3025,-0.07996000000000003,1742249894.443318
0.1499999999999999,0.135,0.385,0.0037799999999998946,0.13549999999999995,-0.029899999999999927,0.6000000000000001,-0.27,-0.06000000000000005,0.08385999999999982,0.045420000000000016,-0.02100000000000002,1742249894.55404
0.27,0.1499999999999999,0.17999999999999994,0.375,0.041020000000000056,-0.03724000000000005,0.014999999999999902,-0.17500000000000004,-0.41999999999999993,0.07055999999999996,0.13050000000000006,0.06529999999999991,1742249894.667982
0.48,0.014999999999999902,0.575,0.08728000000000002,-0.047719999999999985,0.00537999999999994,0.18999999999999995,-0.14500000000000002,-0.33499999999999996,-0.017940000000000067,-0.11108000000000007,0.00035999999999991594,1742249894.78378
0.3400000000000001,0.17999999999999994,0.42999999999999994,-0.05235999999999996,-0.014039999999999941,0.0025599999999998957,0.915,-0.30499999999999994,0.29000000000000004,-0.06298000000000004,0.01208000000000009,0.04711999999999983,1742249894.89595
0.2250000000000001,0.1200000000000001,0.09000000000000008,0.012460000000000138,-0.046760000000000024,-0.005120000000000013,0.44999999999999996,-0.30000000000000004,-0.20999999999999996,0.07933999999999997,0.1189,-0.02088000000000001,1742249895.01005
0.2749999999999999,0.2549999999999999,0.25,-0.11596000000000006,-0.10997999999999997,0.015020000000000033,0.1299999999999999,-0.08999999999999997,-0.49,-0.10777999999999999,0.03980000000000006,0.04039999999999999,1742249895.124511
0.3599999999999999,0.135,0.595,-0.025760000000000005,0.007440000000000113,-0.0032999999999999696,0.49,-0.395,0.02499999999999991,-0.10046,-0.24815999999999994,-0.07996000000000003,1742249895.2438989
0.1299999999999999,0.23499999999999988,0.30000000000000004,0.046640000000000015,0.1358600000000001,-0.006840000000000068,0.565,-0.275,-0.040000000000000036,0.10596000000000005,0.04932000000000003,-0.030159999999999965,1742249895.3520331
0.33499999999999996,0.09000000000000008,0.21500000000000008,0.09251999999999994,-0.059700000000000086,0.04845999999999995,-0.030000000000000027,-0.135,-0.595,0.07603999999999989,0.19300000000000006,0.062019999999999964,1742249895.465968
0.45999999999999996,0.06499999999999995,0.6200000000000001,0.08448000000000011,-0.04589999999999994,-0.026739999999999986,0.31499999999999995,-0.125,-0.32499999999999996,-0.026739999999999986,-0.20704,-0.03417999999999999,1742249895.583732
0.29499999999999993,0.10499999999999998,0.32000000000000006,-0.07568000000000008,0.11559999999999993,-0.03760000000000008,0.69,-0.30000000000000004,0.0,0.008179999999999854,0.047719999999999985,0.03272000000000008,1742249895.6938071
0.33000000000000007,0.1200000000000001,0.19500000000000006,0.18199999999999994,0.03820000000000001,-0.04932000000000003,0.08499999999999996,-0.26,-0.31499999999999995,0.09338000000000002,0.14892000000000016,-0.010140000000000038,1742249895.806946
0.42500000000000004,0.24,0.565,0.013539999999999885,-0.06396000000000002,-0.017340000000000022,0.23499999999999988,-0.135,-0.29000000000000004,-0.060919999999999974,-0.17968000000000006,0.021239999999999926,1742249895.925784
0.27,0.14500000000000002,0.4750000000000001,-0.13818000000000008,0.0686,-0.04394000000000009,0.875,-0.22999999999999998,0.3500000000000001,-0.11021999999999998,0.0030599999999998406,0.08861999999999992,1742249896.03484
0.32499999999999996,0.135,0.004999999999999893,0.05030000000000001,-0.034540000000000015,-0.03724000000000005,0.44500000000000006,-0.17500000000000004,-0.19999999999999996,0.07654000000000005,0.16016000000000008,-0.0502999999999999,1742249896.149058
0.3599999999999999,0.18500000000000005,0.2549999999999999,-0.048960000000000004,-0.20936,0.07972000000000001,0.05499999999999994,-0.17999999999999994,-0.56,-0.07079999999999997,0.026739999999999986,-0.018059999999999965,1742249896.2651892
0.31499999999999995,0.10000000000000009,0.5699999999999998,-0.05628,0.03516000000000008,0.009279999999999955,0.76,-0.15500000000000003,0.3900000000000001,-0.11414000000000002,-0.06835999999999998,0.01305999999999985,1742249896.376971
0.26,0.050000000000000044,0.09499999999999997,0.05261999999999989,0.0623800000000001,-0.023799999999999932,0.43500000000000005,-0.245,0.014999999999999902,0.06529999999999991,0.06591999999999998,0.008179999999999854,1742249896.490794
0.3599999999999999,0.03499999999999992,0.27,-0.15637999999999996,-0.20189999999999997,0.11083999999999983,-0.11499999999999999,-0.15500000000000003,-0.73,0.02648000000000006,0.26868000000000003,0.03442000000000012,1742249896.605129
0.3700000000000001,-0.015000000000000013,0.7050000000000001,0.0920399999999999,0.0024399999999999977,0.04747999999999997,0.30499999999999994,-0.275,-0.30499999999999994,-0.06225999999999998,-0.35339999999999994,-0.08484000000000003,1742249896.7241411
0.21500000000000008,0.31000000000000005,0.355,-0.03967999999999994,0.15344000000000002,0.021479999999999944,0.55,-0.25,0.06000000000000005,0.009879999999999889,0.16357999999999984,0.04492000000000007,1742249896.831807
0.345,0.30499999999999994,0.18500000000000005,0.11426000000000003,0.0008600000000000829,0.00024000000000001798,0.004999999999999893,-0.29000000000000004,-0.355,0.18836000000000008,0.1518600000000001,-0.020379999999999954,1742249896.9450529
0.43500000000000005,0.2549999999999999,0.6299999999999999,0.10450000000000004,-0.11839999999999995,-0.02746000000000004,0.24,-0.03500000000000003,-0.265,-0.13318000000000008,-0.16503999999999996,-0.005739999999999967,1742249897.065751
0.24,0.21999999999999997,0.4849999999999999,-0.08641999999999994,0.08911999999999987,-0.06603999999999999,0.7549999999999999,-0.30499999999999994,0.21999999999999997,-0.06541999999999992,0.025880000000000125,0.0048799999999999955,1742249897.1728342
0.355,0.125,0.17999999999999994,0.10546000000000011,0.10851999999999995,-0.03748000000000007,0.18500000000000005,-0.125,-0.22999999999999998,0.1691800000000001,0.12683999999999984,0.010259999999999936,1742249897.286069
0.395,0.19500000000000006,0.2250000000000001,-0.048960000000000004,-0.18212000000000006,0.03516000000000008,0.18500000000000005,-0.04500000000000004,-0.37,-0.14978000000000002,-0.11291999999999991,0.04785999999999979,1742249897.406563
0.385,0.11499999999999999,0.44999999999999996,-0.10241999999999996,0.008419999999999872,-0.048960000000000004,0.925,-0.19500000000000006,0.44500000000000006,-0.09008000000000005,-0.05944000000000005,0.054319999999999924,1742249897.513922
0.20500000000000007,0.20500000000000007,0.02499999999999991,0.11047999999999991,-0.0032999999999999696,-0.05884,0.4950000000000001,-0.265,-0.15000000000000002,0.0006200000000000649,0.18592000000000009,0.010380000000000056,1742249897.627867
0.26,0.24,0.25,-0.14281999999999995,-0.09753999999999996,-0.0700599999999999,0.1100000000000001,-0.12,-0.575,-0.15748000000000006,0.025640000000000107,0.10057999999999989,1742249897.74586
0.355,-0.020000000000000018,0.625,0.0040199999999999125,0.005859999999999976,0.022460000000000147,0.595,-0.31499999999999995,0.365,-0.18128,-0.23902,-0.06555999999999995,1742249897.855006
0.2749999999999999,0.125,0.06499999999999995,0.06042000000000014,0.10533999999999999,0.01868000000000003,0.5049999999999999,-0.28,-0.050000000000000044,0.11633999999999989,0.09460000000000002,0.035880000000000134,1742249897.968828
0.3500000000000001,-0.07000000000000006,0.3500000000000001,0.08484000000000003,-0.02636000000000005,0.03516000000000008,0.08499999999999996,-0.15000000000000002,-0.475,0.056400000000000006,0.1447799999999999,0.08409999999999984,1742249898.086372
0.51,0.020000000000000018,0.6499999999999999,0.10596000000000005,-0.10229999999999995,-0.01317999999999997,0.31000000000000005,-0.14,-0.12,-0.03539999999999999,-0.1852999999999999,-0.05553999999999992,1742249898.196098
0.29499999999999993,0.10499999999999998,0.3500000000000001,-0.05932000000000004,0.11524000000000001,-0.028940000000000077,0.69,-0.3400000000000001,0.135,-0.009399999999999964,0.030999999999999917,-0.005120000000000013,1742249898.309898
0.32000000000000006,0.10000000000000009,0.14000000000000012,0.035640000000000116,0.08557999999999999,-0.02061999999999997,0.51,-0.24,-0.17999999999999994,0.10961999999999983,0.04699999999999993,-0.017820000000000058,1742249898.426232
0.27,0.29000000000000004,0.2450000000000001,-0.01317999999999997,-0.03186,0.00550000000000006,0.09499999999999997,-0.09499999999999997,-0.525,0.0017000000000000348,0.060799999999999965,0.022820000000000062,1742249898.538323
0.4849999999999999,0.16500000000000004,0.6000000000000001,-0.07835999999999999,-0.017340000000000022,0.0,0.32499999999999996,-0.20999999999999996,-0.13,-0.037959999999999994,-0.15344000000000002,-0.0857,1742249898.652048
0.2849999999999999,0.14500000000000002,0.3900000000000001,-0.06347999999999998,0.09118000000000004,-0.012700000000000045,0.7,-0.33499999999999996,0.21500000000000008,0.00035999999999991594,-0.03967999999999994,0.018920000000000048,1742249898.766722
0.27,0.06499999999999995,0.09499999999999997,0.049919999999999964,0.024780000000000024,-0.0393,0.5049999999999999,-0.265,-0.15500000000000003,0.08435999999999999,0.07508000000000004,-0.0032999999999999696,1742249898.887003
0.29499999999999993,-0.010000000000000009,0.3500000000000001,-0.11146,-0.07044000000000006,0.08826,0.2549999999999999,-0.21499999999999997,-0.29000000000000004,0.03394000000000008,0.11718000000000006,0.07811999999999997,1742249898.992714
0.45999999999999996,0.14500000000000002,0.44999999999999996,0.038819999999999855,-0.011600000000000055,0.0014600000000000168,0.2849999999999999,-0.12,-0.32499999999999996,-0.13097999999999999,-0.06579999999999997,-0.007320000000000104,1742249899.107029
0.3799999999999999,0.08000000000000007,0.385,-0.032480000000000064,0.030999999999999917,-0.0023200000000000998,0.365,-0.345,0.02499999999999991,-0.08263999999999994,-0.20874000000000004,-0.05737999999999999,1742249899.2263691
0.29000000000000004,0.20999999999999996,0.2450000000000001,0.013539999999999885,0.06835999999999998,-0.0050000000000000044,0.6299999999999999,-0.26,0.06499999999999995,0.04516000000000009,0.09448000000000012,0.011600000000000055,1742249899.334667
0.42999999999999994,0.135,0.20500000000000007,0.17652,0.07347999999999999,-0.034420000000000006,0.31499999999999995,-0.265,-0.15000000000000002,0.04699999999999993,0.10655999999999999,-0.0036599999999999966,1742249899.4478211
0.3999999999999999,0.1200000000000001,0.08499999999999996,0.0626199999999999,-0.14415999999999995,0.06591999999999998,0.2250000000000001,-0.10499999999999998,-0.475,-0.04064000000000001,0.010499999999999954,0.02320000000000011,1742249899.5679
0.43500000000000005,0.21500000000000008,0.4750000000000001,-0.05113999999999996,0.03917999999999999,-0.0012199999999999989,0.2549999999999999,-0.26,-0.14500000000000002,0.08790000000000009,-0.19287999999999994,-0.14770000000000005,1742249899.6759071
0.405,0.14500000000000002,0.30000000000000004,-0.10084000000000004,0.04479999999999995,-0.03405999999999998,0.7,-0.4,0.22999999999999998,-0.07544000000000006,-0.04491999999999996,0.01770000000000005,1742249899.789824
0.2849999999999999,0.08000000000000007,0.06000000000000005,-0.011360000000000037,0.014040000000000052,-0.03308,0.45999999999999996,-0.32499999999999996,-0.06499999999999995,0.15661999999999998,0.09400000000000008,-0.03479999999999994,1742249899.906841
0.375,0.040000000000000036,0.29000000000000004,-0.14172000000000007,-0.13684000000000007,0.14379999999999993,0.125,-0.21499999999999997,-0.41999999999999993,0.10424000000000011,0.13183999999999996,0.05518000000000001,1742249900.0274482
0.49,-0.025000000000000022,0.53,-0.010499999999999954,-0.12414000000000003,0.02404000000000006,0.25,-0.07999999999999996,-0.275,-0.061880000000000046,-0.07020000000000004,-0.037959999999999994,1742249900.132024
0.365,0.135,0.3700000000000001,-0.06725999999999999,0.0048799999999999955,0.0039000000000000146,0.51,-0.255,-0.06000000000000005,-0.12315999999999994,-0.08068000000000008,-0.03515999999999997,1742249900.247981
0.33000000000000007,0.15500000000000003,0.24,-0.05396000000000001,0.06152000000000002,-0.033320000000000016,0.5249999999999999,-0.28,-0.040000000000000036,0.043339999999999934,0.10888000000000009,-0.03515999999999997,1742249900.368264
0.32499999999999996,0.16999999999999993,0.1499999999999999,0.26781999999999995,0.041380000000000194,-0.013539999999999996,0.3599999999999999,-0.21499999999999997,-0.21499999999999997,0.08935999999999988,0.021360000000000046,-0.009279999999999955,1742249900.473822
0.31000000000000005,0.21500000000000008,0.15999999999999992,0.09216000000000002,-0.030019999999999936,-0.015739999999999976,0.125,-0.14,-0.515,-0.060919999999999974,0.05493999999999999,0.03442000000000012,1742249900.588105
0.42999999999999994,0.17500000000000004,0.55,-0.06811999999999996,-0.0037800000000000056,-0.005619999999999958,0.29000000000000004,-0.26,-0.16000000000000003,-0.008539999999999992,-0.14415999999999995,-0.04467999999999994,1742249900.712276
0.30000000000000004,0.19999999999999996,0.3400000000000001,-0.05737999999999999,0.054079999999999906,-0.026859999999999995,0.7250000000000001,-0.35,0.07499999999999996,0.01305999999999985,-0.13598,-0.02648000000000006,1742249900.815843
0.22999999999999998,0.14000000000000012,0.135,0.06702000000000008,0.06445999999999996,-0.042360000000000064,0.47,-0.33499999999999996,-0.19999999999999996,0.06274000000000002,0.025880000000000125,0.02746000000000004,1742249900.9295502
0.32000000000000006,-0.010000000000000009,0.3400000000000001,-0.09704000000000002,-0.06541999999999992,0.062140000000000084,0.2250000000000001,-0.265,-0.32499999999999996,0.009519999999999973,0.09777999999999998,0.07445999999999997,1742249901.048748
0.41999999999999993,0.1100000000000001,0.4849999999999999,0.11194000000000015,0.008179999999999854,-0.009759999999999991,0.23499999999999988,-0.20499999999999996,-0.31000000000000005,-0.1261,0.0047600000000000975,0.00024000000000001798,1742249901.156839
0.385,0.15999999999999992,0.3599999999999999,-0.021120000000000028,0.03869999999999996,-0.021720000000000073,0.31499999999999995,-0.32000000000000006,-0.12,-0.038940000000000086,-0.2529199999999999,-0.06286000000000003,1742249901.27096
0.30000000000000004,0.2650000000000001,0.32499999999999996,0.011479999999999935,0.12657999999999991,-0.05455999999999994,0.635,-0.30000000000000004,0.1200000000000001,0.041260000000000074,0.031500000000000083,0.00770000000000004,1742249901.388636
0.3900000000000001,0.1299999999999999,0.1100000000000001,0.16578000000000004,0.038939999999999975,-0.04077999999999993,0.3500000000000001,-0.31499999999999995,-0.09499999999999997,0.14196000000000009,0.024540000000000006,-0.015020000000000033,1742249901.49783
0.33499999999999996,0.18999999999999995,0.33499999999999996,-0.22192,-0.10120000000000007,0.10718000000000005,0.15999999999999992,-0.22499999999999998,-0.375,0.008299999999999974,0.13525999999999994,0.10301999999999989,1742249901.611742
0.43500000000000005,0.10499999999999998,0.53,-0.07898000000000005,-0.07946000000000009,0.023440000000000127,0.17500000000000004,-0.19999999999999996,-0.265,-0.07055999999999996,-0.06677999999999995,-0.005240000000000022,1742249901.727511
0.375,0.14000000000000012,0.375,0.0021999999999999797,0.06666000000000016,-0.01085999999999998,0.43500000000000005,-0.30000000000000004,0.07000000000000006,-0.09227999999999992,-0.12768000000000002,-0.08228000000000002,1742249901.848855
0.30499999999999994,0.19500000000000006,0.18999999999999995,0.05274000000000001,0.08325999999999989,-0.0024400000000001087,0.54,-0.33000000000000007,-0.0050000000000000044,-0.006099999999999994,0.09606000000000003,0.012320000000000109,1742249901.953704
0.3999999999999999,0.16999999999999993,0.19999999999999996,0.1433199999999999,0.07166000000000006,-0.0232,0.395,-0.265,-0.15500000000000003,0.09411999999999998,0.04150000000000009,-0.020139999999999936,1742249902.0687869
0.3599999999999999,0.2549999999999999,0.16999999999999993,0.08606000000000003,-0.06458000000000008,0.01868000000000003,0.125,-0.21499999999999997,-0.51,-0.010619999999999963,0.08275999999999994,0.04833999999999983,1742249902.191204
0.45999999999999996,0.09499999999999997,0.5550000000000002,-0.052240000000000064,-0.022460000000000035,-0.013539999999999996,0.26,-0.20999999999999996,-0.14500000000000002,-0.06591999999999998,-0.11241999999999996,-0.07068000000000008,1742249902.2959318
0.42500000000000004,0.14500000000000002,0.21500000000000008,-0.08984000000000003,0.05126000000000008,-0.04405999999999999,0.6099999999999999,-0.405,0.03499999999999992,-0.03283999999999998,0.016119999999999912,-0.033320000000000016,1742249902.40973
0.30499999999999994,0.05499999999999994,0.09499999999999997,-0.0232,0.0006200000000000649,-0.016720000000000068,0.345,-0.28,-0.15500000000000003,0.06567999999999996,0.17053999999999991,0.0354000000000001,1742249902.528061
0.27,0.07499999999999996,0.47,0.0037799999999998946,-0.08118000000000003,0.05577999999999994,0.26,-0.32499999999999996,-0.255,0.07690000000000019,0.13378,0.0295399999999999,1742249902.637711
0.33000000000000007,0.19500000000000006,0.44999999999999996,0.08898000000000006,-0.08177999999999996,0.021239999999999926,0.19999999999999996,-0.19500000000000006,-0.4099999999999999,-0.06713999999999998,0.016960000000000086,0.03088000000000002,1742249902.751735
0.385,0.20500000000000007,0.4849999999999999,-0.009519999999999973,0.007200000000000095,-0.006460000000000021,0.28,-0.245,-0.125,-0.021120000000000028,-0.14734000000000003,-0.07165999999999995,1742249902.868598
0.3799999999999999,0.16500000000000004,0.2450000000000001,-0.052240000000000064,0.08557999999999999,-0.05384,0.6000000000000001,-0.355,0.17500000000000004,-0.05188000000000004,-0.048960000000000004,0.008179999999999854,1742249902.988223
0.2650000000000001,0.11499999999999999,0.10000000000000009,0.010140000000000038,0.02293999999999996,-0.016000000000000014,0.4099999999999999,-0.3400000000000001,-0.07499999999999996,0.03370000000000006,0.08435999999999999,0.033560000000000034,1742249903.093629
0.3400000000000001,0.07499999999999996,0.2749999999999999,-0.17858000000000007,-0.07823999999999998,0.08692000000000011,0.26,-0.265,-0.30499999999999994,0.04968000000000017,0.13758000000000004,0.05553999999999992,1742249903.212144
0.405,0.16500000000000004,0.4650000000000001,0.1038800000000002,-0.04200000000000004,0.009879999999999889,0.24,-0.18999999999999995,-0.31000000000000005,-0.11768000000000012,-0.04601999999999995,0.009039999999999937,1742249903.328943
0.29499999999999993,0.15500000000000003,0.395,-0.0040200000000000236,0.059700000000000086,0.00537999999999994,0.27,-0.30499999999999994,-0.14500000000000002,-0.05188000000000004,-0.1604,-0.08216000000000001,1742249903.435914
0.375,0.26,0.2849999999999999,-0.029899999999999927,0.08692000000000011,0.033320000000000016,0.635,-0.2849999999999999,0.1299999999999999,-0.005739999999999967,-0.0024400000000001087,0.018799999999999928,1742249903.5496309
0.3799999999999999,0.24,0.07000000000000006,0.046499999999999986,-0.024419999999999997,0.0013400000000001189,0.385,-0.3400000000000001,-0.11499999999999999,0.030279999999999863,0.1606399999999999,0.07031999999999994,1742249903.670559
0.32000000000000006,0.2549999999999999,0.27,0.010739999999999972,-0.07898000000000005,-0.02758000000000005,0.19999999999999996,-0.18999999999999995,-0.36,0.05761999999999978,0.09057999999999988,0.025519999999999987,1742249903.776513
0.3799999999999999,0.1100000000000001,0.4849999999999999,0.03370000000000006,-0.043340000000000045,-0.01978000000000002,0.31499999999999995,-0.255,-0.19500000000000006,0.011360000000000037,-0.08850000000000002,-0.04405999999999999,1742249903.88985
0.3400000000000001,0.19999999999999996,0.355,-0.05712000000000006,0.0031799999999999606,-0.012940000000000063,0.41999999999999993,-0.3400000000000001,-0.04500000000000004,-0.03417999999999999,-0.09570000000000001,-0.04259999999999997,1742249904.009162
0.345,0.16500000000000004,0.27,0.04614000000000007,0.03161999999999998,-0.021120000000000028,0.5150000000000001,-0.255,-0.09999999999999998,-0.019279999999999964,0.06811999999999996,0.05738000000000021,1742249904.1175869
0.33000000000000007,0.14000000000000012,0.2749999999999999,0.08618000000000015,0.06323999999999996,-0.031240000000000046,0.3400000000000001,-0.25,-0.18999999999999995,0.044440000000000035,0.020140000000000047,-0.012319999999999998,1742249904.231719
0.355,0.24,0.21999999999999997,0.045420000000000016,0.013299999999999867,0.013679999999999914,0.18500000000000005,-0.17500000000000004,-0.35,0.012460000000000138,0.08190000000000008,0.01317999999999997,1742249904.348981
0.41500000000000004,0.07000000000000006,0.41500000000000004,0.005619999999999958,-0.00537999999999994,0.0042800000000000615,0.27,-0.24,-0.25,0.00878000000000001,-0.08594000000000002,-0.08350000000000002,1742249904.468968
0.31000000000000005,0.21500000000000008,0.3799999999999999,-0.039059999999999984,-0.03355999999999992,0.015260000000000051,0.6400000000000001,-0.38,0.030000000000000027,-0.005240000000000022,-0.026120000000000032,0.0040199999999999125,1742249904.572588
0.2650000000000001,0.1299999999999999,0.20999999999999996,-0.007080000000000086,-0.001960000000000073,-0.0034199999999999786,0.41500000000000004,-0.30499999999999994,-0.09999999999999998,-0.036739999999999995,0.036619999999999875,0.05699999999999994,1742249904.691461
0.345,0.1200000000000001,0.33000000000000007,-0.03917999999999999,-0.015139999999999931,0.043339999999999934,0.22999999999999998,-0.24,-0.30000000000000004,0.04455999999999993,0.10352000000000006,0.05078000000000005,1742249904.80899
0.41500000000000004,0.2250000000000001,0.43999999999999995,0.03723999999999994,-0.06934000000000007,0.01208000000000009,0.2549999999999999,-0.18999999999999995,-0.31499999999999995,-0.03198000000000001,-0.031379999999999963,0.00537999999999994,1742249904.9146938
0.355,0.14500000000000002,0.3900000000000001,-0.0013400000000000079,-0.02513999999999994,-0.00036000000000002697,0.3400000000000001,-0.365,-0.07999999999999996,0.15111999999999992,-0.28137999999999996,-0.11060000000000003,1742249905.0286632
0.28,0.16500000000000004,0.32499999999999996,0.01648000000000005,0.07347999999999999,-0.03064,0.5249999999999999,-0.25,-0.030000000000000027,0.05896000000000012,0.07359999999999989,0.01746000000000003,1742249905.149742
0.3500000000000001,0.14500000000000002,0.31499999999999995,0.24853999999999998,0.02540000000000009,-0.04944000000000004,0.385,-0.245,-0.17000000000000004,0.04638000000000009,0.1236600000000001,0.03394000000000008,1742249905.256557
0.30000000000000004,0.21999999999999997,0.3599999999999999,-0.07165999999999995,-0.08508000000000004,0.035519999999999996,0.20500000000000007,-0.16500000000000004,-0.4099999999999999,-0.03370000000000006,0.04735999999999985,0.05333999999999994,1742249905.370646
0.3700000000000001,0.05499999999999994,0.48,0.014899999999999913,0.01208000000000009,-0.01966000000000001,0.29499999999999993,-0.24,-0.16000000000000003,-0.057620000000000005,-0.09192,-0.015619999999999967,1742249905.488203
0.31000000000000005,0.14500000000000002,0.3700000000000001,-0.07299999999999995,0.058599999999999985,-0.03527999999999998,0.6200000000000001,-0.265,0.07499999999999996,-0.09192,-0.055419999999999914,0.02198000000000011,1742249905.608472
0.29000000000000004,0.135,0.20500000000000007,0.01648000000000005,0.053220000000000045,-0.029299999999999993,0.44500000000000006,-0.2849999999999999,-0.07000000000000006,-0.006220000000000003,0.10155999999999987,0.04821999999999993,1742249905.713263
0.32000000000000006,0.08000000000000007,0.29000000000000004,-0.08410000000000006,-0.054440000000000044,0.013679999999999914,0.2749999999999999,-0.235,-0.275,-0.032480000000000064,0.11107999999999985,0.04455999999999993,1742249905.8291042
0.375,0.135,0.42999999999999994,-0.01636000000000004,-0.005499999999999949,-0.02076,0.30000000000000004,-0.22999999999999998,-0.29499999999999993,0.0047600000000000975,-0.03527999999999998,-0.040039999999999965,1742249905.94883
0.405,0.1499999999999999,0.3700000000000001,-0.026619999999999977,-0.0023200000000000998,0.01305999999999985,0.33499999999999996,-0.245,-0.19999999999999996,0.01990000000000003,-0.1764,-0.035760000000000014,1742249906.054673
0.29499999999999993,0.21500000000000008,0.3599999999999999,0.009160000000000057,0.06128,-0.049919999999999964,0.595,-0.22499999999999998,0.050000000000000044,-0.016960000000000086,0.026739999999999986,0.09373999999999993,1742249906.1708128
0.3999999999999999,0.06499999999999995,0.2450000000000001,0.08142000000000005,-0.0015800000000000258,-0.07128000000000001,0.375,-0.255,-0.050000000000000044,0.07214000000000009,0.11438000000000015,0.018320000000000114,1742249906.289046
0.32000000000000006,0.1100000000000001,0.2549999999999999,-0.13024000000000002,-0.09239999999999993,0.06152000000000002,0.23499999999999988,-0.14500000000000002,-0.36,0.04370000000000007,0.10668000000000011,0.035760000000000014,1742249906.396518
0.4650000000000001,0.08499999999999996,0.4750000000000001,0.025020000000000042,-0.059940000000000104,-0.013299999999999979,0.29499999999999993,-0.16500000000000004,-0.255,-0.035519999999999996,-0.06408000000000003,0.0317400000000001,1742249906.510604
0.33499999999999996,0.10000000000000009,0.3999999999999999,-0.09644000000000008,-0.011840000000000073,-0.039059999999999984,0.565,-0.18999999999999995,-0.030000000000000027,-0.1583199999999999,-0.08594000000000002,0.045420000000000016,1742249906.6285398
0.29499999999999993,0.09000000000000008,0.22999999999999998,-0.023799999999999932,0.007560000000000011,-0.01758000000000004,0.5550000000000002,-0.18999999999999995,-0.12,0.07457999999999987,0.05848000000000009,-0.009519999999999973,1742249906.748265
0.365,-0.050000000000000044,0.27,0.13928000000000007,0.020999999999999908,0.04711999999999983,0.26,-0.21999999999999997,-0.2849999999999999,0.12744,0.11146000000000011,0.007200000000000095,1742249906.8524108
0.31499999999999995,0.16500000000000004,0.49,0.037839999999999874,-0.05908000000000002,-0.009519999999999973,0.21999999999999997,-0.125,-0.42500000000000004,-0.09998000000000007,0.01966000000000001,-0.040039999999999965,1742249906.969915
0.3400000000000001,0.1100000000000001,0.49,-0.033440000000000025,0.0307599999999999,0.04614000000000007,0.2849999999999999,-0.17999999999999994,-0.26,-0.07591999999999999,-0.12890000000000001,-0.11548000000000003,1742249907.088143
0.3500000000000001,0.135,0.31499999999999995,-0.08960000000000001,0.06884000000000001,0.0023200000000000998,0.69,-0.375,0.1299999999999999,-0.05188000000000004,0.054319999999999924,0.0019599999999999618,1742249907.194413
0.30499999999999994,0.11499999999999999,0.1200000000000001,-0.09522000000000008,0.03442000000000012,-0.005240000000000022,0.3999999999999999,-0.31000000000000005,-0.11499999999999999,0.052240000000000064,0.11792000000000002,0.03649999999999998,1742249907.309064
0.2450000000000001,0.19999999999999996,0.28,-0.1322000000000001,-0.05615999999999999,0.09179999999999988,0.08499999999999996,-0.17500000000000004,-0.43999999999999995,0.00770000000000004,0.11170000000000013,0.09959999999999991,1742249907.428459
0.4849999999999999,0.05499999999999994,0.55,0.011719999999999953,-0.08153999999999995,-0.027700000000000058,0.2250000000000001,-0.14500000000000002,-0.36,0.0037799999999998946,-0.14770000000000005,-0.08105999999999991,1742249907.536618
0.345,0.18999999999999995,0.6699999999999999,-0.01746000000000003,0.0042800000000000615,-0.0039000000000000146,0.825,-0.15500000000000003,-0.07999999999999996,-0.1174400000000001,-0.04810000000000003,0.016960000000000086,1742258937.511389
0.135,0.21999999999999997,0.3500000000000001,-0.12696000000000007,0.07690000000000019,0.04479999999999995,0.33499999999999996,-0.12,-0.31499999999999995,0.05518000000000001,0.19823999999999997,0.04370000000000007,1742258937.6252108
0.05499999999999994,0.21500000000000008,0.16999999999999993,0.04723999999999995,-0.001960000000000073,-0.01208000000000009,0.040000000000000036,-0.0050000000000000044,-0.555,-0.03527999999999998,-0.021120000000000028,0.10218000000000016,1742258937.7422452
0.17999999999999994,0.2650000000000001,0.52,0.13805999999999985,-0.054440000000000044,-0.024660000000000015,0.28,-0.14500000000000002,-0.18999999999999995,-0.09350000000000003,-0.11987999999999999,-0.09338000000000002,1742258937.853516
0.345,0.10000000000000009,0.71,-0.09704000000000002,0.043099999999999916,-0.021240000000000037,0.7450000000000001,-0.04500000000000004,-0.06000000000000005,-0.046760000000000024,0.05078000000000005,0.07496000000000014,1742258937.967329
0.14000000000000012,-0.11499999999999999,0.1100000000000001,-0.050779999999999936,0.07142000000000004,0.024540000000000006,0.33000000000000007,-0.07999999999999996,-0.33000000000000007,0.03370000000000006,0.11340000000000017,0.054319999999999924,1742258938.082571
0.06000000000000005,0.21500000000000008,0.2450000000000001,-0.04064000000000001,-0.028799999999999937,0.008059999999999956,0.18500000000000005,0.014999999999999902,-0.41999999999999993,0.04370000000000007,-0.05286000000000002,-0.05786000000000002,1742258938.195262
0.29499999999999993,0.22999999999999998,0.655,0.02648000000000006,-0.06541999999999992,-0.04858000000000007,0.78,-0.21499999999999997,0.19999999999999996,-0.06225999999999998,-0.10974000000000006,-0.04358000000000006,1742258938.3094132
0.28,0.20500000000000007,0.405,-0.04625999999999997,0.04248000000000007,-0.03394000000000008,0.3500000000000001,-0.17500000000000004,-0.14500000000000002,0.0036599999999999966,0.07020000000000004,0.04614000000000007,1742258938.423177
0.04499999999999993,0.20500000000000007,0.135,0.004999999999999893,-0.1751800000000001,0.02868000000000004,0.07499999999999996,-0.030000000000000027,-0.545,0.02624000000000004,0.06529999999999991,0.06591999999999998,1742258938.537312
0.09000000000000008,0.2450000000000001,0.4950000000000001,-0.0025599999999998957,-0.04174,-0.05286000000000002,0.2250000000000001,-0.10999999999999999,-0.345,-0.11572000000000005,-0.11572000000000005,-0.06872,1742258938.651419
0.30000000000000004,0.1299999999999999,0.675,0.04272000000000009,0.0008600000000000829,-0.012580000000000036,0.8050000000000002,-0.07499999999999996,-0.21999999999999997,-0.05920000000000003,-0.011600000000000055,0.05848000000000009,1742258938.7654212
0.1299999999999999,0.21500000000000008,0.3799999999999999,-0.10096000000000005,0.06188000000000016,-0.020499999999999963,0.3700000000000001,-0.13,-0.375,-0.02746000000000004,0.09533999999999998,0.10546000000000011,1742258938.881364
0.07499999999999996,0.17999999999999994,0.2549999999999999,0.05726000000000009,-0.03625999999999996,-0.009279999999999955,0.03499999999999992,0.10499999999999998,-0.65,0.01415999999999995,0.040039999999999853,0.03614000000000006,1742258938.993207
0.21500000000000008,0.16999999999999993,0.43999999999999995,0.06788000000000016,-0.10509999999999997,0.012460000000000138,0.395,0.10499999999999998,-0.26,-0.005739999999999967,-0.10655999999999999,-0.13270000000000004,1742258939.1072772
0.20999999999999996,0.125,0.6400000000000001,-0.009639999999999982,0.10277999999999987,0.015139999999999931,0.6000000000000001,-0.08499999999999996,-0.18500000000000005,-0.00537999999999994,-0.006340000000000012,0.03442000000000012,1742258939.223271
0.07000000000000006,0.1200000000000001,0.355,-0.022820000000000062,0.04638000000000009,0.04956000000000005,0.19999999999999996,-0.08499999999999996,-0.41500000000000004,0.1177999999999999,0.1200000000000001,0.007079999999999975,1742258939.335215
0.17999999999999994,0.135,0.29000000000000004,-0.07862000000000002,-0.025880000000000014,0.026859999999999884,0.1200000000000001,-0.020000000000000018,-0.63,0.048960000000000115,-0.09558,-0.05932000000000004,1742258939.449318
0.29000000000000004,0.16999999999999993,0.7450000000000001,0.036739999999999995,-0.06128,-0.013679999999999914,0.635,-0.07999999999999996,-0.06000000000000005,0.06396000000000002,-0.1272000000000001,-0.10302,1742258939.5633512
0.1200000000000001,0.18500000000000005,0.45999999999999996,-0.016720000000000068,0.07044000000000006,0.0006200000000000649,0.4849999999999999,-0.16000000000000003,-0.08999999999999997,0.007319999999999993,0.10277999999999987,0.0,1742258939.679415
0.05499999999999994,0.16999999999999993,0.18999999999999995,-0.11339999999999995,-0.010499999999999954,0.044319999999999915,0.125,-0.050000000000000044,-0.54,-0.021720000000000073,0.10851999999999995,0.07323999999999997,1742258939.7912152
0.10000000000000009,0.29000000000000004,0.5049999999999999,0.03259999999999996,-0.10560000000000003,-0.03272000000000008,0.20999999999999996,-0.030000000000000027,-0.45999999999999996,-0.01427999999999996,-0.19434000000000007,-0.08008000000000004,1742258939.905421
0.30499999999999994,0.08000000000000007,0.5449999999999999,0.03503999999999996,-0.03173999999999999,0.00865999999999989,0.6499999999999999,-0.17000000000000004,-0.020000000000000018,0.020620000000000083,-0.12670000000000003,-0.10375999999999996,1742258940.0194728
0.1100000000000001,0.17500000000000004,0.41500000000000004,-0.04394000000000009,0.12158000000000002,0.040039999999999853,0.49,-0.14500000000000002,-0.07999999999999996,-0.059820000000000095,0.16296,0.11253999999999986,1742258940.133236
0.10499999999999998,0.27,0.20500000000000007,-0.03186,-0.0041599999999999415,0.008299999999999974,0.07000000000000006,-0.06499999999999995,-0.545,0.060799999999999965,0.12817999999999996,-0.018059999999999965,1742258940.247222
0.17999999999999994,0.125,0.4849999999999999,0.05261999999999989,-0.14427999999999996,-0.04064000000000001,0.31499999999999995,-0.135,-0.14500000000000002,-0.06359999999999999,-0.16637999999999997,-0.0650599999999999,1742258940.364631
0.22999999999999998,0.050000000000000044,0.605,0.009640000000000093,-0.02185999999999999,-0.01097999999999999,0.655,-0.06000000000000005,-0.015000000000000013,-0.04834000000000005,-0.09851999999999994,0.020019999999999927,1742258940.475313
0.14500000000000002,0.17999999999999994,0.395,-0.07665999999999995,0.12464000000000008,0.0034199999999999786,0.32000000000000006,-0.07000000000000006,-0.3400000000000001,0.03614000000000006,0.1788399999999999,0.032480000000000064,1742258940.589136
0.14500000000000002,0.22999999999999998,0.2549999999999999,0.06494,-0.0024400000000001087,-0.020379999999999954,0.10000000000000009,0.014999999999999902,-0.535,0.0023200000000000998,0.01195999999999997,-0.0042799999999999505,1742258940.704308
0.18999999999999995,0.15500000000000003,0.625,0.10070000000000001,-0.06323999999999996,-0.04565999999999992,0.43500000000000005,-0.06499999999999995,-0.275,-0.035760000000000014,-0.11414000000000002,-0.019399999999999973,1742258940.820852
0.19500000000000006,0.10499999999999998,0.53,-0.03173999999999999,0.04503999999999997,0.012939999999999952,0.55,-0.020000000000000018,-0.25,-0.033320000000000016,-0.020259999999999945,0.08460000000000001,1742258940.931349
0.11499999999999999,0.2549999999999999,0.355,-0.042240000000000055,0.07177999999999995,0.0295399999999999,0.25,-0.16000000000000003,-0.43999999999999995,0.08081999999999989,0.14440000000000008,-0.011600000000000055,1742258941.045197
0.17999999999999994,0.19999999999999996,0.28,0.009279999999999955,-0.06922000000000006,-0.034540000000000015,0.20999999999999996,-0.03500000000000003,-0.42500000000000004,0.05164000000000013,0.04908000000000001,-0.07031999999999994,1742258941.164799
0.20500000000000007,0.04499999999999993,0.635,-0.057740000000000014,-0.07850000000000001,-0.01758000000000004,0.51,-0.025000000000000022,-0.17999999999999994,-0.012700000000000045,-0.06041999999999992,-0.07653999999999994,1742258941.27343
0.18500000000000005,0.09000000000000008,0.5049999999999999,-0.04700000000000004,0.062140000000000084,0.033320000000000016,0.5150000000000001,-0.14,-0.14,-0.05249999999999999,0.055299999999999905,0.09533999999999998,1742258941.387245
0.10499999999999998,0.25,0.31499999999999995,-0.028200000000000003,0.06407999999999991,0.03638000000000008,0.10000000000000009,-0.09999999999999998,-0.54,0.041380000000000194,0.13892000000000015,0.07068000000000008,1742258941.5076091
0.14500000000000002,0.27,0.31000000000000005,-0.007320000000000104,-0.1814,-0.03515999999999997,0.14000000000000012,0.014999999999999902,-0.515,0.012199999999999989,-0.13427999999999995,-0.06347999999999998,1742258941.61538
0.20500000000000007,0.04499999999999993,0.575,0.03442000000000012,0.005120000000000013,-0.0018400000000000638,0.6000000000000001,-0.07000000000000006,-0.17500000000000004,-0.02061999999999997,-0.040899999999999936,-0.0029199999999999227,1742258941.729345
0.09000000000000008,0.125,0.4950000000000001,-0.042120000000000046,0.059819999999999984,0.030999999999999917,0.395,-0.08999999999999997,-0.29499999999999993,0.016240000000000032,0.13916000000000017,0.04516000000000009,1742258941.844272
0.050000000000000044,0.23499999999999988,0.32499999999999996,-0.043220000000000036,-0.049799999999999955,0.006599999999999939,0.09000000000000008,-0.015000000000000013,-0.5,0.02733999999999992,0.13549999999999995,0.031239999999999934,1742258941.957214
0.10000000000000009,0.1499999999999999,0.5,0.07909999999999995,-0.12915999999999994,-0.029899999999999927,0.09499999999999997,0.050000000000000044,-0.585,-0.02076,-0.21326,-0.0686,1742258942.071436
0.1499999999999999,0.10000000000000009,0.53,-0.02061999999999997,-0.022460000000000035,0.01868000000000003,0.4950000000000001,-0.08999999999999997,-0.32499999999999996,0.016119999999999912,-0.11363999999999996,-0.06579999999999997,1742258942.185338
-0.06499999999999995,0.14000000000000012,0.625,-0.010259999999999936,0.040159999999999973,0.02320000000000011,0.41999999999999993,-0.06499999999999995,-0.3400000000000001,0.07323999999999997,0.12792000000000003,-0.010000000000000009,1742258942.305046
0.05499999999999994,0.18999999999999995,0.3500000000000001,0.06835999999999998,0.06640000000000001,0.016119999999999912,0.07499999999999996,0.020000000000000018,-0.515,0.0015800000000001369,0.029900000000000038,0.08105999999999991,1742258942.4131331
0.09000000000000008,0.14500000000000002,0.3500000000000001,0.023320000000000007,-0.16700000000000004,-0.062019999999999964,0.15500000000000003,0.040000000000000036,-0.395,-0.06922000000000006,-0.36474000000000006,0.0024399999999999977,1742258942.529046
0.1299999999999999,0.10000000000000009,0.595,-0.07629999999999992,-0.06225999999999998,-0.0075599999999999,0.615,-0.04500000000000004,-0.30499999999999994,0.08435999999999999,-0.17149999999999999,-0.10205999999999993,1742258942.645054
0.06000000000000005,0.15500000000000003,0.5049999999999999,-0.09838000000000002,0.10742000000000007,0.013299999999999867,0.5,-0.03500000000000003,-0.14,-0.09558,0.19957999999999987,0.10265999999999997,1742258942.755195
0.15999999999999992,0.24,0.2650000000000001,0.027220000000000022,0.07702000000000009,-0.008919999999999928,0.19500000000000006,-0.025000000000000022,-0.485,0.04078000000000004,0.1189,0.009759999999999991,1742258942.86917
0.09000000000000008,0.16500000000000004,0.4849999999999999,0.025519999999999987,-0.13439999999999996,-0.05274000000000001,0.27,0.04499999999999993,-0.53,0.056640000000000024,-0.18431999999999993,-0.09008000000000005,1742258942.987732
0.19999999999999996,0.02499999999999991,0.595,0.033560000000000034,-0.06041999999999992,-0.0031799999999999606,0.5150000000000001,-0.09999999999999998,-0.20999999999999996,0.01966000000000001,0.04394000000000009,-0.06872,1742258943.097277
0.004999999999999893,0.14000000000000012,0.5350000000000001,-0.010000000000000009,0.15490000000000004,0.10438000000000014,0.3599999999999999,-0.07499999999999996,-0.38,-0.007200000000000095,0.13928000000000007,0.09606000000000003,1742258943.211137
0.06000000000000005,0.2650000000000001,0.2250000000000001,-0.04382000000000008,-0.029179999999999984,0.022340000000000027,0.21500000000000008,0.03499999999999992,-0.49,0.05066000000000015,0.04797999999999991,0.006839999999999957,1742258943.326169
0.135,0.06000000000000005,0.595,0.0018400000000000638,-0.046640000000000015,-0.03465999999999991,0.22999999999999998,0.06000000000000005,-0.5,0.07457999999999987,-0.14903999999999995,-0.14439999999999997,1742258943.4454389
0.135,0.14000000000000012,0.5800000000000001,-0.09911999999999999,-0.11108000000000007,-0.01746000000000003,0.4650000000000001,-0.020000000000000018,-0.245,-0.016960000000000086,-0.09545999999999999,-0.03527999999999998,1742258943.553335
0.1200000000000001,0.135,0.405,-0.02294000000000007,0.10206000000000004,0.04188000000000014,0.52,-0.10999999999999999,-0.12,-0.09144000000000008,0.1730999999999998,0.10949999999999993,1742258943.667159
0.08000000000000007,0.2250000000000001,0.3599999999999999,0.02611999999999992,0.15355999999999992,0.005619999999999958,0.2549999999999999,-0.050000000000000044,-0.505,-0.05176000000000003,0.1236600000000001,0.17931999999999992,1742258943.786058
0.10499999999999998,0.21999999999999997,0.30000000000000004,0.04809999999999981,-0.1543,-0.05676000000000003,0.15500000000000003,0.10499999999999998,-0.565,0.09020000000000006,-0.1704199999999999,-0.08094000000000001,1742258943.8951628
0.125,0.06499999999999995,0.52,-0.047719999999999985,-0.16822000000000004,-0.043220000000000036,0.29499999999999993,-0.10499999999999998,-0.15500000000000003,-0.022460000000000035,-0.20629999999999993,-0.050779999999999936,1742258944.009342
0.07499999999999996,0.15500000000000003,0.595,0.03210000000000002,0.11743999999999999,-0.005499999999999949,0.72,-0.030000000000000027,0.040000000000000036,0.019039999999999946,0.01110000000000011,-0.016960000000000086,1742258944.126583
0.10000000000000009,0.17999999999999994,0.41999999999999993,-0.05822000000000005,0.14379999999999993,0.048819999999999864,0.385,0.08000000000000007,-0.4099999999999999,-0.010739999999999972,0.1663800000000002,0.025760000000000005,1742258944.237111
0.11499999999999999,0.18500000000000005,0.2250000000000001,0.03723999999999994,-0.026980000000000004,-0.011240000000000028,0.135,-0.07499999999999996,-0.27,-0.10997999999999997,0.17542000000000013,0.11194000000000015,1742258944.351161
0.18999999999999995,0.19999999999999996,0.585,0.15026000000000006,0.08325999999999989,-0.11181999999999992,0.2849999999999999,-0.08999999999999997,-0.21499999999999997,-0.08374000000000004,-0.14868000000000003,-0.04039999999999999,1742258944.4681978
0.1200000000000001,0.135,0.675,0.10644000000000009,-0.008179999999999965,-0.049799999999999955,0.605,-0.08499999999999996,-0.10999999999999999,0.007200000000000095,-0.05053999999999992,-0.04394000000000009,1742258944.5867698
0.1299999999999999,0.11499999999999999,0.41500000000000004,-0.029899999999999927,0.11485999999999996,0.026000000000000023,0.45500000000000007,-0.06000000000000005,-0.24,-0.05176000000000003,0.18836000000000008,0.04968000000000017,1742258944.693175
0.10000000000000009,0.20500000000000007,0.30000000000000004,-0.029179999999999984,0.02075999999999989,0.0283199999999999,0.15500000000000003,-0.020000000000000018,-0.515,-0.042240000000000055,0.043339999999999934,0.037719999999999976,1742258944.807094
0.1299999999999999,0.14000000000000012,0.42999999999999994,0.09167999999999998,-0.15025999999999995,0.0012199999999999989,0.30499999999999994,-0.22499999999999998,-0.18999999999999995,0.010739999999999972,-0.19041999999999992,-0.16906,1742258944.926278
0.21999999999999997,0.07499999999999996,0.6000000000000001,0.04625999999999997,-0.03515999999999997,0.006960000000000077,0.6400000000000001,-0.08999999999999997,0.15999999999999992,-0.08326,0.005239999999999911,0.05761999999999978,1742258945.034982
0.125,0.16500000000000004,0.49,-0.06140000000000001,0.22595999999999994,0.023679999999999923,0.44999999999999996,-0.06000000000000005,-0.255,-0.10462000000000005,0.1604000000000001,0.11450000000000005,1742258945.1481578
0.10000000000000009,0.18999999999999995,0.24,-0.04064000000000001,-0.05065999999999993,-0.022700000000000053,-0.015000000000000013,0.07000000000000006,-0.775,0.11925999999999992,0.05738000000000021,-0.12829999999999997,1742258945.266994
0.15500000000000003,0.1299999999999999,0.44500000000000006,0.08606000000000003,-0.10705999999999993,-0.03649999999999998,0.3599999999999999,0.014999999999999902,-0.275,-0.014639999999999986,-0.17577999999999994,-0.03210000000000002,1742258945.376157
0.16500000000000004,0.19999999999999996,0.7349999999999999,-0.03149999999999997,0.012580000000000036,-0.0030599999999999516,0.675,-0.10499999999999998,0.03499999999999992,-0.09362000000000004,0.09729999999999994,0.11853999999999987,1742258945.490044
0.125,0.2450000000000001,0.30499999999999994,-0.14660000000000006,0.17077999999999993,0.012580000000000036,0.20500000000000007,0.050000000000000044,-0.48,0.041140000000000176,0.1533199999999999,-0.00537999999999994,1742258945.607083
0.135,0.1499999999999999,0.10499999999999998,0.053220000000000045,-0.13636000000000004,-0.01636000000000004,0.03499999999999992,0.09499999999999997,-0.745,-0.030279999999999974,0.07153999999999994,0.006460000000000132,1742258945.727592
0.18500000000000005,0.22999999999999998,0.5699999999999998,0.18384,-0.022460000000000035,-0.10950000000000004,0.53,-0.14500000000000002,-0.15000000000000002,-0.07275999999999994,-0.14454,-0.05235999999999996,1742258945.832382
0.11499999999999999,0.1299999999999999,0.6000000000000001,-0.08557999999999999,0.007940000000000058,0.06788000000000016,0.575,-0.12,-0.06000000000000005,-0.034540000000000015,0.07850000000000001,0.05018000000000011,1742258945.947992
0.10000000000000009,0.2250000000000001,0.30499999999999994,-0.13672000000000006,0.11021999999999998,0.029059999999999864,0.08499999999999996,0.040000000000000036,-0.57,0.09007999999999994,0.11914000000000002,-0.042240000000000055,1742258946.0672178
0.08499999999999996,0.1299999999999999,0.2650000000000001,-0.0029199999999999227,-0.14281999999999995,0.018179999999999863,0.10499999999999998,0.02499999999999991,-0.61,0.02611999999999992,-0.2685599999999999,-0.1596599999999999,1742258946.174096
0.2250000000000001,0.10499999999999998,0.615,0.09411999999999998,-0.02624000000000004,0.03405999999999998,0.69,-0.20999999999999996,0.18500000000000005,-0.0024400000000001087,-0.19018000000000002,-0.06128,1742258946.288194
0.21500000000000008,0.08499999999999996,0.5249999999999999,-0.08520000000000005,0.18981999999999988,0.06494,0.33000000000000007,-0.10999999999999999,-0.33499999999999996,-0.014399999999999968,0.24316000000000004,0.054079999999999906,1742258946.407215
-0.04500000000000004,0.32000000000000006,0.10000000000000009,0.041380000000000194,0.0329600000000001,0.033440000000000136,-0.010000000000000009,0.0,-0.71,-0.02403999999999995,0.056640000000000024,0.0030599999999998406,1742258946.516203
0.14000000000000012,0.17500000000000004,0.595,0.12158000000000002,-0.07335999999999998,-0.04137999999999997,0.4750000000000001,-0.08499999999999996,-0.17000000000000004,-0.10131999999999997,-0.09863999999999995,-0.006099999999999994,1742258946.630281
0.15999999999999992,0.24,0.6499999999999999,-0.026000000000000023,-0.008419999999999983,0.00035999999999991594,0.615,-0.08499999999999996,-0.09499999999999997,-0.06359999999999999,-0.041139999999999954,0.07385999999999981,1742258946.747457
0.0,0.30000000000000004,0.375,-0.16870000000000007,0.0966800000000001,0.04296000000000011,0.31000000000000005,-0.11499999999999999,-0.39,-0.009399999999999964,0.17333999999999983,0.04503999999999997,1742258946.868048
0.03499999999999992,0.32499999999999996,0.2849999999999999,-0.015139999999999931,-0.006840000000000068,-0.03698000000000001,0.040000000000000036,0.0,-0.755,0.027579999999999938,-0.05113999999999996,-0.02198,1742258946.9721768
0.1299999999999999,0.2849999999999999,0.4950000000000001,0.02429999999999999,-0.11536000000000002,-0.005619999999999958,0.44500000000000006,-0.09999999999999998,-0.14500000000000002,0.060920000000000085,-0.17125999999999997,-0.04822000000000004,1742258947.0883589
0.14500000000000002,0.22999999999999998,0.6800000000000002,-0.016720000000000068,0.09105999999999992,0.035640000000000116,0.5350000000000001,-0.17500000000000004,-0.09499999999999997,-0.06481999999999999,0.10424000000000011,0.05383999999999989,1742258947.208248
0.010000000000000009,0.3400000000000001,0.19999999999999996,-0.16236000000000006,0.09606000000000003,0.05357999999999996,0.17500000000000004,-0.08499999999999996,-0.355,0.07496000000000014,0.1372,-0.03051999999999999,1742258947.314233
0.03499999999999992,0.3500000000000001,0.10000000000000009,0.12071999999999994,-0.06994,-0.024540000000000006,0.1499999999999999,-0.135,-0.52,0.07874000000000003,-0.15368000000000004,-0.08520000000000005,1742258947.428201
0.19500000000000006,0.29000000000000004,0.6499999999999999,0.0006200000000000649,-0.12818000000000007,-0.022340000000000027,0.655,-0.22499999999999998,0.08000000000000007,0.016960000000000086,-0.11608000000000007,-0.04527999999999999,1742258947.54763
0.1299999999999999,0.24,0.4650000000000001,-0.08362000000000003,0.11816000000000004,-0.020379999999999954,0.43500000000000005,-0.135,-0.21999999999999997,-0.05944000000000005,0.2447600000000001,0.08679999999999999,1742258947.6561558
0.020000000000000018,0.26,0.14500000000000002,0.009640000000000093,0.04381999999999997,0.013919999999999932,0.07499999999999996,-0.05500000000000005,-0.59,-0.060919999999999974,0.04492000000000007,0.0025599999999998957,1742258947.770252
0.04499999999999993,0.28,0.29499999999999993,0.08007999999999993,-0.15527999999999997,-0.019279999999999964,0.17500000000000004,-0.265,-0.475,0.0043999999999999595,-0.2649,-0.10486000000000006,1742258947.888374
0.1499999999999999,0.10000000000000009,0.6200000000000001,-0.1018,-0.15246000000000004,0.07811999999999997,0.74,-0.19999999999999996,0.2450000000000001,-0.020139999999999936,-0.06286000000000003,0.05333999999999994,1742258947.998081
0.09000000000000008,0.33499999999999996,0.44500000000000006,-0.14160000000000006,0.08826,0.08081999999999989,0.3900000000000001,-0.235,-0.15000000000000002,0.16857999999999995,0.3369200000000001,-0.05944000000000005,1742258948.1122591
-0.07999999999999996,0.3900000000000001,0.135,-0.014399999999999968,0.13683999999999985,0.0007399999999999629,0.014999999999999902,-0.010000000000000009,-0.55,-0.08165999999999995,0.15246000000000004,0.20544000000000007,1742258948.228584
0.040000000000000036,0.30000000000000004,0.3599999999999999,0.20996000000000015,-0.1593,-0.08435999999999999,0.19500000000000006,-0.07000000000000006,-0.365,-0.025399999999999978,-0.21998000000000006,-0.09911999999999999,1742258948.349049
0.19500000000000006,0.17999999999999994,0.665,0.06835999999999998,-0.0675,0.0037799999999998946,0.7949999999999999,-0.17500000000000004,-0.05500000000000005,-0.10462000000000005,-0.032220000000000026,0.0966800000000001,1742258948.454172
0.02499999999999991,0.20999999999999996,0.45999999999999996,-0.08984000000000003,0.1038800000000002,0.04078000000000004,0.32499999999999996,-0.09499999999999997,-0.3400000000000001,0.07567999999999997,0.16711999999999994,-0.03260000000000007,1742258948.568253
-0.030000000000000027,0.19500000000000006,0.16500000000000004,-0.03088000000000002,0.012580000000000036,-0.04125999999999996,-0.09499999999999997,-0.04500000000000004,-0.665,0.013800000000000034,0.07335999999999987,-0.0046399999999999775,1742258948.689994
0.1200000000000001,0.15999999999999992,0.54,0.07800000000000007,-0.14588,-0.001960000000000073,0.4950000000000001,-0.06499999999999995,-0.37,0.02429999999999999,-0.1754199999999999,-0.049919999999999964,1742258948.7971451
0.17500000000000004,0.20500000000000007,0.5800000000000001,-0.06677999999999995,-0.0029199999999999227,-0.008179999999999965,0.615,-0.07999999999999996,-0.040000000000000036,-0.09423999999999999,-0.09374000000000005,0.11621999999999999,1742258948.9111328
0.030000000000000027,0.30000000000000004,0.3599999999999999,-0.21838000000000002,0.13598,-0.006340000000000012,0.2849999999999999,-0.16500000000000004,-0.365,0.08948,0.006839999999999957,-0.029899999999999927,1742258949.03211
0.07000000000000006,0.2450000000000001,0.16500000000000004,0.07496000000000014,-0.01966000000000001,-0.05603999999999998,0.15999999999999992,-0.010000000000000009,-0.64,0.09644000000000008,-0.1139,-0.05358000000000007,1742258949.149208
0.20500000000000007,0.08000000000000007,0.43999999999999995,0.4042999999999999,0.06396000000000002,-0.10668000000000011,0.49,-0.07499999999999996,-0.35,-0.016000000000000014,-0.11303999999999992,-0.07701999999999998,1742258949.253188
0.17999999999999994,0.10000000000000009,0.635,-0.005979999999999985,0.10985999999999985,0.03320000000000012,0.5899999999999999,-0.11499999999999999,-0.050000000000000044,0.016000000000000014,0.08983999999999992,0.022460000000000147,1742258949.368853
0.1499999999999999,0.23499999999999988,0.26,-0.07811999999999997,0.051140000000000185,0.03942000000000001,0.17500000000000004,-0.125,-0.41500000000000004,0.023800000000000043,0.13440000000000007,0.07323999999999997,1742258949.490857
0.1499999999999999,0.26,0.16500000000000004,0.03394000000000008,-0.06323999999999996,0.007440000000000113,0.21999999999999997,0.020000000000000018,-0.51,0.062019999999999964,-0.21472000000000002,-0.061880000000000046,1742258949.595038
0.16999999999999993,0.2450000000000001,0.74,0.005239999999999911,-0.16381999999999997,-0.02501999999999993,0.53,-0.17500000000000004,0.05499999999999994,-0.17334000000000005,-0.06787999999999994,-0.033320000000000016,1742258949.709143
0.18500000000000005,0.08000000000000007,0.4950000000000001,0.06616,0.20472,0.03807999999999989,0.5550000000000002,-0.08499999999999996,-0.09999999999999998,-0.048960000000000004,0.14623999999999993,0.10753999999999997,1742258949.828776
0.07499999999999996,0.27,0.1499999999999999,0.0042800000000000615,0.06335999999999986,0.07690000000000019,0.18500000000000005,-0.13,-0.615,-0.052000000000000046,0.07481999999999989,0.054319999999999924,1742258949.937027
0.16500000000000004,0.355,0.42500000000000004,-0.11474000000000006,-0.17872,-0.03601999999999994,0.24,-0.15000000000000002,-0.275,0.013539999999999885,-0.11120000000000008,-0.10424,1742258950.051108
0.16999999999999993,0.19999999999999996,0.74,0.08484000000000003,-0.0393,-0.047599999999999976,0.6499999999999999,-0.14500000000000002,0.0,0.03845999999999994,0.08216000000000001,-0.0045199999999999685,1742258950.168128
0.14500000000000002,0.21500000000000008,0.42999999999999994,-0.028679999999999928,0.09007999999999994,0.025020000000000042,0.45500000000000007,-0.16000000000000003,-0.050000000000000044,-0.04700000000000004,0.2033600000000002,0.09522000000000008,1742258950.288503
0.004999999999999893,0.30499999999999994,0.19999999999999996,-0.0025599999999998957,0.019160000000000066,0.0295399999999999,0.1299999999999999,-0.040000000000000036,-0.605,0.013919999999999932,0.04090000000000016,0.009039999999999937,1742258950.392926
0.15500000000000003,0.16500000000000004,0.31000000000000005,0.012820000000000054,-0.16381999999999997,-0.0037800000000000056,0.24,-0.18999999999999995,-0.18999999999999995,-0.04736000000000007,-0.14270000000000005,-0.12365999999999999,1742258950.5118542
0.1499999999999999,0.14000000000000012,0.7349999999999999,0.1373199999999999,-0.04908000000000001,-0.00048000000000003595,0.76,-0.29499999999999993,0.030000000000000027,-0.06713999999999998,-0.07823999999999998,0.011719999999999953,1742258950.629365
0.1100000000000001,0.1499999999999999,0.42999999999999994,-0.018320000000000003,0.13707999999999987,0.04394000000000009,0.42999999999999994,-0.17999999999999994,-0.135,-0.03820000000000001,0.16857999999999995,0.07666000000000017,1742258950.735036
0.08000000000000007,0.2650000000000001,0.2849999999999999,-0.11426000000000003,0.1263399999999999,0.01195999999999997,0.05499999999999994,-0.040000000000000036,-0.705,-0.0009799999999999809,0.018920000000000048,0.11390000000000011,1742258950.8494668
0.18999999999999995,0.18999999999999995,0.3799999999999999,-0.19481999999999988,-0.25854,0.00878000000000001,0.41999999999999993,-0.07999999999999996,-0.07499999999999996,0.025760000000000005,-0.18347999999999998,-0.10815999999999992,1742258950.969955
0.17999999999999994,0.11499999999999999,0.6600000000000001,0.06957999999999998,0.029900000000000038,-0.05700000000000005,0.655,-0.07999999999999996,0.08499999999999996,-0.08299999999999996,-0.005120000000000013,0.03625999999999996,1742258951.077026
0.18999999999999995,0.135,0.375,-0.09144000000000008,0.19897999999999993,0.01966000000000001,0.3500000000000001,-0.135,-0.365,0.001100000000000101,0.23009999999999997,0.08519999999999994,1742258951.19092
0.2250000000000001,0.3799999999999999,0.20999999999999996,-0.2157,-0.06591999999999998,0.019279999999999964,0.31000000000000005,-0.020000000000000018,-0.20999999999999996,0.06042000000000014,0.029059999999999864,0.011600000000000055,1742258951.309268
0.20999999999999996,0.3400000000000001,0.5899999999999999,0.2754000000000001,-0.006099999999999994,-0.06799999999999995,0.53,-0.14,-0.135,0.010739999999999972,-0.11131999999999997,-0.10899999999999999,1742258951.42892
0.2650000000000001,-0.0050000000000000044,0.33499999999999996,0.02171999999999996,-0.011600000000000055,0.05711999999999984,0.605,-0.16500000000000004,-0.03500000000000003,-0.05712000000000006,0.07385999999999981,0.0354000000000001,1742258951.532966
0.20999999999999996,0.1499999999999999,0.3799999999999999,-0.00988,0.14892000000000016,0.03820000000000001,0.23499999999999988,-0.08999999999999997,-0.37,0.023440000000000127,0.2338800000000001,0.11328000000000005,1742258951.649819
0.2250000000000001,0.29499999999999993,0.30499999999999994,0.07433999999999985,-0.051019999999999954,-0.0006199999999999539,0.27,-0.040000000000000036,-0.495,0.10792000000000002,-0.016840000000000077,-0.09129999999999994,1742258951.76868
0.21999999999999997,0.16500000000000004,0.6299999999999999,0.09301999999999988,-0.13770000000000004,-0.07250000000000001,0.625,-0.11499999999999999,-0.16500000000000004,-0.010259999999999936,-0.1596599999999999,-0.05298000000000003,1742258951.875148
0.20500000000000007,0.09499999999999997,0.5,-0.0686,0.0025599999999998957,-0.006960000000000077,0.4650000000000001,-0.10499999999999998,-0.17500000000000004,-0.024540000000000006,0.18713999999999986,0.05468000000000006,1742258951.990432
0.1200000000000001,0.2250000000000001,0.33000000000000007,-0.011960000000000082,0.06591999999999998,0.04956000000000005,0.08000000000000007,-0.030000000000000027,-0.56,-0.07591999999999999,0.07861999999999991,0.10938000000000003,1742258952.108408
0.1200000000000001,0.20999999999999996,0.33000000000000007,-0.035640000000000005,-0.15515999999999996,-0.012820000000000054,0.24,-0.20999999999999996,-0.18999999999999995,-0.10875999999999997,-0.19996000000000003,-0.10705999999999993,1742258952.217928
0.23499999999999988,0.09499999999999997,0.685,0.07678000000000007,-0.03724000000000005,0.0031799999999999606,0.8,-0.15500000000000003,0.135,-0.06884000000000001,-0.02429999999999999,0.0671400000000002,1742258952.3309472
0.08000000000000007,0.2250000000000001,0.48,-0.015020000000000033,0.11461999999999994,0.04150000000000009,0.385,-0.07000000000000006,-0.265,-0.0018400000000000638,0.16846000000000005,0.02210000000000001,1742258952.448874
0.10499999999999998,0.21999999999999997,0.20500000000000007,-0.024540000000000006,0.10265999999999997,-0.0029199999999999227,0.10499999999999998,-0.015000000000000013,-0.61,0.048960000000000115,0.01195999999999997,-0.10131999999999997,1742258952.5686028
0.16500000000000004,0.2450000000000001,0.42999999999999994,0.034540000000000015,-0.12438000000000005,0.0031799999999999606,0.4750000000000001,-0.14,-0.28,0.029179999999999984,-0.12255999999999989,-0.1325599999999999,1742258952.677387
0.2650000000000001,0.11499999999999999,0.615,0.023440000000000127,0.020140000000000047,0.013919999999999932,0.5350000000000001,-0.25,-0.17000000000000004,-0.015139999999999931,0.014639999999999986,0.05920000000000014,1742258952.789145
0.11499999999999999,0.19999999999999996,0.31499999999999995,-0.05408000000000002,0.20507999999999993,0.058339999999999836,0.26,-0.03500000000000003,-0.4,0.04174000000000011,0.04394000000000009,0.06957999999999998,1742258952.9088051
0.08499999999999996,0.28,0.20500000000000007,0.017940000000000067,0.009279999999999955,-0.0006199999999999539,0.19999999999999996,-0.07999999999999996,-0.535,-0.0007399999999999629,-0.15355999999999992,-0.10899999999999999,1742258953.015146
0.2250000000000001,0.04499999999999993,0.52,0.18774000000000002,-0.0232,-0.04527999999999999,0.56,-0.07499999999999996,-0.14,0.008299999999999974,-0.15039999999999998,-0.05408000000000002,1742258953.129099
0.21500000000000008,0.10499999999999998,0.55,-0.08850000000000002,0.12342000000000009,0.07972000000000001,0.45500000000000007,-0.20999999999999996,-0.18999999999999995,-0.027100000000000013,0.09301999999999988,0.06396000000000002,1742258953.249262
0.15500000000000003,0.20999999999999996,0.31000000000000005,0.028079999999999883,0.07409999999999983,0.055420000000000025,0.15500000000000003,-0.08499999999999996,-0.44500000000000006,0.12390000000000012,0.05249999999999999,-0.05589999999999995,1742258953.356983
0.11499999999999999,0.3500000000000001,0.2250000000000001,0.0037799999999998946,-0.09034000000000009,-0.03917999999999999,0.375,-0.07000000000000006,-0.17000000000000004,-0.07128000000000001,-0.10986000000000007,-0.0042799999999999505,1742258953.4719172
0.20999999999999996,0.20999999999999996,0.54,0.04845999999999995,-0.08629999999999993,-0.031120000000000037,0.7149999999999999,-0.16000000000000003,0.010000000000000009,-0.07579999999999998,0.0014600000000000168,0.05505999999999989,1742258953.589781
0.18500000000000005,0.21500000000000008,0.41500000000000004,0.03638000000000008,0.10167999999999999,0.029779999999999918,0.33499999999999996,-0.13,-0.30000000000000004,0.02320000000000011,0.2093600000000002,0.10070000000000001,1742258953.708891
0.030000000000000027,0.33000000000000007,0.2250000000000001,0.01635999999999993,-0.012319999999999998,0.014899999999999913,0.09000000000000008,0.0,-0.535,0.007200000000000095,0.09301999999999988,0.008059999999999956,1742258953.812911
0.1299999999999999,0.20999999999999996,0.43999999999999995,0.00782000000000016,-0.12658000000000003,-0.05944000000000005,0.345,-0.03500000000000003,-0.21999999999999997,-0.13903999999999994,-0.15624000000000005,0.009640000000000093,1742258953.92887
0.20500000000000007,0.135,0.5899999999999999,0.05152000000000001,-0.06311999999999995,-0.02636000000000005,0.665,-0.13,-0.13,-0.002080000000000082,-0.04479999999999995,0.03527999999999998,1742258954.047988
0.14000000000000012,0.19999999999999996,0.48,-0.05603999999999998,0.12268000000000012,0.054079999999999906,0.375,-0.06499999999999995,-0.30499999999999994,-0.054200000000000026,0.13513999999999982,0.10107999999999984,1742258954.154985
0.03499999999999992,0.32499999999999996,0.2650000000000001,-0.019399999999999973,0.052000000000000046,0.025140000000000162,0.040000000000000036,-0.020000000000000018,-0.625,0.047599999999999865,0.027220000000000022,-0.11499999999999999,1742258954.269249
0.17500000000000004,0.14000000000000012,0.43999999999999995,0.0035399999999998766,-0.13805999999999996,-0.04188000000000003,0.345,-0.08999999999999997,-0.3400000000000001,0.023440000000000127,-0.16149999999999998,-0.11120000000000008,1742258954.389227
0.19999999999999996,0.11499999999999999,0.6400000000000001,0.04394000000000009,-0.0686,-0.0023200000000000998,0.52,-0.16000000000000003,-0.21499999999999997,0.018059999999999965,0.0040199999999999125,0.006960000000000077,1742258954.4970062
0.09499999999999997,0.24,0.41999999999999993,-0.04920000000000002,0.14757999999999982,0.018920000000000048,0.345,-0.08999999999999997,-0.29000000000000004,-0.012580000000000036,0.12670000000000003,0.08055999999999996,1742258954.6110249
0.11499999999999999,0.31499999999999995,0.21500000000000008,-0.020499999999999963,0.020380000000000065,-0.0037800000000000056,0.19999999999999996,-0.025000000000000022,-0.4099999999999999,-0.0048799999999999955,0.02540000000000009,-0.009399999999999964,1742258954.7287931
0.15999999999999992,0.24,0.33499999999999996,-0.0030599999999999516,-0.1471,-0.04200000000000004,0.56,-0.08499999999999996,-0.135,-0.03295999999999999,-0.18384,-0.0041599999999999415,1742258954.849154
0.19500000000000006,0.16999999999999993,0.655,0.010000000000000009,0.01097999999999999,-0.0075599999999999,0.43999999999999995,-0.19999999999999996,-0.09499999999999997,-0.03210000000000002,0.12059999999999982,0.08861999999999992,1742258954.9528918
0.125,0.2450000000000001,0.345,-0.09020000000000006,0.13513999999999982,0.05726000000000009,0.23499999999999988,-0.0050000000000000044,-0.355,0.041260000000000074,0.1311,0.03833999999999982,1742258955.068639
0.10499999999999998,0.23499999999999988,0.20999999999999996,0.02171999999999996,-0.06725999999999999,-0.0039000000000000146,0.14500000000000002,-0.03500000000000003,-0.605,0.016839999999999966,0.09216000000000002,-0.08923999999999999,1742258955.189457
0.17999999999999994,0.21999999999999997,0.5150000000000001,0.05346000000000006,-0.08739999999999992,-0.051019999999999954,0.3599999999999999,-0.050000000000000044,-0.405,-0.04724000000000006,-0.08031999999999995,-0.05176000000000003,1742258955.295199
0.17999999999999994,0.1499999999999999,0.5,-0.01867999999999992,-0.08081999999999989,0.025760000000000005,0.6099999999999999,-0.09499999999999997,-0.16000000000000003,-0.02429999999999999,0.010860000000000092,-0.011099999999999999,1742258955.4089851
0.10000000000000009,0.17999999999999994,0.405,-0.06237999999999999,0.040039999999999853,0.03807999999999989,0.09499999999999997,-0.125,-0.45999999999999996,0.06800000000000006,0.16931999999999992,0.012939999999999952,1742258955.5323231
0.1100000000000001,0.2549999999999999,0.52,-0.0010999999999999899,-0.06152000000000002,0.0032999999999998586,0.45999999999999996,-0.050000000000000044,-0.06499999999999995,0.07702000000000009,-0.17944000000000004,-0.10962000000000005,1742257314.376513
0.42500000000000004,0.19999999999999996,0.6299999999999999,0.03405999999999998,-0.0031799999999999606,-0.07020000000000004,0.675,0.0,-0.025000000000000022,-0.021480000000000055,0.05126000000000008,0.06518000000000002,1742257314.49447
0.18500000000000005,0.16500000000000004,0.385,-0.020379999999999954,0.25195999999999996,-0.02855999999999992,0.3999999999999999,0.03499999999999992,-0.265,0.019160000000000066,0.05493999999999999,0.04272000000000009,1742257314.604439
0.23499999999999988,0.14500000000000002,0.06000000000000005,0.015859999999999985,-0.08386000000000005,0.0014600000000000168,0.24,0.09000000000000008,-0.505,0.1309800000000001,-0.08739999999999992,-0.08665999999999996,1742257314.718503
0.2749999999999999,0.1200000000000001,0.45999999999999996,0.04296000000000011,-0.08141999999999994,0.016839999999999966,0.6400000000000001,-0.17999999999999994,0.2749999999999999,0.12402000000000002,-0.05896000000000001,-0.09986000000000006,1742257314.832376
0.395,0.19500000000000006,0.71,-0.00878000000000001,0.01868000000000003,-0.01085999999999998,0.565,0.010000000000000009,0.11499999999999999,-0.05577999999999994,0.08055999999999996,0.02088000000000001,1742257314.946199
0.29000000000000004,0.19500000000000006,0.25,-0.08435999999999999,0.19116,-0.0029199999999999227,0.20999999999999996,-0.13,-0.32000000000000006,0.00550000000000006,0.12304000000000004,0.036619999999999875,1742257315.060334
