L-AccX,L-AccY,L-AccZ,L-GyrX,L-GyrY,L-GyrZ,R-AccX,R-AccY,R-AccZ,R-GyrX,R-GyrY,R-GyrZ,timestamp
-0.04500000000000004,0.16999999999999993,0.4750000000000001,0.008539999999999992,0.017340000000000133,0.008059999999999956,0.14000000000000012,-0.14500000000000002,0.44999999999999996,-0.0048799999999999955,-0.0009799999999999809,-0.0029199999999999227,1742259193.985098
-0.010000000000000009,0.20999999999999996,0.45500000000000007,-0.028079999999999994,0.020259999999999945,-0.0036599999999999966,0.14500000000000002,-0.15000000000000002,0.44500000000000006,-0.0025599999999998957,0.0007399999999999629,-0.00012000000000000899,1742259194.096696
-0.015000000000000013,0.21500000000000008,0.45999999999999996,-0.008299999999999974,-0.0007399999999999629,0.0030599999999998406,0.14500000000000002,-0.14,0.45500000000000007,-0.0008599999999999719,0.0018400000000000638,-0.001960000000000073,1742259194.210696
-0.020000000000000018,0.21999999999999997,0.45500000000000007,-0.007940000000000058,0.0015800000000001369,0.006220000000000114,0.14000000000000012,-0.15000000000000002,0.44999999999999996,-0.0036599999999999966,0.002080000000000082,0.0015800000000001369,1742259194.32459
-0.015000000000000013,0.21999999999999997,0.44999999999999996,-0.0050000000000000044,0.006099999999999994,0.0041599999999999415,0.14500000000000002,-0.14500000000000002,0.44999999999999996,0.002080000000000082,0.001100000000000101,-0.0027999999999999137,1742259194.4386618
-0.015000000000000013,0.2250000000000001,0.44999999999999996,0.0009799999999999809,0.009759999999999991,0.009160000000000057,0.14000000000000012,-0.15000000000000002,0.45500000000000007,0.005239999999999911,-0.00012000000000000899,-0.00660000000000005,1742259194.5536551
-0.015000000000000013,0.2250000000000001,0.44500000000000006,-0.0015800000000000258,0.009279999999999955,0.014899999999999913,0.14500000000000002,-0.15000000000000002,0.44999999999999996,0.015740000000000087,0.01195999999999997,-0.0043999999999999595,1742259194.6656551
-0.0050000000000000044,0.21500000000000008,0.44500000000000006,0.0015800000000001369,0.010739999999999972,0.012700000000000156,0.1499999999999999,-0.16000000000000003,0.43500000000000005,0.009400000000000075,0.011840000000000073,-0.0042799999999999505,1742259194.7794912
-0.010000000000000009,0.21999999999999997,0.44999999999999996,0.010860000000000092,0.0034199999999999786,0.01855999999999991,0.1499999999999999,-0.16000000000000003,0.43999999999999995,0.0018400000000000638,0.011239999999999917,0.006599999999999939,1742259194.894618
-0.015000000000000013,0.21999999999999997,0.44999999999999996,0.0032999999999998586,-0.001960000000000073,0.014899999999999913,0.16999999999999993,-0.16000000000000003,0.42999999999999994,0.0031799999999999606,0.027099999999999902,0.012199999999999989,1742259195.005617
-0.020000000000000018,0.20999999999999996,0.45500000000000007,0.009640000000000093,0.0014600000000000168,0.0007399999999999629,0.17500000000000004,-0.16000000000000003,0.42500000000000004,0.009160000000000057,0.014399999999999968,0.009879999999999889,1742259195.1195369
-0.010000000000000009,0.20500000000000007,0.45500000000000007,0.0006200000000000649,0.0032999999999998586,-0.0037800000000000056,0.18500000000000005,-0.16000000000000003,0.42500000000000004,0.0017000000000000348,0.0019599999999999618,0.016599999999999948,1742259195.23536
-0.015000000000000013,0.20999999999999996,0.45999999999999996,0.0012199999999999989,-0.0007399999999999629,0.0014600000000000168,0.18500000000000005,-0.17000000000000004,0.41500000000000004,-0.022700000000000053,-0.013419999999999987,0.005120000000000013,1742259195.3476312
-0.010000000000000009,0.21500000000000008,0.45500000000000007,-0.0035399999999999876,0.00035999999999991594,-0.0032999999999999696,0.16500000000000004,-0.15500000000000003,0.42999999999999994,-0.006340000000000012,-0.002080000000000082,-0.0048799999999999955,1742259195.461789
-0.010000000000000009,0.21500000000000008,0.45500000000000007,-0.00770000000000004,0.0026800000000000157,-0.006220000000000003,0.17999999999999994,-0.15000000000000002,0.42999999999999994,-0.0031799999999999606,-0.01648000000000005,-0.019279999999999964,1742259195.5757718
-0.010000000000000009,0.21999999999999997,0.45500000000000007,-0.011840000000000073,0.002080000000000082,-0.005739999999999967,0.17500000000000004,-0.16000000000000003,0.43500000000000005,-0.014399999999999968,-0.017340000000000022,-0.017080000000000095,1742259195.689753
-0.015000000000000013,0.2250000000000001,0.44999999999999996,0.0013400000000001189,0.0031799999999999606,0.0048799999999999955,0.16500000000000004,-0.15000000000000002,0.43999999999999995,-0.012460000000000027,-0.00012000000000000899,-0.008919999999999928,1742259195.8034382
-0.0050000000000000044,0.21999999999999997,0.44999999999999996,-0.01085999999999998,0.007200000000000095,-0.0012199999999999989,0.16500000000000004,-0.15000000000000002,0.43500000000000005,0.01648000000000005,-0.010259999999999936,0.03161999999999998,1742259195.9168708
-0.010000000000000009,0.22999999999999998,0.44999999999999996,0.0019599999999999618,-0.0024400000000001087,-0.0042799999999999505,0.16500000000000004,-0.13,0.4650000000000001,-0.0041599999999999415,-0.010000000000000009,0.013539999999999885,1742259196.0306618
0.0,0.22999999999999998,0.43999999999999995,-0.0029199999999999227,-0.0043999999999999595,0.005740000000000078,0.16999999999999993,-0.125,0.44500000000000006,0.006599999999999939,0.006340000000000012,0.020380000000000065,1742259196.144505
-0.010000000000000009,0.2250000000000001,0.44999999999999996,0.0017000000000000348,-0.0036599999999999966,0.0007399999999999629,0.19500000000000006,-0.13,0.42500000000000004,0.01953999999999989,0.01990000000000003,0.021360000000000046,1742259196.258552
-0.010000000000000009,0.22999999999999998,0.44999999999999996,0.0017000000000000348,-0.002080000000000082,-0.0018400000000000638,0.19500000000000006,-0.16500000000000004,0.42999999999999994,0.02293999999999996,0.025640000000000107,0.009039999999999937,1742259196.375159
-0.0050000000000000044,0.2250000000000001,0.44999999999999996,0.00048000000000003595,-0.0010999999999999899,-0.0010999999999999899,0.20999999999999996,-0.17000000000000004,0.405,0.006720000000000059,-0.017340000000000022,-0.0046399999999999775,1742259196.48564
-0.010000000000000009,0.2250000000000001,0.44500000000000006,0.0007399999999999629,-0.00024000000000001798,-0.0045199999999999685,0.18500000000000005,-0.17500000000000004,0.41999999999999993,0.01195999999999997,-0.041139999999999954,-0.02636000000000005,1742259196.5996249
-0.010000000000000009,0.2250000000000001,0.44500000000000006,-0.0008599999999999719,0.00048000000000003595,-0.0042799999999999505,0.16500000000000004,-0.16000000000000003,0.43999999999999995,-0.015499999999999958,-0.013919999999999932,-0.006960000000000077,1742259196.714611
-0.0050000000000000044,0.2250000000000001,0.44999999999999996,-0.0032999999999999696,-0.0006199999999999539,-0.0050000000000000044,0.16999999999999993,-0.15500000000000003,0.43999999999999995,0.008539999999999992,0.0013400000000001189,-0.0010999999999999899,1742259196.8277838
-0.0050000000000000044,0.2250000000000001,0.44999999999999996,-0.0034199999999999786,0.0013400000000001189,-0.0036599999999999966,0.15500000000000003,-0.17000000000000004,0.43500000000000005,-0.00036000000000002697,0.0037799999999998946,-0.01085999999999998,1742259196.941828
-0.0050000000000000044,0.22999999999999998,0.44500000000000006,-0.00537999999999994,0.0040199999999999125,-0.0037800000000000056,0.16500000000000004,-0.14500000000000002,0.44500000000000006,-0.02307999999999999,-0.031000000000000028,0.010620000000000074,1742259197.055736
-0.0050000000000000044,0.2250000000000001,0.44500000000000006,0.0012199999999999989,-0.002080000000000082,0.004999999999999893,0.14500000000000002,-0.16500000000000004,0.44999999999999996,0.0025599999999998957,-0.005619999999999958,-0.00024000000000001798,1742259197.169492
-0.0050000000000000044,0.2250000000000001,0.44500000000000006,0.0040199999999999125,-0.0013400000000000079,0.008419999999999872,0.14500000000000002,-0.15500000000000003,0.4650000000000001,0.025140000000000162,0.05518000000000001,0.008059999999999956,1742259197.282445
-0.010000000000000009,0.2250000000000001,0.44999999999999996,0.0040199999999999125,-0.0009799999999999809,0.0036599999999999966,0.19500000000000006,-0.16000000000000003,0.41999999999999993,0.015740000000000087,0.03442000000000012,0.013679999999999914,1742259197.3968
-0.010000000000000009,0.2250000000000001,0.44999999999999996,0.00011999999999989797,-0.0029199999999999227,0.0014600000000000168,0.19500000000000006,-0.15500000000000003,0.41999999999999993,-0.002080000000000082,-0.015139999999999931,-0.008179999999999965,1742259197.510428
-0.010000000000000009,0.21999999999999997,0.44999999999999996,-0.0023200000000000998,-0.0015800000000000258,-0.0030599999999999516,0.18500000000000005,-0.16500000000000004,0.42999999999999994,-0.012460000000000027,-0.014519999999999977,-0.00878000000000001,1742259197.623668
-0.010000000000000009,0.2250000000000001,0.44500000000000006,-0.0027999999999999137,-0.0008599999999999719,-0.0029199999999999227,0.17500000000000004,-0.17000000000000004,0.43999999999999995,0.007440000000000113,0.010499999999999954,0.006839999999999957,1742259197.737731
-0.010000000000000009,0.2250000000000001,0.44500000000000006,-0.0017000000000000348,-0.0013400000000000079,-0.00048000000000003595,0.19500000000000006,-0.15000000000000002,0.42500000000000004,0.00048000000000003595,-0.006460000000000021,-0.0026799999999999047,1742259197.8546271
-0.010000000000000009,0.22999999999999998,0.44500000000000006,-0.00012000000000000899,-0.0024400000000001087,-0.0006199999999999539,0.18500000000000005,-0.15000000000000002,0.42999999999999994,0.006839999999999957,-0.011840000000000073,0.0029200000000000337,1742259197.965642
-0.010000000000000009,0.2250000000000001,0.44500000000000006,0.00035999999999991594,-0.0024400000000001087,-0.0029199999999999227,0.19500000000000006,-0.15000000000000002,0.41500000000000004,-0.0024400000000001087,-0.010140000000000038,-0.0008599999999999719,1742259198.079585
-0.010000000000000009,0.23499999999999988,0.43999999999999995,-0.0030599999999999516,-0.0031799999999999606,-0.010259999999999936,0.18500000000000005,-0.18500000000000005,0.43500000000000005,0.1203599999999998,-0.029179999999999984,-0.06555999999999995,1742259198.194546
-0.010000000000000009,0.2250000000000001,0.44500000000000006,0.006099999999999994,-0.0032999999999999696,-0.0030599999999999516,0.14500000000000002,-0.18500000000000005,0.41999999999999993,-0.017080000000000095,-0.10229999999999995,-0.11926000000000003,1742259198.3075762
-0.015000000000000013,0.2250000000000001,0.44500000000000006,0.011360000000000037,-0.008660000000000001,-0.0046399999999999775,0.09499999999999997,-0.19500000000000006,0.3999999999999999,-0.02758000000000005,-0.006840000000000068,-0.1016800000000001,1742259198.423699
-0.015000000000000013,0.21500000000000008,0.45999999999999996,0.012580000000000036,-0.016120000000000023,-0.009759999999999991,0.05499999999999994,-0.19999999999999996,0.4650000000000001,-0.05152000000000001,0.0009799999999999809,0.03308,1742259198.5375822
-0.015000000000000013,0.21500000000000008,0.44999999999999996,0.0014600000000000168,0.0024399999999999977,-0.0014600000000000168,0.10499999999999998,-0.12,0.47,0.0047600000000000975,0.005239999999999911,-0.008539999999999992,1742259198.6545842
-0.020000000000000018,0.21999999999999997,0.45500000000000007,0.0036599999999999966,-0.0022000000000000908,0.0017000000000000348,0.08499999999999996,-0.16000000000000003,0.43500000000000005,0.02611999999999992,-0.015020000000000033,0.00011999999999989797,1742259198.765441
-0.020000000000000018,0.21500000000000008,0.45500000000000007,-0.0012199999999999989,0.002080000000000082,-0.0010999999999999899,0.07000000000000006,-0.14500000000000002,0.48,0.016839999999999966,-0.018179999999999974,-0.015619999999999967,1742259198.879549
-0.015000000000000013,0.21500000000000008,0.45500000000000007,0.0018400000000000638,0.00024000000000001798,-0.0039000000000000146,0.09000000000000008,-0.17000000000000004,0.43500000000000005,0.03614000000000006,0.03614000000000006,-0.0018400000000000638,1742259198.99563
-0.010000000000000009,0.21500000000000008,0.45500000000000007,-0.0075599999999999,0.0017000000000000348,-0.006099999999999994,0.08499999999999996,-0.17000000000000004,0.4650000000000001,0.03186,0.0024399999999999977,-0.03503999999999996,1742259199.1075652
-0.020000000000000018,0.2250000000000001,0.44500000000000006,-0.0007399999999999629,0.0014600000000000168,0.0013400000000001189,0.06000000000000005,-0.235,0.44999999999999996,-0.0042799999999999505,0.014639999999999986,-0.08789999999999998,1742259199.221497
-0.010000000000000009,0.2250000000000001,0.44999999999999996,0.0047600000000000975,0.0024399999999999977,0.0,0.07000000000000006,-0.19999999999999996,0.43500000000000005,-0.03527999999999998,-0.0039000000000000146,-0.07213999999999998,1742259199.339253
-0.010000000000000009,0.21500000000000008,0.44999999999999996,-0.0007399999999999629,0.0024399999999999977,0.0023200000000000998,0.06499999999999995,-0.17000000000000004,0.43999999999999995,-0.031379999999999963,-0.011480000000000046,0.026980000000000004,1742259199.449448
-0.015000000000000013,0.21999999999999997,0.44999999999999996,-0.001960000000000073,0.0034199999999999786,0.00035999999999991594,0.06000000000000005,-0.18999999999999995,0.44999999999999996,0.009519999999999973,0.020259999999999945,-0.017820000000000058,1742259199.5626822
-0.010000000000000009,0.21999999999999997,0.44999999999999996,-0.0008599999999999719,0.00035999999999991594,-0.006099999999999994,0.050000000000000044,-0.19500000000000006,0.45999999999999996,-0.005120000000000013,-0.021360000000000046,0.013539999999999885,1742259199.676592
-0.010000000000000009,0.21999999999999997,0.44999999999999996,-0.0029199999999999227,0.0006200000000000649,0.00024000000000001798,0.06000000000000005,-0.16000000000000003,0.45999999999999996,-0.007940000000000058,-0.005619999999999958,0.005239999999999911,1742259199.7904
-0.0050000000000000044,0.21999999999999997,0.44999999999999996,-0.0027999999999999137,0.00048000000000003595,0.0009799999999999809,0.05499999999999994,-0.17000000000000004,0.45999999999999996,-0.006099999999999994,-0.006220000000000003,0.0034199999999999786,1742259199.9045491
-0.010000000000000009,0.21999999999999997,0.44999999999999996,-0.0014600000000000168,-0.00048000000000003595,0.006720000000000059,0.050000000000000044,-0.17500000000000004,0.45500000000000007,0.006340000000000012,-0.00012000000000000899,-0.005739999999999967,1742259200.01874
-0.015000000000000013,0.2250000000000001,0.44999999999999996,0.010140000000000038,0.0,0.02210000000000001,0.050000000000000044,-0.16000000000000003,0.47,-0.0007399999999999629,-0.0046399999999999775,0.007319999999999993,1742259200.135463
-0.025000000000000022,0.21999999999999997,0.45500000000000007,0.016240000000000032,-0.0009799999999999809,0.03308,0.05499999999999994,-0.16500000000000004,0.47,0.005980000000000096,0.0006200000000000649,0.010000000000000009,1742259200.246561
-0.040000000000000036,0.20999999999999996,0.4750000000000001,0.019400000000000084,-0.017340000000000022,0.007319999999999993,0.05499999999999994,-0.16500000000000004,0.45999999999999996,0.0014600000000000168,-0.0018400000000000638,0.0027999999999999137,1742259200.360412
-0.04500000000000004,0.18999999999999995,0.4849999999999999,0.033320000000000016,-0.025760000000000005,-0.01537999999999995,0.05499999999999994,-0.16000000000000003,0.4650000000000001,0.00048000000000003595,-0.0015800000000000258,0.0018400000000000638,1742259200.475819
-0.06000000000000005,0.19999999999999996,0.47,0.006220000000000114,-0.03858000000000006,-0.06640000000000001,0.050000000000000044,-0.17000000000000004,0.45999999999999996,0.008059999999999956,0.00024000000000001798,0.0036599999999999966,1742259200.587483
-0.05500000000000005,0.18500000000000005,0.47,0.021600000000000064,-0.023440000000000016,-0.025760000000000005,0.05499999999999994,-0.16500000000000004,0.45999999999999996,0.0032999999999998586,-0.00048000000000003595,0.0009799999999999809,1742259200.702482
-0.06499999999999995,0.135,0.47,0.0014600000000000168,0.012820000000000054,0.00011999999999989797,0.05499999999999994,-0.15500000000000003,0.4650000000000001,0.00035999999999991594,-0.0008599999999999719,0.0,1742259200.818945
-0.03500000000000003,0.17500000000000004,0.44999999999999996,-0.008179999999999965,0.05188000000000015,0.07250000000000001,0.05499999999999994,-0.16500000000000004,0.45999999999999996,0.0018400000000000638,-0.00024000000000001798,0.0012199999999999989,1742259200.9284658
-0.03500000000000003,0.18999999999999995,0.45500000000000007,0.01635999999999993,-0.011600000000000055,0.021239999999999926,0.050000000000000044,-0.16500000000000004,0.45999999999999996,-0.0015800000000000258,-0.0009799999999999809,0.0007399999999999629,1742259201.042366
-0.06499999999999995,0.21500000000000008,0.47,0.01097999999999999,-0.059940000000000104,-0.07544000000000006,0.05499999999999994,-0.17000000000000004,0.45999999999999996,0.00011999999999989797,-0.00036000000000002697,0.00048000000000003595,1742259201.156518
-0.050000000000000044,0.135,0.4849999999999999,0.056400000000000006,-0.02513999999999994,-0.005979999999999985,0.04499999999999993,-0.17000000000000004,0.4650000000000001,-0.0014600000000000168,-0.0010999999999999899,0.0015800000000001369,1742259201.270532
-0.07999999999999996,0.14000000000000012,0.48,0.0007399999999999629,0.0026800000000000157,0.006340000000000012,0.05499999999999994,-0.17000000000000004,0.45999999999999996,0.0037799999999998946,0.00048000000000003595,-0.0007399999999999629,1742259201.38479
-0.05500000000000005,0.15999999999999992,0.47,0.007440000000000113,0.018320000000000114,0.00865999999999989,0.050000000000000044,-0.16000000000000003,0.45999999999999996,-0.0013400000000000079,-0.0013400000000000079,0.0015800000000001369,1742259201.497306
-0.07499999999999996,0.14500000000000002,0.5249999999999999,-0.043220000000000036,0.1471,0.0043999999999999595,0.050000000000000044,-0.16500000000000004,0.45999999999999996,0.0024399999999999977,0.00048000000000003595,-0.001960000000000073,1742259201.610444
0.030000000000000027,0.15500000000000003,0.47,0.011719999999999953,0.13842,0.056519999999999904,0.050000000000000044,-0.17500000000000004,0.45999999999999996,-0.0010999999999999899,0.0,0.0,1742259201.724149
0.08000000000000007,0.19999999999999996,0.48,-0.03588000000000002,0.03259999999999996,0.022580000000000044,0.050000000000000044,-0.17000000000000004,0.45999999999999996,0.0017000000000000348,0.00011999999999989797,-0.00012000000000000899,1742259201.8399282
0.050000000000000044,0.18500000000000005,0.48,0.0021999999999999797,-0.010619999999999963,-0.0035399999999999876,0.05499999999999994,-0.16500000000000004,0.45999999999999996,-0.0010999999999999899,0.0025599999999998957,-0.0014600000000000168,1742259201.950345
0.050000000000000044,0.19500000000000006,0.44999999999999996,-0.012700000000000045,0.0007399999999999629,-0.012460000000000027,0.05499999999999994,-0.16500000000000004,0.45999999999999996,-0.001960000000000073,0.0018400000000000638,-0.0007399999999999629,1742259202.063327
0.05499999999999994,0.19500000000000006,0.45500000000000007,0.008920000000000039,-0.006460000000000021,0.0013400000000001189,0.05499999999999994,-0.16500000000000004,0.45999999999999996,-0.00036000000000002697,0.0017000000000000348,0.0,1742259202.176179
0.05499999999999994,0.17500000000000004,0.45999999999999996,0.03308,0.017940000000000067,-0.0022000000000000908,0.05499999999999994,-0.16500000000000004,0.45999999999999996,0.0018400000000000638,0.00048000000000003595,-0.0006199999999999539,1742259202.2893288
0.05499999999999994,0.18500000000000005,0.48,-0.03283999999999998,-0.04798000000000002,0.02185999999999999,0.05499999999999994,-0.16500000000000004,0.45999999999999996,0.0,0.001100000000000101,-0.0012199999999999989,1742259202.402294
0.014999999999999902,0.19999999999999996,0.48,0.005859999999999976,-0.06237999999999999,0.016240000000000032,0.05499999999999994,-0.16500000000000004,0.45999999999999996,-0.00036000000000002697,0.0009799999999999809,-0.0008599999999999719,1742259202.516048
-0.015000000000000013,0.16999999999999993,0.4849999999999999,0.008419999999999872,-0.05603999999999998,0.01648000000000005,0.05499999999999994,-0.16000000000000003,0.45999999999999996,-0.0010999999999999899,0.0007399999999999629,-0.00048000000000003595,1742259202.6283112
-0.03500000000000003,0.15999999999999992,0.49,0.0018400000000000638,-0.010379999999999945,0.0019599999999999618,0.05499999999999994,-0.16000000000000003,0.4650000000000001,-0.0031799999999999606,0.0025599999999998957,-0.0030599999999999516,1742259202.741338
-0.025000000000000022,0.15999999999999992,0.4750000000000001,-0.00012000000000000899,-0.0012199999999999989,0.0035399999999998766,0.05499999999999994,-0.16500000000000004,0.45999999999999996,-0.0010999999999999899,0.0047600000000000975,-0.0025599999999998957,1742259202.855463
-0.025000000000000022,0.16500000000000004,0.47,-0.00036000000000002697,-0.01525999999999994,-0.0036599999999999966,0.06000000000000005,-0.16000000000000003,0.45500000000000007,0.0015800000000001369,0.0025599999999998957,-0.0036599999999999966,1742259202.969576
-0.040000000000000036,0.15999999999999992,0.4849999999999999,0.0006200000000000649,-0.021600000000000064,-0.06434000000000006,0.05499999999999994,-0.17000000000000004,0.4650000000000001,-0.0015800000000000258,0.00537999999999994,-0.0075599999999999,1742259203.083466
-0.040000000000000036,0.15999999999999992,0.4750000000000001,0.002080000000000082,-0.0043999999999999595,-0.006960000000000077,0.06499999999999995,-0.15500000000000003,0.47,-0.0029199999999999227,0.006599999999999939,-0.005619999999999958,1742259203.197435
-0.040000000000000036,0.16500000000000004,0.47,-0.0008599999999999719,0.00024000000000001798,-0.0009799999999999809,0.06499999999999995,-0.16000000000000003,0.45500000000000007,-0.0027999999999999137,0.0008600000000000829,-0.0013400000000000079,1742259203.31141
-0.040000000000000036,0.16500000000000004,0.47,-0.0035399999999999876,0.0007399999999999629,0.0,0.06000000000000005,-0.16000000000000003,0.47,-0.0017000000000000348,0.0,0.0035399999999998766,1742259203.42534
-0.040000000000000036,0.17999999999999994,0.45999999999999996,0.001100000000000101,-0.0008599999999999719,-0.005859999999999976,0.05499999999999994,-0.16000000000000003,0.4650000000000001,0.002080000000000082,-0.00048000000000003595,0.001100000000000101,1742259203.539417
-0.05500000000000005,0.15999999999999992,0.48,0.012460000000000138,0.018440000000000012,-0.011600000000000055,0.05499999999999994,-0.16500000000000004,0.45999999999999996,0.007079999999999975,-0.0023200000000000998,-0.0029199999999999227,1742259203.65629
-0.015000000000000013,0.15999999999999992,0.4849999999999999,-0.014039999999999941,0.043339999999999934,-0.04503999999999997,0.05499999999999994,-0.16500000000000004,0.47,0.002080000000000082,-0.0024400000000001087,0.009879999999999889,1742259203.7674398
0.004999999999999893,0.16999999999999993,0.4750000000000001,-0.029779999999999918,0.018059999999999965,-0.032480000000000064,0.050000000000000044,-0.18500000000000005,0.45999999999999996,0.0023200000000000998,0.030999999999999917,0.07264000000000004,1742259203.881344
0.02499999999999991,0.17500000000000004,0.45500000000000007,-0.009159999999999946,0.015740000000000087,-0.01085999999999998,0.09499999999999997,-0.16000000000000003,0.43500000000000005,0.05126000000000008,0.011360000000000037,0.13758000000000004,1742259203.99618
0.014999999999999902,0.18500000000000005,0.4650000000000001,0.00024000000000001798,-0.0043999999999999595,0.0008600000000000829,0.1299999999999999,-0.11499999999999999,0.44999999999999996,0.01868000000000003,0.023560000000000025,0.07445999999999997,1742259204.107549
0.020000000000000018,0.18500000000000005,0.4650000000000001,-0.001960000000000073,-0.0006199999999999539,0.0030599999999998406,0.1299999999999999,-0.18500000000000005,0.42500000000000004,0.02942,0.007560000000000011,0.010140000000000038,1742259204.220368
0.020000000000000018,0.18500000000000005,0.4650000000000001,-0.0018400000000000638,-0.0024400000000001087,-0.00048000000000003595,0.1299999999999999,-0.17500000000000004,0.44500000000000006,0.0007399999999999629,0.010860000000000092,-0.0037800000000000056,1742259204.334412
0.014999999999999902,0.18500000000000005,0.4650000000000001,-0.0012199999999999989,-0.0010999999999999899,-0.00012000000000000899,0.1299999999999999,-0.17500000000000004,0.43999999999999995,-0.00024000000000001798,-0.00988,-0.005739999999999967,1742259204.448409
0.020000000000000018,0.18500000000000005,0.4650000000000001,-0.0023200000000000998,-0.0009799999999999809,-0.0008599999999999719,0.1299999999999999,-0.135,0.44500000000000006,-0.01537999999999995,0.002080000000000082,-0.05396000000000001,1742259204.5624242
0.014999999999999902,0.18500000000000005,0.4650000000000001,-0.00537999999999994,-0.00036000000000002697,0.0017000000000000348,0.08000000000000007,-0.19999999999999996,0.47,-0.00048000000000003595,-0.042120000000000046,-0.07579999999999998,1742259204.6762612
0.020000000000000018,0.17999999999999994,0.45999999999999996,-0.02210000000000001,-0.005240000000000022,0.007319999999999993,0.08000000000000007,-0.18999999999999995,0.4750000000000001,0.0026800000000000157,-0.005739999999999967,-0.006720000000000059,1742259204.790333
0.014999999999999902,0.19999999999999996,0.45999999999999996,0.0040199999999999125,0.00035999999999991594,-0.00024000000000001798,0.10000000000000009,-0.15500000000000003,0.45999999999999996,-0.01427999999999996,0.048819999999999864,-0.00012000000000000899,1742259204.904308
0.014999999999999902,0.18999999999999995,0.4650000000000001,0.0024399999999999977,-0.0009799999999999809,-0.0010999999999999899,0.125,-0.16000000000000003,0.42999999999999994,-0.00024000000000001798,0.028200000000000003,-0.0015800000000000258,1742259205.017347
0.014999999999999902,0.18999999999999995,0.45999999999999996,-0.0027999999999999137,-0.001960000000000073,0.00024000000000001798,0.1299999999999999,-0.135,0.45500000000000007,0.007200000000000095,-0.008299999999999974,0.0013400000000001189,1742259205.131273
0.010000000000000009,0.19999999999999996,0.4650000000000001,-0.01990000000000003,-0.0039000000000000146,0.0041599999999999415,0.1200000000000001,-0.15500000000000003,0.42999999999999994,-0.008539999999999992,-0.02624000000000004,0.0027999999999999137,1742259205.245385
0.014999999999999902,0.19999999999999996,0.45500000000000007,0.007560000000000011,0.0006200000000000649,-0.0024400000000001087,0.10000000000000009,-0.16000000000000003,0.45500000000000007,-0.0040200000000000236,-0.03625999999999996,-0.0006199999999999539,1742259205.3591082
0.010000000000000009,0.19999999999999996,0.45999999999999996,0.0035399999999998766,0.0025599999999998957,-0.0012199999999999989,0.09000000000000008,-0.17999999999999994,0.42500000000000004,-0.006220000000000003,-0.0031799999999999606,0.0037799999999998946,1742259205.476288
0.014999999999999902,0.20500000000000007,0.4750000000000001,0.005120000000000013,0.016000000000000014,-0.0015800000000000258,0.10000000000000009,-0.17500000000000004,0.43999999999999995,-0.0007399999999999629,0.05493999999999999,0.012580000000000036,1742259205.585124
0.020000000000000018,0.18999999999999995,0.44999999999999996,0.00048000000000003595,-0.00537999999999994,0.002080000000000082,0.1100000000000001,-0.16500000000000004,0.45500000000000007,0.0024399999999999977,0.013299999999999867,-0.0012199999999999989,1742259205.698205
0.014999999999999902,0.19999999999999996,0.47,-0.0043999999999999595,-0.0043999999999999595,-0.0012199999999999989,0.1100000000000001,-0.16000000000000003,0.45999999999999996,0.0021999999999999797,-0.0050000000000000044,0.005980000000000096,1742259205.8123388
0.010000000000000009,0.19500000000000006,0.45999999999999996,-0.011960000000000082,0.0029200000000000337,0.0029200000000000337,0.11499999999999999,-0.15500000000000003,0.43999999999999995,-0.00988,-0.0031799999999999606,-0.012580000000000036,1742259205.926247
0.014999999999999902,0.20500000000000007,0.44500000000000006,-0.0039000000000000146,-0.0050000000000000044,0.004999999999999893,0.09000000000000008,-0.17000000000000004,0.45999999999999996,-0.0037800000000000056,-0.006840000000000068,-0.032480000000000064,1742259206.039396
0.0,0.21500000000000008,0.44999999999999996,-0.00048000000000003595,-0.0030599999999999516,0.009879999999999889,0.08499999999999996,-0.17000000000000004,0.45500000000000007,-0.00036000000000002697,-0.0037800000000000056,-0.02513999999999994,1742259206.155895
-0.0050000000000000044,0.21999999999999997,0.45500000000000007,-0.0012199999999999989,-0.0013400000000000079,0.0014600000000000168,0.07499999999999996,-0.20499999999999996,0.45500000000000007,0.013679999999999914,-0.0046399999999999775,-0.00878000000000001,1742259206.266329
0.004999999999999893,0.20999999999999996,0.45999999999999996,-0.0013400000000000079,-0.0035399999999999876,0.0034199999999999786,0.08499999999999996,-0.16500000000000004,0.44999999999999996,-0.002080000000000082,0.011600000000000055,0.0048799999999999955,1742259206.380235
0.0,0.20999999999999996,0.45999999999999996,-0.0046399999999999775,0.0,0.0007399999999999629,0.07499999999999996,-0.15000000000000002,0.4750000000000001,0.005120000000000013,0.014780000000000015,-0.08189999999999997,1742259206.496692
0.0,0.21999999999999997,0.44999999999999996,-0.010000000000000009,0.0035399999999998766,-0.0075599999999999,0.06000000000000005,-0.24,0.43999999999999995,-0.016000000000000014,0.03186,-0.029299999999999993,1742259206.608201
0.004999999999999893,0.21999999999999997,0.44999999999999996,-0.006099999999999994,-0.0017000000000000348,-0.009399999999999964,0.08000000000000007,-0.17999999999999994,0.44999999999999996,-0.00660000000000005,-0.009159999999999946,0.013679999999999914,1742259206.722365
0.0,0.23499999999999988,0.4650000000000001,-0.014519999999999977,-0.0035399999999999876,-0.037839999999999985,0.08000000000000007,-0.17000000000000004,0.44999999999999996,-0.0015800000000000258,0.00550000000000006,-0.006720000000000059,1742259206.839996
0.02499999999999991,0.21999999999999997,0.42500000000000004,0.0023200000000000998,-0.007200000000000095,-0.0035399999999999876,0.09000000000000008,-0.15000000000000002,0.44999999999999996,-0.012580000000000036,-0.0025599999999998957,-0.07323999999999997,1742259206.950273
0.004999999999999893,0.22999999999999998,0.43999999999999995,0.01195999999999997,-0.006220000000000003,0.00011999999999989797,0.06499999999999995,-0.17999999999999994,0.45500000000000007,0.009039999999999937,-0.02624000000000004,-0.03320000000000001,1742259207.064129
0.004999999999999893,0.22999999999999998,0.44999999999999996,0.01317999999999997,-0.0045199999999999685,0.001100000000000101,0.05499999999999994,-0.19500000000000006,0.45500000000000007,-0.0045199999999999685,-0.013539999999999996,0.00770000000000004,1742259207.177114
-0.010000000000000009,0.17500000000000004,0.4750000000000001,0.02075999999999989,-0.04932000000000003,-0.04724000000000006,0.050000000000000044,-0.18500000000000005,0.44999999999999996,-0.043460000000000054,-0.03967999999999994,0.05357999999999996,1742259207.290376
-0.0050000000000000044,0.17999999999999994,0.47,0.026000000000000023,-0.010000000000000009,0.0043999999999999595,0.050000000000000044,-0.15000000000000002,0.44999999999999996,-0.037839999999999985,-0.02088000000000001,0.02088000000000001,1742259207.40421
-0.015000000000000013,0.18500000000000005,0.48,-0.0007399999999999629,0.0035399999999998766,-0.00024000000000001798,0.03499999999999992,-0.17500000000000004,0.45500000000000007,0.033440000000000136,0.016960000000000086,-0.016120000000000023,1742259207.518425
-0.0050000000000000044,0.18500000000000005,0.4650000000000001,0.0007399999999999629,0.0006200000000000649,0.0019599999999999618,0.02499999999999991,-0.15000000000000002,0.4750000000000001,-0.0013400000000000079,-0.01085999999999998,-0.005499999999999949,1742259207.636242
-0.0050000000000000044,0.17999999999999994,0.4650000000000001,0.0019599999999999618,-0.0009799999999999809,0.001100000000000101,0.040000000000000036,-0.16500000000000004,0.45999999999999996,0.05479999999999996,0.022460000000000147,-0.016840000000000077,1742259207.746248
-0.0050000000000000044,0.18500000000000005,0.4650000000000001,-0.00012000000000000899,-0.0007399999999999629,0.0,0.030000000000000027,-0.14500000000000002,0.4650000000000001,0.007940000000000058,-0.012580000000000036,0.0048799999999999955,1742259207.860391
-0.010000000000000009,0.17999999999999994,0.4750000000000001,-0.0027999999999999137,0.0014600000000000168,0.010259999999999936,0.030000000000000027,-0.17500000000000004,0.4650000000000001,0.012460000000000138,-0.0006199999999999539,0.018440000000000012,1742259207.976406
-0.010000000000000009,0.18500000000000005,0.45999999999999996,-0.0023200000000000998,0.01977999999999991,0.0032999999999998586,0.06499999999999995,-0.14500000000000002,0.43999999999999995,0.015740000000000087,0.08531999999999984,0.10816000000000003,1742259208.0890791
-0.020000000000000018,0.21500000000000008,0.4849999999999999,-0.020379999999999954,-0.00537999999999994,0.016599999999999948,0.1100000000000001,-0.12,0.42500000000000004,-0.04259999999999997,0.023440000000000127,0.08543999999999996,1742259208.202376
0.0,0.19999999999999996,0.4650000000000001,-0.006840000000000068,0.01868000000000003,-0.002080000000000082,0.1100000000000001,-0.14,0.44999999999999996,0.001100000000000101,-0.013539999999999996,-0.014519999999999977,1742259208.32015
0.010000000000000009,0.19999999999999996,0.47,0.010140000000000038,0.015020000000000033,-0.009399999999999964,0.10000000000000009,-0.18500000000000005,0.42500000000000004,-0.005120000000000013,0.018920000000000048,0.013679999999999914,1742259208.429018
0.010000000000000009,0.19500000000000006,0.44500000000000006,0.015859999999999985,0.013419999999999987,0.01770000000000005,0.14000000000000012,-0.14,0.44999999999999996,-0.03979999999999995,0.11047999999999991,0.11426000000000003,1742259208.541961
0.004999999999999893,0.19500000000000006,0.47,0.00035999999999991594,-0.015139999999999931,0.006599999999999939,0.17999999999999994,-0.135,0.41500000000000004,0.02526000000000006,0.03381999999999996,-0.009039999999999937,1742259208.656353
0.004999999999999893,0.17500000000000004,0.44999999999999996,0.016960000000000086,-0.02734000000000003,0.07678000000000007,0.16999999999999993,-0.14500000000000002,0.43999999999999995,0.020140000000000047,-0.008660000000000001,-0.01770000000000005,1742259208.7680168
-0.050000000000000044,0.18999999999999995,0.4849999999999999,0.029779999999999918,-0.02210000000000001,0.047599999999999865,0.14000000000000012,-0.14500000000000002,0.4650000000000001,-0.001960000000000073,-0.03736000000000006,-0.07604,1742259208.881124
-0.040000000000000036,0.17999999999999994,0.47,0.009519999999999973,-0.00012000000000000899,-0.0013400000000000079,0.1100000000000001,-0.16000000000000003,0.45999999999999996,-0.014039999999999941,-0.033440000000000025,-0.06053999999999993,1742259208.996097
-0.040000000000000036,0.17500000000000004,0.4650000000000001,0.006340000000000012,0.007319999999999993,-0.0032999999999999696,0.09499999999999997,-0.14500000000000002,0.4650000000000001,-0.03710000000000002,0.0024399999999999977,-0.08618000000000003,1742259209.108141
-0.04500000000000004,0.17500000000000004,0.4750000000000001,-0.018440000000000012,0.0014600000000000168,0.008179999999999854,0.10000000000000009,-0.135,0.45500000000000007,0.022460000000000147,-0.02307999999999999,-0.05822000000000005,1742259209.2221498
-0.04500000000000004,0.17500000000000004,0.47,-0.0006199999999999539,-0.009399999999999964,0.009400000000000075,0.07499999999999996,-0.15000000000000002,0.4750000000000001,-0.012940000000000063,0.005619999999999958,0.006720000000000059,1742259209.33527
-0.050000000000000044,0.17999999999999994,0.47,-0.013299999999999979,0.006460000000000132,-0.006960000000000077,0.06499999999999995,-0.19999999999999996,0.4750000000000001,0.025640000000000107,0.023320000000000007,0.1435599999999999,1742259209.4492931
-0.040000000000000036,0.17999999999999994,0.4650000000000001,-0.0022000000000000908,0.0018400000000000638,0.0012199999999999989,0.11499999999999999,-0.17500000000000004,0.43500000000000005,0.14734000000000003,0.04492000000000007,0.17626000000000008,1742259209.5631611
-0.04500000000000004,0.19500000000000006,0.45999999999999996,-0.009279999999999955,0.0014600000000000168,-0.0042799999999999505,0.20999999999999996,-0.07000000000000006,0.42500000000000004,0.029179999999999984,0.04601999999999995,0.012939999999999952,1742259209.677264
-0.040000000000000036,0.18999999999999995,0.4650000000000001,-0.0026799999999999047,0.002080000000000082,-0.0007399999999999629,0.21500000000000008,-0.17500000000000004,0.395,0.05346000000000006,-0.007200000000000095,-0.008419999999999983,1742259209.791384
-0.040000000000000036,0.18999999999999995,0.45999999999999996,-0.005240000000000022,-0.00024000000000001798,0.0012199999999999989,0.20999999999999996,-0.15500000000000003,0.43999999999999995,0.05285999999999991,-0.04125999999999996,0.03869999999999996,1742259209.905408
-0.04500000000000004,0.18500000000000005,0.45999999999999996,0.0018400000000000638,-0.0009799999999999809,0.0041599999999999415,0.18500000000000005,-0.20999999999999996,0.41999999999999993,0.044319999999999915,-0.01770000000000005,0.02222000000000013,1742259210.019096
-0.040000000000000036,0.18999999999999995,0.45999999999999996,-0.00770000000000004,0.0012199999999999989,-0.0010999999999999899,0.18999999999999995,-0.19500000000000006,0.41500000000000004,-0.0037800000000000056,0.005239999999999911,0.02320000000000011,1742259210.135993
-0.04500000000000004,0.19500000000000006,0.4650000000000001,-0.043340000000000045,-0.009519999999999973,0.0041599999999999415,0.20500000000000007,-0.18999999999999995,0.3799999999999999,0.014639999999999986,-0.011360000000000037,0.03064,1742259210.246429
-0.050000000000000044,0.2250000000000001,0.44500000000000006,-0.010499999999999954,-0.00012000000000000899,0.0006200000000000649,0.19500000000000006,-0.19999999999999996,0.3599999999999999,0.035519999999999996,-0.059940000000000104,-0.00012000000000000899,1742259210.368076
-0.04500000000000004,0.21500000000000008,0.44999999999999996,-0.0012199999999999989,0.0017000000000000348,0.0019599999999999618,0.15500000000000003,-0.18999999999999995,0.4650000000000001,0.005859999999999976,0.022820000000000062,0.0043999999999999595,1742259210.476816
-0.040000000000000036,0.21500000000000008,0.45500000000000007,-0.007080000000000086,0.0013400000000001189,-0.0023200000000000998,0.20500000000000007,-0.19500000000000006,0.3700000000000001,0.06335999999999986,0.08484000000000003,0.020999999999999908,1742259210.588226
-0.050000000000000044,0.21999999999999997,0.44999999999999996,-0.0122000000000001,0.00048000000000003595,-0.0030599999999999516,0.20500000000000007,-0.21999999999999997,0.365,-0.010000000000000009,-0.054200000000000026,-0.0075599999999999,1742259210.702166
-0.040000000000000036,0.23499999999999988,0.43999999999999995,-0.028200000000000003,0.0019599999999999618,-0.008299999999999974,0.18999999999999995,-0.22499999999999998,0.4099999999999999,-0.06872,-0.04625999999999997,-0.04027999999999998,1742259210.820736
-0.03500000000000003,0.22999999999999998,0.44500000000000006,-0.010499999999999954,0.008179999999999854,-0.012940000000000063,0.19500000000000006,-0.22499999999999998,0.3900000000000001,0.05699999999999994,0.03747999999999996,0.01977999999999991,1742259210.930222
-0.030000000000000027,0.24,0.43999999999999995,-0.032480000000000064,0.010620000000000074,-0.02734000000000003,0.19500000000000006,-0.235,0.365,-0.00878000000000001,-0.058599999999999985,-0.0046399999999999775,1742259211.0550451
-0.015000000000000013,0.23499999999999988,0.42999999999999994,-0.0007399999999999629,0.0034199999999999786,-0.009639999999999982,0.17999999999999994,-0.265,0.3999999999999999,0.01110000000000011,-0.0018400000000000638,-0.0010999999999999899,1742259211.158252
-0.020000000000000018,0.2450000000000001,0.43500000000000005,0.005980000000000096,-0.00024000000000001798,0.004999999999999893,0.18500000000000005,-0.22999999999999998,0.3799999999999999,0.00878000000000001,0.009759999999999991,0.006720000000000059,1742259211.2721012
-0.020000000000000018,0.25,0.43500000000000005,-0.0024400000000001087,-0.00012000000000000899,0.00024000000000001798,0.19500000000000006,-0.20499999999999996,0.395,-0.035760000000000014,0.025880000000000125,-0.00660000000000005,1742259211.386225
-0.020000000000000018,0.2450000000000001,0.43500000000000005,-0.0010999999999999899,0.00048000000000003595,0.0006200000000000649,0.20500000000000007,-0.20999999999999996,0.3999999999999999,-0.022220000000000018,0.0046399999999999775,-0.016240000000000032,1742259211.5001202
-0.015000000000000013,0.25,0.43500000000000005,-0.0018400000000000638,-0.0008599999999999719,-0.00012000000000000899,0.18999999999999995,-0.24,0.3900000000000001,0.008539999999999992,0.00035999999999991594,-0.0029199999999999227,1742259211.616338
-0.015000000000000013,0.2450000000000001,0.43500000000000005,-0.0014600000000000168,-0.0030599999999999516,0.0014600000000000168,0.19500000000000006,-0.22999999999999998,0.3999999999999999,0.019039999999999946,0.016960000000000086,-0.01208000000000009,1742259211.728262
-0.020000000000000018,0.25,0.43500000000000005,-0.00024000000000001798,-0.0014600000000000168,0.00035999999999991594,0.20500000000000007,-0.20999999999999996,0.385,0.005859999999999976,0.016839999999999966,-0.01636000000000004,1742259211.842162
-0.025000000000000022,0.2450000000000001,0.43500000000000005,0.0036599999999999966,-0.0047599999999999865,-0.0010999999999999899,0.16999999999999993,-0.32499999999999996,0.365,0.06788000000000016,-0.010739999999999972,-0.05603999999999998,1742259211.956184
-0.015000000000000013,0.2549999999999999,0.42999999999999994,-0.00012000000000000899,-0.0009799999999999809,-0.0017000000000000348,0.18500000000000005,-0.27,0.375,0.00770000000000004,-0.011360000000000037,0.012199999999999989,1742259212.070303
-0.020000000000000018,0.2450000000000001,0.43500000000000005,-0.0042799999999999505,0.00024000000000001798,-0.00048000000000003595,0.17999999999999994,-0.29000000000000004,0.3700000000000001,-0.013419999999999987,0.0040199999999999125,0.013800000000000034,1742259212.184173
-0.025000000000000022,0.25,0.43500000000000005,0.0046399999999999775,-0.0008599999999999719,0.0024399999999999977,0.18500000000000005,-0.275,0.365,0.006839999999999957,-0.0036599999999999966,-0.005619999999999958,1742259212.29848
-0.025000000000000022,0.25,0.43500000000000005,-0.00048000000000003595,0.0012199999999999989,-0.0032999999999999696,0.18500000000000005,-0.2849999999999999,0.355,0.03381999999999996,-0.031379999999999963,0.0015800000000001369,1742259212.4166138
-0.020000000000000018,0.2450000000000001,0.43500000000000005,-0.0012199999999999989,0.0007399999999999629,-0.00537999999999994,0.17999999999999994,-0.27,0.375,0.0015800000000001369,-0.01317999999999997,0.013419999999999987,1742259212.525229
-0.015000000000000013,0.2450000000000001,0.42999999999999994,-0.0018400000000000638,0.0006200000000000649,0.00035999999999991594,0.17999999999999994,-0.27,0.365,-0.020259999999999945,-0.0013400000000000079,0.0035399999999998766,1742259212.638988
-0.020000000000000018,0.2450000000000001,0.42999999999999994,0.006220000000000114,-0.0050000000000000044,0.009400000000000075,0.17500000000000004,-0.28,0.3700000000000001,0.0039000000000000146,-0.0034199999999999786,-0.0008599999999999719,1742259212.753126
-0.03500000000000003,0.24,0.43999999999999995,0.027959999999999985,-0.015020000000000033,0.02404000000000006,0.17999999999999994,-0.265,0.405,0.026000000000000023,0.013539999999999885,-0.00048000000000003595,1742259212.866986
-0.040000000000000036,0.25,0.42500000000000004,0.07666000000000017,-0.047719999999999985,0.0025599999999998957,0.19500000000000006,-0.29499999999999993,0.31499999999999995,0.018179999999999863,0.017340000000000133,0.0014600000000000168,1742259212.981129
-0.05500000000000005,0.19500000000000006,0.4650000000000001,0.023800000000000043,-0.015139999999999931,-0.013919999999999932,0.19500000000000006,-0.2849999999999999,0.3500000000000001,-0.009519999999999973,-0.02403999999999995,-0.00537999999999994,1742259213.0963998
-0.05500000000000005,0.19999999999999996,0.45999999999999996,0.0032999999999998586,0.0024399999999999977,0.0013400000000001189,0.18500000000000005,-0.28,0.395,0.00024000000000001798,0.0034199999999999786,-0.01537999999999995,1742259213.209062
0.07000000000000006,0.17500000000000004,0.47,0.0041599999999999415,-0.0549400000000001,0.007319999999999993,0.08499999999999996,-0.12,0.5049999999999999,0.06933999999999996,0.051140000000000185,-0.010499999999999954,1742250302.186272
0.05499999999999994,0.16500000000000004,0.47,0.0009799999999999809,-0.009279999999999955,0.0013400000000001189,0.1100000000000001,-0.25,0.405,0.04161999999999999,0.03186,-0.03417999999999999,1742250302.3002691
0.06000000000000005,0.15999999999999992,0.4650000000000001,0.0021999999999999797,0.0006200000000000649,-0.0015800000000000258,0.1200000000000001,-0.20499999999999996,0.43999999999999995,0.009039999999999937,0.008419999999999872,-0.0039000000000000146,1742250302.414263
0.06000000000000005,0.16500000000000004,0.4650000000000001,0.0045200000000000795,0.00011999999999989797,-0.0025599999999998957,0.1200000000000001,-0.20499999999999996,0.43999999999999995,0.008299999999999974,0.0037799999999998946,0.0007399999999999629,1742250302.527199
0.06000000000000005,0.15999999999999992,0.4650000000000001,0.0014600000000000168,-0.0006199999999999539,-0.0013400000000000079,0.1200000000000001,-0.20499999999999996,0.43999999999999995,-0.0010999999999999899,0.0035399999999998766,-0.005859999999999976,1742250302.640414
0.06000000000000005,0.15500000000000003,0.4650000000000001,0.00035999999999991594,0.0,-0.0006199999999999539,0.1200000000000001,-0.20999999999999996,0.43999999999999995,0.0007399999999999629,0.0018400000000000638,-0.0018400000000000638,1742250302.75469
0.06000000000000005,0.16500000000000004,0.4650000000000001,0.0009799999999999809,0.00024000000000001798,-0.0009799999999999809,0.1200000000000001,-0.20999999999999996,0.43500000000000005,-0.00024000000000001798,0.0006200000000000649,-0.0018400000000000638,1742250302.86841
0.06000000000000005,0.15999999999999992,0.4650000000000001,-0.0013400000000000079,0.0,0.00011999999999989797,0.1200000000000001,-0.20999999999999996,0.43500000000000005,-0.0012199999999999989,0.001100000000000101,-0.0014600000000000168,1742250302.982408
0.06000000000000005,0.15999999999999992,0.4650000000000001,0.00048000000000003595,-0.0007399999999999629,-0.0008599999999999719,0.1200000000000001,-0.20999999999999996,0.43999999999999995,0.0014600000000000168,0.0013400000000001189,-0.0012199999999999989,1742250303.096309
0.06000000000000005,0.15999999999999992,0.4650000000000001,-0.0010999999999999899,-0.0009799999999999809,-0.0014600000000000168,0.1200000000000001,-0.20999999999999996,0.43500000000000005,0.0017000000000000348,0.0026800000000000157,-0.0040200000000000236,1742250303.2146251
0.06000000000000005,0.15999999999999992,0.4650000000000001,-0.002080000000000082,0.00537999999999994,-0.005619999999999958,0.1200000000000001,-0.21499999999999997,0.43500000000000005,0.001100000000000101,0.0009799999999999809,-0.002080000000000082,1742250303.3242838
0.06499999999999995,0.15999999999999992,0.4650000000000001,-0.005240000000000022,0.009039999999999937,-0.0030599999999999516,0.125,-0.21499999999999997,0.43500000000000005,0.008539999999999992,0.0027999999999999137,0.0006200000000000649,1742250303.438207
0.050000000000000044,0.16999999999999993,0.4750000000000001,-0.01770000000000005,0.02611999999999992,-0.00782000000000005,0.1200000000000001,-0.21499999999999997,0.43999999999999995,0.009879999999999889,0.0017000000000000348,-0.0026799999999999047,1742250303.5528052
0.08499999999999996,0.20500000000000007,0.45999999999999996,-0.051019999999999954,0.06824000000000008,-0.07225999999999999,0.125,-0.21999999999999997,0.42500000000000004,0.007079999999999975,-0.00024000000000001798,-0.0018400000000000638,1742250303.6663208
0.125,0.19500000000000006,0.41999999999999993,-0.03955999999999993,0.045539999999999914,-0.055299999999999905,0.1200000000000001,-0.21999999999999997,0.42999999999999994,0.0032999999999998586,0.00035999999999991594,-0.008660000000000001,1742250303.7801962
0.1499999999999999,0.2250000000000001,0.43999999999999995,-0.059940000000000104,0.0017000000000000348,-0.042240000000000055,0.125,-0.22499999999999998,0.42500000000000004,0.02635999999999994,0.015139999999999931,-0.0032999999999999696,1742250303.8942442
0.16500000000000004,0.33000000000000007,0.4099999999999999,-0.27648000000000006,0.02222000000000013,-0.07446000000000008,0.11499999999999999,-0.26,0.41999999999999993,0.027220000000000022,0.005740000000000078,-0.002080000000000082,1742250304.0082371
0.20999999999999996,0.41500000000000004,0.2849999999999999,-0.33666000000000007,0.023560000000000025,-0.13585999999999998,0.11499999999999999,-0.26,0.405,0.01855999999999991,-0.01770000000000005,0.011600000000000055,1742250304.12231
0.2650000000000001,0.385,0.17999999999999994,-0.17688000000000004,0.01305999999999985,-0.13037999999999994,0.1299999999999999,-0.235,0.41500000000000004,0.01110000000000011,-0.008419999999999983,0.0029200000000000337,1742250304.236216
0.30499999999999994,0.3500000000000001,0.1100000000000001,-0.14698,-0.01636000000000004,-0.10681999999999992,0.135,-0.245,0.405,0.011719999999999953,0.006960000000000077,-0.00878000000000001,1742250304.354107
0.345,0.375,0.08000000000000007,-0.19835999999999998,-0.033320000000000016,-0.13049999999999995,0.1299999999999999,-0.255,0.4099999999999999,0.009879999999999889,0.019039999999999946,-0.007320000000000104,1742250304.464225
0.405,0.32000000000000006,0.04499999999999993,-0.10450000000000004,-0.053220000000000045,-0.1322000000000001,0.14000000000000012,-0.28,0.3999999999999999,0.015260000000000051,0.021360000000000046,0.0036599999999999966,1742250304.5781262
0.405,0.2450000000000001,0.030000000000000027,-0.13585999999999998,-0.055299999999999905,-0.14989999999999992,0.14000000000000012,-0.275,0.3999999999999999,0.0012199999999999989,0.0036599999999999966,0.010380000000000056,1742250304.694305
0.405,0.18999999999999995,0.03499999999999992,-0.07410000000000005,-0.0050000000000000044,-0.09265999999999996,0.1299999999999999,-0.26,0.4099999999999999,0.005740000000000078,0.010860000000000092,0.012700000000000156,1742250304.8041291
0.43500000000000005,0.19500000000000006,0.02499999999999991,-0.006720000000000059,-0.01660000000000006,-0.031000000000000028,0.15500000000000003,-0.26,0.365,0.006720000000000059,0.0037799999999998946,-0.009399999999999964,1742250304.917218
0.4750000000000001,0.18999999999999995,0.020000000000000018,-0.008660000000000001,-0.005120000000000013,-0.026980000000000004,0.14500000000000002,-0.29499999999999993,0.41999999999999993,-0.011240000000000028,-0.009519999999999973,0.0019599999999999618,1742250305.031314
0.4650000000000001,0.16500000000000004,0.03499999999999992,-0.01415999999999995,-0.007940000000000058,-0.01636000000000004,0.1499999999999999,-0.27,0.385,0.0024399999999999977,0.01537999999999995,0.0045200000000000795,1742250305.145131
0.4650000000000001,0.17500000000000004,0.030000000000000027,0.009519999999999973,-0.006220000000000003,0.0015800000000001369,0.14500000000000002,-0.27,0.3799999999999999,0.0017000000000000348,-0.0036599999999999966,0.0048799999999999955,1742250305.25824
0.4650000000000001,0.16999999999999993,0.03499999999999992,-0.0018400000000000638,-0.005499999999999949,0.00550000000000006,0.1499999999999999,-0.265,0.405,0.002080000000000082,-0.0039000000000000146,0.005239999999999911,1742250305.373535
0.4650000000000001,0.16999999999999993,0.040000000000000036,-0.0015800000000000258,-0.010379999999999945,0.0039000000000000146,0.1499999999999999,-0.27,0.3999999999999999,-0.0030599999999999516,0.0013400000000001189,0.00048000000000003595,1742250305.486284
0.4650000000000001,0.17500000000000004,0.040000000000000036,-0.008299999999999974,-0.010379999999999945,0.0035399999999998766,0.1499999999999999,-0.265,0.385,-0.0045199999999999685,-0.0026799999999999047,0.0009799999999999809,1742250305.600584
0.4650000000000001,0.17500000000000004,0.040000000000000036,0.0040199999999999125,-0.0025599999999998957,0.0015800000000001369,0.1499999999999999,-0.265,0.395,-0.0024400000000001087,-0.0013400000000000079,0.0021999999999999797,1742250305.714368
0.42999999999999994,0.16500000000000004,0.03499999999999992,0.12988000000000022,0.007319999999999993,0.031380000000000186,0.1499999999999999,-0.26,0.395,0.0009799999999999809,0.0031799999999999606,-0.00036000000000002697,1742250305.8282418
0.42999999999999994,0.17999999999999994,0.07499999999999996,0.25146,0.06164000000000014,0.10631999999999997,0.15500000000000003,-0.25,0.375,-0.00537999999999994,-0.005120000000000013,-0.007940000000000058,1742250305.942306
0.375,0.20500000000000007,0.09499999999999997,0.24292000000000002,0.00770000000000004,0.14844000000000013,0.14000000000000012,-0.2849999999999999,0.3999999999999999,-0.005240000000000022,-0.018440000000000012,-0.010739999999999972,1742250306.056271
0.3599999999999999,0.3400000000000001,0.17999999999999994,0.2657400000000001,-0.05565999999999993,0.16992000000000007,0.135,-0.265,0.41500000000000004,-0.005739999999999967,-0.01415999999999995,0.006220000000000114,1742250306.173401
0.30000000000000004,0.30000000000000004,0.30499999999999994,0.38232,-0.13160000000000005,0.14270000000000005,0.1299999999999999,-0.255,0.41500000000000004,-0.0050000000000000044,-0.006220000000000003,-0.00770000000000004,1742250306.284322
0.20500000000000007,0.15500000000000003,0.4849999999999999,0.23205999999999993,-0.13196000000000008,0.10143999999999997,0.1299999999999999,-0.265,0.3999999999999999,-0.0010999999999999899,-0.006220000000000003,0.0048799999999999955,1742250306.3982248
0.19500000000000006,0.1499999999999999,0.44999999999999996,0.054200000000000026,-0.10192000000000001,0.12378,0.125,-0.255,0.41500000000000004,-0.0012199999999999989,-0.011720000000000064,0.009039999999999937,1742250306.516932
0.14000000000000012,0.14500000000000002,0.45999999999999996,0.019039999999999946,-0.05896000000000001,0.08911999999999987,0.125,-0.26,0.405,0.0042800000000000615,-0.0122000000000001,0.007940000000000058,1742250306.62613
0.09000000000000008,0.1499999999999999,0.49,-0.00878000000000001,0.010380000000000056,-0.0015800000000000258,0.125,-0.255,0.41500000000000004,0.0024399999999999977,-0.011840000000000073,0.015859999999999985,1742250306.739105
0.11499999999999999,0.14000000000000012,0.45500000000000007,0.0034199999999999786,0.0025599999999998957,0.010499999999999954,0.1200000000000001,-0.235,0.41500000000000004,0.0041599999999999415,0.0009799999999999809,0.0040199999999999125,1742250306.854199
0.10499999999999998,0.14500000000000002,0.45500000000000007,0.00865999999999989,-0.010619999999999963,0.0018400000000000638,0.1200000000000001,-0.25,0.41999999999999993,-0.005240000000000022,-0.00012000000000000899,-0.011960000000000082,1742250306.966282
0.1100000000000001,0.135,0.4849999999999999,0.008059999999999956,0.01428000000000007,0.0021999999999999797,0.1200000000000001,-0.265,0.405,-0.0034199999999999786,0.001100000000000101,-0.0026799999999999047,1742250307.080241
0.10499999999999998,0.135,0.4650000000000001,0.0014600000000000168,-0.0050000000000000044,0.0030599999999998406,0.1200000000000001,-0.265,0.4099999999999999,0.005740000000000078,-0.0024400000000001087,0.006599999999999939,1742250307.19405
0.10000000000000009,0.135,0.4750000000000001,0.006099999999999994,-0.0041599999999999415,0.0040199999999999125,0.125,-0.255,0.405,0.006099999999999994,-0.007940000000000058,0.014899999999999913,1742250307.308066
0.08000000000000007,0.125,0.4650000000000001,0.01537999999999995,-0.0047599999999999865,-0.0031799999999999606,0.125,-0.24,0.41500000000000004,0.0024399999999999977,-0.006099999999999994,0.005239999999999911,1742250307.422068
0.08499999999999996,0.1499999999999999,0.48,-0.00024000000000001798,-0.0013400000000000079,-0.007200000000000095,0.11499999999999999,-0.26,0.42500000000000004,-0.009039999999999937,0.0,0.0006200000000000649,1742250307.537806
0.10000000000000009,0.1499999999999999,0.4650000000000001,-0.010379999999999945,0.020499999999999963,-0.014519999999999977,0.1200000000000001,-0.245,0.41500000000000004,-0.015739999999999976,0.010620000000000074,-0.010739999999999972,1742250307.6538591
0.1100000000000001,0.1299999999999999,0.45999999999999996,0.007440000000000113,0.0009799999999999809,-0.001960000000000073,0.125,-0.25,0.43500000000000005,-0.03394000000000008,0.009279999999999955,-0.009519999999999973,1742250307.764226
0.11499999999999999,0.125,0.47,0.0024399999999999977,-0.0018400000000000638,-0.00012000000000000899,0.135,-0.24,0.44500000000000006,-0.04296,0.01966000000000001,0.0014600000000000168,1742250307.8780549
0.11499999999999999,0.135,0.4750000000000001,0.013419999999999987,0.011719999999999953,0.006460000000000132,0.14500000000000002,-0.20999999999999996,0.42500000000000004,-0.04944000000000004,0.007940000000000058,-0.00048000000000003595,1742250307.995924
0.1299999999999999,0.1100000000000001,0.45500000000000007,0.021120000000000028,0.027579999999999938,0.0021999999999999797,0.1499999999999999,-0.17000000000000004,0.43999999999999995,-0.06701999999999997,-0.03870000000000007,-0.019399999999999973,1742250308.106333
0.1299999999999999,0.09499999999999997,0.45999999999999996,0.026000000000000023,0.009759999999999991,0.030160000000000187,0.1100000000000001,-0.14,0.43999999999999995,-0.07458000000000009,-0.07374000000000003,-0.054320000000000035,1742250308.220329
0.14000000000000012,0.10499999999999998,0.45500000000000007,0.020259999999999945,0.008059999999999956,0.043460000000000054,0.04499999999999993,-0.16500000000000004,0.47,-0.03808,-0.023440000000000016,-0.01085999999999998,1742250308.334223
0.16999999999999993,0.1200000000000001,0.4750000000000001,0.00048000000000003595,0.0042800000000000615,0.012700000000000156,0.03499999999999992,-0.14500000000000002,0.4849999999999999,-0.05506,-0.03503999999999996,0.014399999999999968,1742250308.448221
0.19500000000000006,0.125,0.43999999999999995,-0.03527999999999998,0.03405999999999998,-0.03064,0.03499999999999992,-0.09499999999999997,0.4950000000000001,-0.008299999999999974,-0.031000000000000028,0.022340000000000027,1742250308.562228
0.17500000000000004,0.1200000000000001,0.41999999999999993,-0.005619999999999958,-0.0036599999999999966,0.034540000000000015,0.014999999999999902,-0.09499999999999997,0.49,0.030019999999999936,0.010000000000000009,-0.008919999999999928,1742250308.675972
0.07499999999999996,0.14500000000000002,0.52,0.03308,-0.09338000000000002,0.10289999999999999,0.020000000000000018,-0.135,0.45500000000000007,0.07385999999999981,0.0006200000000000649,-0.01770000000000005,1742250308.792353
0.1100000000000001,0.06499999999999995,0.3900000000000001,-0.0037800000000000056,0.0032999999999998586,-0.0015800000000000258,-0.020000000000000018,-0.13,0.5049999999999999,-0.04736000000000007,-0.041019999999999945,-0.051019999999999954,1742250308.90428
0.08000000000000007,0.11499999999999999,0.45999999999999996,0.0012199999999999989,-0.0009799999999999809,0.01977999999999991,-0.015000000000000013,-0.10499999999999998,0.48,-0.001960000000000073,0.01855999999999991,-0.024899999999999922,1742250309.0181918
0.050000000000000044,0.1200000000000001,0.5,0.02844000000000002,-0.03308,0.006340000000000012,0.02499999999999991,-0.09999999999999998,0.4750000000000001,-0.020379999999999954,-0.0048799999999999955,-0.016720000000000068,1742250309.13387
0.10499999999999998,0.1100000000000001,0.45999999999999996,-0.0023200000000000998,0.01208000000000009,0.0018400000000000638,0.014999999999999902,-0.12,0.5,-0.014039999999999941,-0.006340000000000012,-0.014399999999999968,1742250309.24618
0.10499999999999998,0.08499999999999996,0.49,-0.0018400000000000638,0.024540000000000006,0.006960000000000077,0.02499999999999991,-0.10499999999999998,0.4950000000000001,-0.01537999999999995,0.0013400000000001189,0.0012199999999999989,1742250309.359997
0.09000000000000008,0.1200000000000001,0.4950000000000001,0.0029200000000000337,-0.00660000000000005,-0.008179999999999965,0.004999999999999893,-0.10499999999999998,0.49,-0.013539999999999996,-0.006340000000000012,-0.005240000000000022,1742250309.47486
0.08000000000000007,0.10000000000000009,0.4650000000000001,0.017079999999999984,-0.03698000000000001,0.0048799999999999955,-0.010000000000000009,-0.08499999999999996,0.49,-0.018320000000000003,-0.006460000000000021,0.006460000000000132,1742250309.5882509
0.07499999999999996,0.09000000000000008,0.48,-0.0040200000000000236,-0.018179999999999974,-0.008299999999999974,0.0,-0.07999999999999996,0.5,-0.0014600000000000168,0.0047600000000000975,-0.010259999999999936,1742250309.7022452
0.07499999999999996,0.11499999999999999,0.48,-0.00012000000000000899,0.010259999999999936,-0.00036000000000002697,0.010000000000000009,-0.08499999999999996,0.4849999999999999,0.018920000000000048,-0.0031799999999999606,-0.01097999999999999,1742250309.816088
0.08000000000000007,0.09499999999999997,0.48,-0.0037800000000000056,0.00782000000000016,-0.0047599999999999865,-0.0050000000000000044,-0.09999999999999998,0.48,0.04188000000000014,-0.024419999999999997,-0.01305999999999996,1742250309.9335349
0.07000000000000006,0.10000000000000009,0.4750000000000001,-0.0036599999999999966,0.0017000000000000348,0.0007399999999999629,-0.03500000000000003,-0.125,0.49,0.021239999999999926,-0.03051999999999999,-0.01305999999999996,1742250310.044193
0.08000000000000007,0.10499999999999998,0.49,-0.026000000000000023,0.01746000000000003,0.0043999999999999595,-0.025000000000000022,-0.135,0.49,0.009879999999999889,0.005619999999999958,-0.010259999999999936,1742250310.158119
0.08499999999999996,0.11499999999999999,0.48,-0.018179999999999974,0.02526000000000006,-0.0012199999999999989,-0.020000000000000018,-0.10499999999999998,0.48,-0.008539999999999992,0.0035399999999998766,-0.005739999999999967,1742250310.274142
0.10499999999999998,0.135,0.47,-0.01770000000000005,0.022340000000000027,0.0007399999999999629,-0.03500000000000003,-0.11499999999999999,0.49,0.0042800000000000615,-0.0050000000000000044,-0.035640000000000005,1742250310.386226
0.1200000000000001,0.14000000000000012,0.45999999999999996,-0.013679999999999914,0.01305999999999985,-0.0014600000000000168,-0.025000000000000022,-0.12,0.4750000000000001,-0.0034199999999999786,0.0329600000000001,-0.07665999999999995,1742250310.500223
0.1200000000000001,0.14000000000000012,0.45999999999999996,-0.0018400000000000638,-0.0041599999999999415,-0.0040200000000000236,-0.03500000000000003,-0.14,0.48,0.01977999999999991,0.009279999999999955,-0.03064,1742250310.61407
0.1200000000000001,0.135,0.4650000000000001,-0.0034199999999999786,-0.00988,0.00878000000000001,-0.030000000000000027,-0.13,0.4750000000000001,0.02611999999999992,-0.018179999999999974,-0.019540000000000002,1742250310.728163
0.10000000000000009,0.14000000000000012,0.47,-0.014900000000000024,-0.037839999999999985,0.04418000000000011,-0.050000000000000044,-0.135,0.49,0.0039000000000000146,-0.03173999999999999,-0.02210000000000001,1742250310.842214
0.07499999999999996,0.17500000000000004,0.45999999999999996,-0.005619999999999958,-0.028200000000000003,0.054440000000000044,-0.06000000000000005,-0.135,0.48,0.0012199999999999989,0.0029200000000000337,-0.036739999999999995,1742250310.956061
0.04499999999999993,0.18999999999999995,0.47,-0.007440000000000002,0.002080000000000082,0.09143999999999997,-0.06499999999999995,-0.14,0.4750000000000001,-0.0023200000000000998,0.010499999999999954,-0.02954000000000001,1742250311.073071
0.040000000000000036,0.19500000000000006,0.45500000000000007,-0.008539999999999992,0.01550000000000007,0.0697000000000001,-0.06499999999999995,-0.135,0.48,-0.006220000000000003,0.01648000000000005,-0.05408000000000002,1742250311.184175
0.040000000000000036,0.17999999999999994,0.47,0.0045200000000000795,0.00011999999999989797,0.016599999999999948,-0.06000000000000005,-0.14,0.4750000000000001,-0.015499999999999958,0.011239999999999917,-0.06115999999999999,1742250311.298236
0.040000000000000036,0.16500000000000004,0.4650000000000001,0.00770000000000004,-0.0017000000000000348,-0.0018400000000000638,-0.07000000000000006,-0.17000000000000004,0.44999999999999996,-0.0023200000000000998,-0.02501999999999993,0.011840000000000073,1742250311.413474
0.040000000000000036,0.17500000000000004,0.45999999999999996,0.0017000000000000348,-0.0018400000000000638,-0.0027999999999999137,-0.05500000000000005,-0.12,0.5049999999999999,-0.0031799999999999606,0.03638000000000008,0.031500000000000083,1742250311.526133
0.040000000000000036,0.17500000000000004,0.4650000000000001,0.008299999999999974,-0.0014600000000000168,-0.006340000000000012,-0.05500000000000005,-0.135,0.4849999999999999,0.019160000000000066,0.04296000000000011,0.021479999999999944,1742250311.639894
0.040000000000000036,0.16999999999999993,0.4650000000000001,0.005980000000000096,-0.00012000000000000899,-0.0042799999999999505,-0.020000000000000018,-0.16500000000000004,0.48,0.11280000000000001,0.052240000000000064,0.022699999999999942,1742250311.7540412
0.040000000000000036,0.16500000000000004,0.4650000000000001,0.0013400000000001189,0.0008600000000000829,-0.0006199999999999539,0.004999999999999893,-0.21499999999999997,0.44500000000000006,0.07166000000000006,0.02210000000000001,0.010739999999999972,1742250311.8667982
0.040000000000000036,0.16500000000000004,0.4650000000000001,0.00024000000000001798,-0.0006199999999999539,-0.0009799999999999809,-0.015000000000000013,-0.245,0.44999999999999996,-0.035760000000000014,0.045420000000000016,-0.0027999999999999137,1742250311.9801002
0.040000000000000036,0.16500000000000004,0.4650000000000001,-0.00024000000000001798,0.00035999999999991594,-0.0010999999999999899,0.040000000000000036,-0.17999999999999994,0.4650000000000001,-0.016960000000000086,0.03709999999999991,0.007079999999999975,1742250312.094004
0.040000000000000036,0.16500000000000004,0.4650000000000001,0.0013400000000001189,-0.00048000000000003595,-0.0034199999999999786,0.05499999999999994,-0.19999999999999996,0.45500000000000007,-0.0012199999999999989,0.006839999999999957,-0.00012000000000000899,1742250312.208025
0.040000000000000036,0.16500000000000004,0.4650000000000001,-0.0014600000000000168,-0.0010999999999999899,-0.0026799999999999047,0.050000000000000044,-0.18999999999999995,0.4650000000000001,0.00011999999999989797,0.027959999999999985,0.0036599999999999966,1742250312.3218188
0.040000000000000036,0.16500000000000004,0.4650000000000001,-0.007940000000000058,-0.0034199999999999786,-0.0026799999999999047,0.06499999999999995,-0.19999999999999996,0.44999999999999996,0.01868000000000003,0.05285999999999991,0.0021999999999999797,1742250312.435734
0.040000000000000036,0.16999999999999993,0.4650000000000001,-0.0037800000000000056,-0.0023200000000000998,0.0014600000000000168,0.10499999999999998,-0.21499999999999997,0.43500000000000005,0.024660000000000126,0.031500000000000083,-0.0075599999999999,1742250312.548884
0.03499999999999992,0.17500000000000004,0.45999999999999996,0.0006200000000000649,-0.002080000000000082,-0.0023200000000000998,0.08000000000000007,-0.22499999999999998,0.43999999999999995,-0.0023200000000000998,-0.00048000000000003595,0.0012199999999999989,1742250312.662991
0.03499999999999992,0.16999999999999993,0.4650000000000001,-0.0008599999999999719,-0.0031799999999999606,-0.0030599999999999516,0.1200000000000001,-0.19500000000000006,0.42999999999999994,-0.023559999999999914,0.010620000000000074,0.013539999999999885,1742250312.7768478
0.03499999999999992,0.17500000000000004,0.4650000000000001,0.00024000000000001798,-0.0007399999999999629,-0.0050000000000000044,0.14000000000000012,-0.18500000000000005,0.45999999999999996,-0.047860000000000014,0.030160000000000187,0.033440000000000136,1742250312.8939729
0.03499999999999992,0.16999999999999993,0.4650000000000001,0.0008600000000000829,-0.0007399999999999629,-0.0030599999999999516,0.135,-0.20999999999999996,0.43500000000000005,0.015740000000000087,-0.0031799999999999606,-0.0012199999999999989,1742250313.0051022
0.030000000000000027,0.17999999999999994,0.45999999999999996,-0.0041599999999999415,0.0023200000000000998,-0.00660000000000005,0.11499999999999999,-0.19999999999999996,0.43999999999999995,-0.00036000000000002697,-0.0006199999999999539,0.0024399999999999977,1742250313.118808
0.040000000000000036,0.17500000000000004,0.45999999999999996,-0.00782000000000005,0.008059999999999956,-0.013419999999999987,0.1200000000000001,-0.20499999999999996,0.43999999999999995,0.00035999999999991594,0.00035999999999991594,-0.00048000000000003595,1742250313.23413
0.040000000000000036,0.17999999999999994,0.45999999999999996,-0.0024400000000001087,0.007319999999999993,-0.013799999999999923,0.1200000000000001,-0.20499999999999996,0.43999999999999995,-0.00024000000000001798,-0.00036000000000002697,0.0007399999999999629,1742250313.346892
0.050000000000000044,0.17999999999999994,0.45999999999999996,-0.03295999999999999,0.04711999999999983,-0.04405999999999999,0.125,-0.19999999999999996,0.43999999999999995,0.00011999999999989797,0.0009799999999999809,0.0007399999999999629,1742250313.460715
0.07000000000000006,0.18999999999999995,0.44999999999999996,-0.029899999999999927,0.009279999999999955,-0.08020000000000005,0.1200000000000001,-0.20499999999999996,0.43999999999999995,-0.00024000000000001798,0.00048000000000003595,0.0008600000000000829,1742250313.573766
0.1299999999999999,0.20999999999999996,0.42500000000000004,-0.03527999999999998,0.023679999999999923,-0.10765999999999998,0.1200000000000001,-0.20499999999999996,0.43999999999999995,-0.00036000000000002697,0.0012199999999999989,0.00024000000000001798,1742250313.687765
0.125,0.17999999999999994,0.44999999999999996,0.011719999999999953,-0.0046399999999999775,-0.03272000000000008,0.1200000000000001,-0.20499999999999996,0.43999999999999995,0.00011999999999989797,0.00048000000000003595,0.00024000000000001798,1742250313.801676
0.11499999999999999,0.17999999999999994,0.44999999999999996,0.014520000000000088,0.0012199999999999989,-0.0047599999999999865,0.1200000000000001,-0.20499999999999996,0.43999999999999995,-0.0008599999999999719,0.0014600000000000168,-0.0009799999999999809,1742250313.914878
0.1299999999999999,0.17500000000000004,0.44500000000000006,-0.0009799999999999809,0.013679999999999914,0.0030599999999998406,0.1200000000000001,-0.19999999999999996,0.43999999999999995,-0.0007399999999999629,0.0012199999999999989,-0.0013400000000000079,1742250314.028856
0.135,0.17500000000000004,0.44500000000000006,0.007200000000000095,0.01550000000000007,-0.001960000000000073,0.125,-0.20499999999999996,0.43999999999999995,0.00011999999999989797,0.001100000000000101,0.0,1742250314.142658
0.14500000000000002,0.17500000000000004,0.44500000000000006,0.0032999999999998586,0.009879999999999889,-0.0018400000000000638,0.125,-0.20499999999999996,0.43999999999999995,-0.0010999999999999899,0.0008600000000000829,-0.00048000000000003595,1742250314.255933
0.14000000000000012,0.17500000000000004,0.44500000000000006,-0.00024000000000001798,0.01305999999999985,-0.0018400000000000638,0.125,-0.19999999999999996,0.43999999999999995,-0.0010999999999999899,-0.00024000000000001798,0.00048000000000003595,1742250314.373549
0.15999999999999992,0.17500000000000004,0.43999999999999995,0.00048000000000003595,0.01855999999999991,-0.0040200000000000236,0.125,-0.19999999999999996,0.43999999999999995,-0.0009799999999999809,0.00011999999999989797,-0.00048000000000003595,1742250314.483864
0.16500000000000004,0.17500000000000004,0.43500000000000005,0.0021999999999999797,0.010140000000000038,-0.0032999999999999696,0.125,-0.19999999999999996,0.43999999999999995,-0.0008599999999999719,0.00048000000000003595,-0.0010999999999999899,1742250314.598016
0.16500000000000004,0.17500000000000004,0.43999999999999995,-0.0023200000000000998,0.0024399999999999977,-0.0026799999999999047,0.125,-0.19999999999999996,0.43999999999999995,-0.00024000000000001798,0.0006200000000000649,-0.0009799999999999809,1742250314.7143471
0.15999999999999992,0.16999999999999993,0.43999999999999995,0.0,0.009759999999999991,-0.0039000000000000146,0.1200000000000001,-0.19999999999999996,0.43999999999999995,-0.0007399999999999629,0.00011999999999989797,-0.0008599999999999719,1742250314.825875
0.17500000000000004,0.16500000000000004,0.43500000000000005,0.0007399999999999629,0.015619999999999967,-0.0041599999999999415,0.125,-0.19999999999999996,0.43999999999999995,-0.00036000000000002697,-0.00012000000000000899,-0.0008599999999999719,1742250314.939925
0.18500000000000005,0.16999999999999993,0.42999999999999994,-0.0010999999999999899,0.010860000000000092,-0.0031799999999999606,0.125,-0.19999999999999996,0.43999999999999995,-0.00048000000000003595,0.00011999999999989797,-0.0007399999999999629,1742250315.057056
0.17999999999999994,0.16999999999999993,0.42999999999999994,0.0006200000000000649,0.0040199999999999125,-0.0039000000000000146,0.125,-0.19999999999999996,0.43999999999999995,0.00024000000000001798,0.0012199999999999989,-0.0010999999999999899,1742250315.167846
0.17500000000000004,0.17500000000000004,0.42999999999999994,0.0041599999999999415,-0.00537999999999994,-0.005619999999999958,0.125,-0.19999999999999996,0.43999999999999995,0.00048000000000003595,0.0009799999999999809,-0.00048000000000003595,1742250315.281775
0.18500000000000005,0.16500000000000004,0.42999999999999994,0.00035999999999991594,0.010000000000000009,-0.0040200000000000236,0.125,-0.19999999999999996,0.43999999999999995,-0.00036000000000002697,0.0013400000000001189,-0.0007399999999999629,1742250315.395902
0.18999999999999995,0.16999999999999993,0.42500000000000004,0.0014600000000000168,0.0015800000000001369,0.00048000000000003595,0.125,-0.19999999999999996,0.43999999999999995,-0.00024000000000001798,-0.00024000000000001798,-0.00024000000000001798,1742250315.510022
0.18500000000000005,0.16500000000000004,0.42500000000000004,0.0043999999999999595,-0.018059999999999965,0.007560000000000011,0.125,-0.19999999999999996,0.43999999999999995,-0.00012000000000000899,0.0,0.0006200000000000649,1742250315.6274428
0.16999999999999993,0.18500000000000005,0.42500000000000004,0.031239999999999934,-0.08398000000000005,0.012199999999999989,0.125,-0.19999999999999996,0.43999999999999995,-0.00024000000000001798,0.00048000000000003595,-0.0008599999999999719,1742250315.737885
0.14000000000000012,0.15999999999999992,0.45500000000000007,0.006340000000000012,-0.039919999999999956,0.00770000000000004,0.125,-0.19999999999999996,0.43999999999999995,-0.00024000000000001798,-0.00024000000000001798,-0.00048000000000003595,1742250315.8538811
0.11499999999999999,0.14500000000000002,0.45500000000000007,0.027959999999999985,-0.009639999999999982,-0.006960000000000077,0.125,-0.19999999999999996,0.43999999999999995,-0.0008599999999999719,-0.0015800000000000258,0.00024000000000001798,1742250315.9658592
0.1200000000000001,0.135,0.45999999999999996,0.02416000000000018,0.0013400000000001189,-0.0043999999999999595,0.125,-0.19999999999999996,0.44500000000000006,-0.0008599999999999719,-0.0015800000000000258,-0.00012000000000000899,1742250316.079842
0.1200000000000001,0.125,0.45999999999999996,0.022340000000000027,0.00024000000000001798,-0.009759999999999991,0.125,-0.19999999999999996,0.43999999999999995,0.00011999999999989797,-0.0022000000000000908,-0.00036000000000002697,1742250316.193844
0.14500000000000002,0.11499999999999999,0.47,0.01746000000000003,-0.008660000000000001,-0.008919999999999928,0.11499999999999999,-0.19999999999999996,0.43999999999999995,0.0008600000000000829,-0.0039000000000000146,-0.0034199999999999786,1742250316.3078022
0.1299999999999999,0.10000000000000009,0.47,0.017940000000000067,-0.01525999999999994,-0.00988,0.1100000000000001,-0.20499999999999996,0.43999999999999995,0.010140000000000038,-0.008539999999999992,-0.0017000000000000348,1742250316.421785
0.1100000000000001,0.09000000000000008,0.4750000000000001,0.009759999999999991,-0.02185999999999999,-0.0025599999999998957,0.11499999999999999,-0.20499999999999996,0.43999999999999995,0.006960000000000077,-0.00036000000000002697,-0.0006199999999999539,1742250316.5542002
0.10499999999999998,0.09499999999999997,0.4650000000000001,-0.007080000000000086,-0.025519999999999987,0.0031799999999999606,0.11499999999999999,-0.20499999999999996,0.44500000000000006,-0.0018400000000000638,-0.0047599999999999865,-0.0012199999999999989,1742250316.653474
0.09000000000000008,0.09499999999999997,0.4750000000000001,-0.0022000000000000908,-0.009759999999999991,0.0024399999999999977,0.10000000000000009,-0.20999999999999996,0.44500000000000006,-0.00048000000000003595,-0.007940000000000058,-0.0012199999999999989,1742250316.763836
0.08000000000000007,0.10499999999999998,0.4650000000000001,-0.023320000000000007,0.0018400000000000638,-0.013799999999999923,0.08499999999999996,-0.20999999999999996,0.44500000000000006,-0.0048799999999999955,-0.02100000000000002,-0.0015800000000000258,1742250316.877844
0.10000000000000009,0.11499999999999999,0.48,-0.03625999999999996,-0.005739999999999967,-0.00660000000000005,0.10499999999999998,-0.19999999999999996,0.45500000000000007,-0.0042799999999999505,-0.007080000000000086,0.006220000000000114,1742250316.995417
0.09499999999999997,0.1200000000000001,0.5,-0.04810000000000003,0.0041599999999999415,-0.012319999999999998,0.09499999999999997,-0.19999999999999996,0.43999999999999995,-0.009039999999999937,-0.017820000000000058,0.00537999999999994,1742250317.10578
0.08000000000000007,0.135,0.4750000000000001,-0.0026799999999999047,-0.010619999999999963,-0.014780000000000015,0.09000000000000008,-0.17999999999999994,0.4849999999999999,-0.013799999999999923,0.0015800000000001369,0.009279999999999955,1742250317.219724
0.08000000000000007,0.125,0.4750000000000001,0.0017000000000000348,-0.0010999999999999899,-0.015739999999999976,0.06000000000000005,-0.18999999999999995,0.45999999999999996,-0.02501999999999993,-0.011600000000000055,0.008059999999999956,1742250317.3338082
0.08499999999999996,0.1200000000000001,0.4750000000000001,-0.009519999999999973,-0.00537999999999994,-0.012820000000000054,0.06499999999999995,-0.17000000000000004,0.4650000000000001,-0.012460000000000027,-0.010499999999999954,0.005120000000000013,1742250317.447807
0.09000000000000008,0.1299999999999999,0.4650000000000001,-0.01966000000000001,0.008539999999999992,-0.012580000000000036,0.07000000000000006,-0.17500000000000004,0.4650000000000001,0.00035999999999991594,-0.016720000000000068,-0.0008599999999999719,1742250317.561791
0.09000000000000008,0.135,0.4650000000000001,-0.009039999999999937,0.00048000000000003595,-0.011099999999999999,0.06499999999999995,-0.18500000000000005,0.47,0.0014600000000000168,-0.0047599999999999865,0.0007399999999999629,1742250317.675711
0.08499999999999996,0.1200000000000001,0.4849999999999999,-0.007320000000000104,0.00048000000000003595,-0.01660000000000006,0.06499999999999995,-0.17999999999999994,0.45999999999999996,-0.005979999999999985,-0.005240000000000022,0.006720000000000059,1742250317.793389
0.08499999999999996,0.1200000000000001,0.47,-0.02429999999999999,-0.0017000000000000348,-0.035640000000000005,0.06499999999999995,-0.18500000000000005,0.4750000000000001,-0.006340000000000012,-0.008179999999999965,0.013419999999999987,1742250317.9037051
0.09499999999999997,0.135,0.4650000000000001,-0.008179999999999965,0.012580000000000036,-0.02758000000000005,0.06499999999999995,-0.19500000000000006,0.43999999999999995,-0.006340000000000012,-0.016240000000000032,0.03233999999999981,1742250318.017774
0.1100000000000001,0.14000000000000012,0.4650000000000001,-0.005120000000000013,0.00537999999999994,-0.018320000000000003,0.06499999999999995,-0.17999999999999994,0.45999999999999996,0.007200000000000095,-0.030399999999999983,0.06066000000000016,1742250318.133772
0.1100000000000001,0.135,0.4650000000000001,-0.005619999999999958,0.0027999999999999137,-0.01415999999999995,0.05499999999999994,-0.16000000000000003,0.4750000000000001,0.006340000000000012,-0.02636000000000005,0.06835999999999998,1742250318.244582
0.1100000000000001,0.135,0.47,-0.00048000000000003595,0.005859999999999976,-0.005739999999999967,0.05499999999999994,-0.15500000000000003,0.48,0.015139999999999931,-0.01305999999999996,0.05738000000000021,1742250318.35762
0.125,0.14500000000000002,0.48,-0.009039999999999937,0.02293999999999996,-0.01855999999999991,0.06000000000000005,-0.18500000000000005,0.5,0.04051999999999989,-0.0027999999999999137,0.05235999999999996,1742250318.474537
0.16999999999999993,0.20500000000000007,0.4849999999999999,-0.2118,0.08728000000000002,-0.08763999999999994,0.09000000000000008,-0.18999999999999995,0.45999999999999996,0.05884,0.013299999999999867,0.06567999999999996,1742250318.585475
0.2250000000000001,0.2650000000000001,0.3599999999999999,-0.1947000000000001,0.1190199999999999,-0.12585999999999997,0.09000000000000008,-0.19500000000000006,0.42999999999999994,0.011360000000000037,0.017340000000000133,0.059940000000000104,1742250318.698504
0.2650000000000001,0.2549999999999999,0.2749999999999999,-0.06274000000000002,0.07618000000000014,-0.08275999999999994,0.09499999999999997,-0.17999999999999994,0.42500000000000004,0.0034199999999999786,-0.01746000000000003,0.040159999999999973,1742250318.813473
0.30000000000000004,0.2749999999999999,0.27,-0.025880000000000014,0.014520000000000088,-0.032480000000000064,0.10000000000000009,-0.16500000000000004,0.43500000000000005,0.0046399999999999775,-0.034540000000000015,0.019400000000000084,1742250318.92557
0.32000000000000006,0.2749999999999999,0.2749999999999999,-0.01415999999999995,0.03723999999999994,-0.03834000000000004,0.10000000000000009,-0.18500000000000005,0.43500000000000005,0.0037799999999998946,-0.04271999999999998,0.0006200000000000649,1742250319.0385568
0.365,0.28,0.26,0.012320000000000109,0.033440000000000136,-0.04700000000000004,0.07499999999999996,-0.19999999999999996,0.45500000000000007,0.005239999999999911,-0.037959999999999994,-0.01097999999999999,1742250319.153743
0.385,0.21999999999999997,0.23499999999999988,-0.0022000000000000908,0.0025599999999998957,-0.059940000000000104,0.06000000000000005,-0.21499999999999997,0.45999999999999996,0.01868000000000003,-0.018799999999999928,-0.0039000000000000146,1742250319.265701
0.4099999999999999,0.2549999999999999,0.17999999999999994,-0.2218,-0.005979999999999985,-0.10705999999999993,0.050000000000000044,-0.21999999999999997,0.45500000000000007,0.005740000000000078,-0.017340000000000022,0.014520000000000088,1742250319.37957
0.3999999999999999,0.21999999999999997,0.16999999999999993,-0.18553999999999993,-0.041139999999999954,-0.14013999999999993,0.04499999999999993,-0.20499999999999996,0.4650000000000001,0.0021999999999999797,-0.01770000000000005,0.01770000000000005,1742250319.495102
0.395,0.16999999999999993,0.17999999999999994,-0.1373199999999999,-0.036739999999999995,-0.11205999999999994,0.040000000000000036,-0.19500000000000006,0.45999999999999996,0.006460000000000132,0.0009799999999999809,0.005239999999999911,1742250319.607501
0.41999999999999993,0.15500000000000003,0.17999999999999994,-0.02415999999999996,-0.009039999999999937,-0.03625999999999996,0.040000000000000036,-0.20999999999999996,0.45500000000000007,0.0029200000000000337,0.009400000000000075,0.0012199999999999989,1742250319.720474
0.42999999999999994,0.17500000000000004,0.16999999999999993,-0.01648000000000005,-0.008419999999999983,-0.01636000000000004,0.050000000000000044,-0.21499999999999997,0.44500000000000006,-0.0017000000000000348,0.0031799999999999606,-0.0022000000000000908,1742250319.833687
0.44500000000000006,0.15500000000000003,0.16999999999999993,0.01977999999999991,0.0026800000000000157,-0.011480000000000046,0.050000000000000044,-0.21499999999999997,0.45500000000000007,-0.0015800000000000258,0.0045200000000000795,0.005239999999999911,1742250319.9475908
0.43999999999999995,0.15500000000000003,0.16999999999999993,0.00782000000000016,0.008179999999999854,-0.009039999999999937,0.05499999999999994,-0.20999999999999996,0.44500000000000006,0.0027999999999999137,0.0030599999999998406,0.0035399999999998766,1742250320.061483
0.44500000000000006,0.1499999999999999,0.16999999999999993,0.02416000000000018,-0.00012000000000000899,0.00024000000000001798,0.05499999999999994,-0.20999999999999996,0.44500000000000006,-0.00036000000000002697,0.0012199999999999989,0.00048000000000003595,1742250320.174548
0.44500000000000006,0.125,0.17500000000000004,0.03381999999999996,-0.00048000000000003595,-0.00024000000000001798,0.06000000000000005,-0.20999999999999996,0.44999999999999996,0.0034199999999999786,-0.00036000000000002697,-0.0015800000000000258,1742250320.288654
0.44999999999999996,0.125,0.16500000000000004,0.0041599999999999415,-0.005120000000000013,-0.0007399999999999629,0.06000000000000005,-0.21499999999999997,0.45500000000000007,0.0006200000000000649,0.0025599999999998957,-0.0009799999999999809,1742250320.402563
0.44500000000000006,0.14000000000000012,0.17999999999999994,0.0026800000000000157,-0.005979999999999985,-0.00036000000000002697,0.06000000000000005,-0.21499999999999997,0.44500000000000006,0.0007399999999999629,0.00550000000000006,-0.0029199999999999227,1742250320.51658
0.44999999999999996,0.16500000000000004,0.19500000000000006,0.035519999999999996,0.0040199999999999125,-0.02185999999999999,0.06499999999999995,-0.20999999999999996,0.43999999999999995,0.0018400000000000638,0.0036599999999999966,-0.001960000000000073,1742250320.633554
0.45999999999999996,0.10499999999999998,0.19999999999999996,0.18566000000000016,0.06555999999999984,-0.05053999999999992,0.06499999999999995,-0.21999999999999997,0.44500000000000006,0.0037799999999998946,-0.00036000000000002697,-0.0007399999999999629,1742250320.7436428
0.4750000000000001,0.06499999999999995,0.135,0.12378,0.041260000000000074,-0.034540000000000015,0.06000000000000005,-0.21499999999999997,0.44500000000000006,-0.0029199999999999227,0.0,0.0024399999999999977,1742250320.8574631
0.45999999999999996,0.02499999999999991,0.125,0.0035399999999998766,0.03845999999999994,-0.018320000000000003,0.06000000000000005,-0.20999999999999996,0.45500000000000007,-0.0012199999999999989,0.0032999999999998586,-0.008299999999999974,1742250320.974566
0.48,0.04499999999999993,0.10000000000000009,-0.11621999999999999,0.015020000000000033,-0.01746000000000003,0.06499999999999995,-0.21999999999999997,0.43999999999999995,-0.00048000000000003595,0.0046399999999999775,-0.011360000000000037,1742250321.084597
0.49,0.04499999999999993,0.125,-0.10084000000000004,-0.016240000000000032,-0.0034199999999999786,0.06499999999999995,-0.21999999999999997,0.44500000000000006,-0.0047599999999999865,-0.0009799999999999809,-0.0034199999999999786,1742250321.1986508
0.4650000000000001,0.0,0.15999999999999992,-0.011360000000000037,-0.016240000000000032,-0.0050000000000000044,0.06499999999999995,-0.21499999999999997,0.44500000000000006,-0.0022000000000000908,-0.00024000000000001798,-0.00024000000000001798,1742250321.313247
0.4849999999999999,0.050000000000000044,0.1299999999999999,-0.010499999999999954,0.012700000000000156,-0.011600000000000055,0.06000000000000005,-0.21999999999999997,0.44500000000000006,0.00048000000000003595,0.0009799999999999809,0.005120000000000013,1742250321.4263391
0.4750000000000001,0.030000000000000027,0.14000000000000012,-0.0025599999999998957,0.016599999999999948,-0.008299999999999974,0.06000000000000005,-0.20999999999999996,0.44999999999999996,0.0032999999999998586,-0.00012000000000000899,0.005239999999999911,1742250321.539407
0.48,0.02499999999999991,0.1200000000000001,-0.0035399999999999876,0.009759999999999991,-0.00988,0.06499999999999995,-0.20999999999999996,0.44500000000000006,-0.0029199999999999227,-0.0039000000000000146,-0.001960000000000073,1742250321.652648
0.47,0.02499999999999991,0.1200000000000001,-0.006220000000000003,-0.0024400000000001087,-0.01415999999999995,0.06499999999999995,-0.19999999999999996,0.45500000000000007,-0.011960000000000082,-0.0031799999999999606,0.00024000000000001798,1742250321.766559
0.4849999999999999,0.020000000000000018,0.14000000000000012,0.04405999999999999,-0.03808,0.025640000000000107,0.08499999999999996,-0.17500000000000004,0.4750000000000001,-0.02307999999999999,0.009279999999999955,-0.013539999999999996,1742250321.8805592
0.44500000000000006,-0.010000000000000009,0.16999999999999993,0.10607999999999995,0.007560000000000011,0.08885999999999994,0.09000000000000008,-0.18999999999999995,0.48,-0.05274000000000001,0.035519999999999996,-0.010499999999999954,1742250321.994571
0.43999999999999995,-0.0050000000000000044,0.16500000000000004,0.19300000000000006,-0.006960000000000077,0.1837200000000001,0.11499999999999999,-0.17000000000000004,0.4849999999999999,-0.05396000000000001,0.0672600000000001,0.026739999999999986,1742250322.108447
0.42500000000000004,0.16999999999999993,0.17999999999999994,0.15222000000000002,-0.09155999999999997,0.23631999999999986,0.135,-0.15000000000000002,0.47,-0.09155999999999997,0.047719999999999985,0.007079999999999975,1742250322.222431
0.3799999999999999,0.19999999999999996,0.25,0.13758000000000004,-0.09374000000000005,0.17003999999999997,0.1499999999999999,-0.09999999999999998,0.45999999999999996,-0.06274000000000002,0.023679999999999923,0.0029200000000000337,1742250322.3354309
0.345,0.23499999999999988,0.30499999999999994,0.054319999999999924,-0.06274000000000002,0.06542000000000003,0.1499999999999999,-0.11499999999999999,0.4650000000000001,-0.059700000000000086,0.012700000000000156,-0.023320000000000007,1742250322.4502668
0.33000000000000007,0.2549999999999999,0.32499999999999996,0.2544000000000002,-0.07264000000000004,-0.024899999999999922,0.15999999999999992,-0.05500000000000005,0.42500000000000004,0.06982,-0.03210000000000002,-0.07044000000000006,1742250322.5635588
0.2849999999999999,0.0,0.29499999999999993,0.4858399999999998,-0.25048000000000004,-0.08886000000000005,0.04499999999999993,-0.255,0.5,-0.04394000000000009,-0.1272000000000001,-0.08240000000000003,1742250322.6776378
0.15999999999999992,-0.06499999999999995,0.48,-0.06579999999999997,-0.11815999999999993,-0.09144000000000008,-0.0050000000000000044,-0.265,0.44500000000000006,-0.07653999999999994,-0.0795800000000001,0.045539999999999914,1742250322.792761
0.11499999999999999,-0.050000000000000044,0.4950000000000001,-0.03588000000000002,-0.07213999999999998,-0.03465999999999991,0.040000000000000036,-0.10999999999999999,0.4849999999999999,-0.03698000000000001,-0.031379999999999963,0.04723999999999995,1742250322.905576
0.030000000000000027,-0.050000000000000044,0.5249999999999999,0.03283999999999998,-0.11718000000000006,-0.020019999999999927,0.020000000000000018,-0.08499999999999996,0.5249999999999999,-0.06529999999999991,0.00048000000000003595,0.013679999999999914,1742250323.019417
0.014999999999999902,-0.04500000000000004,0.5049999999999999,0.0008600000000000829,-0.11268000000000011,0.04968000000000017,0.020000000000000018,-0.04500000000000004,0.5049999999999999,-0.06823999999999997,-0.012940000000000063,0.017220000000000013,1742250323.133559
-0.07499999999999996,0.06000000000000005,0.4750000000000001,-0.27186,-0.10718000000000005,0.2669600000000001,0.0,-0.06000000000000005,0.44500000000000006,-0.029179999999999984,-0.01305999999999996,0.020620000000000083,1742250323.247561
0.0,0.06499999999999995,0.44500000000000006,-0.010739999999999972,0.018179999999999863,-0.04503999999999997,-0.015000000000000013,-0.030000000000000027,0.5249999999999999,0.11328000000000005,-0.07177999999999995,0.04833999999999983,1742250323.361464
-0.025000000000000022,0.06499999999999995,0.5249999999999999,-0.025639999999999996,-0.01305999999999996,-0.09289999999999998,0.004999999999999893,-0.08999999999999997,0.5249999999999999,0.10718000000000005,-0.013679999999999914,0.0307599999999999,1742250323.475335
-0.015000000000000013,0.050000000000000044,0.53,-0.01978000000000002,0.03968000000000016,-0.04405999999999999,0.08000000000000007,-0.07999999999999996,0.45999999999999996,-0.008660000000000001,0.0046399999999999775,-0.013799999999999923,1742250323.593409
0.0,0.1499999999999999,0.4950000000000001,-0.11950000000000005,0.03272000000000008,0.03527999999999998,0.004999999999999893,-0.125,0.55,0.13061999999999996,0.012939999999999952,-0.04149999999999998,1742250323.703451
0.020000000000000018,0.18500000000000005,0.47,-0.05003999999999997,0.01868000000000003,-0.012700000000000045,0.0,-0.16500000000000004,0.44999999999999996,0.0024399999999999977,-0.0015800000000000258,0.009759999999999991,1742250323.817311
0.040000000000000036,0.2450000000000001,0.4650000000000001,-0.02758000000000005,0.010259999999999936,-0.013299999999999979,0.014999999999999902,-0.13,0.48,0.014639999999999986,0.01770000000000005,-0.056400000000000006,1742250323.93302
0.05499999999999994,0.10499999999999998,0.44500000000000006,0.019279999999999964,0.013299999999999867,-0.0393,0.040000000000000036,-0.10999999999999999,0.48,-0.06347999999999998,0.04064000000000001,-0.10572000000000004,1742250324.044439
0.06000000000000005,0.16500000000000004,0.47,0.01428000000000007,0.017340000000000133,0.055420000000000025,0.010000000000000009,-0.13,0.47,-0.02391999999999994,0.0625,-0.11536000000000002,1742250324.158407
0.06000000000000005,0.15500000000000003,0.4849999999999999,-0.010619999999999963,0.01746000000000003,0.08460000000000001,0.020000000000000018,-0.14500000000000002,0.47,0.020999999999999908,0.0027999999999999137,-0.007940000000000058,1742250324.273584
0.07000000000000006,0.16500000000000004,0.45999999999999996,0.03820000000000001,0.026000000000000023,-0.021480000000000055,0.020000000000000018,-0.16500000000000004,0.4750000000000001,0.12573999999999996,-0.03283999999999998,0.04516000000000009,1742250324.38631
0.08499999999999996,0.1499999999999999,0.45500000000000007,0.0013400000000001189,0.011600000000000055,-0.06591999999999998,0.040000000000000036,-0.17999999999999994,0.4650000000000001,0.06811999999999996,-0.006340000000000012,0.031380000000000186,1742250324.499339
0.09499999999999997,0.09000000000000008,0.4650000000000001,0.045539999999999914,-0.017220000000000013,-0.025519999999999987,0.03499999999999992,-0.18999999999999995,0.4650000000000001,0.033440000000000136,0.01746000000000003,0.048819999999999864,1742250324.613598
0.09499999999999997,0.09000000000000008,0.4750000000000001,0.03272000000000008,0.012580000000000036,0.0017000000000000348,0.04499999999999993,-0.21499999999999997,0.47,0.04845999999999995,0.022580000000000044,0.05042000000000013,1742250324.725412
0.09499999999999997,0.06499999999999995,0.48,0.03064,0.008539999999999992,-0.006960000000000077,0.09000000000000008,-0.18500000000000005,0.4750000000000001,-0.12487999999999999,0.08838000000000013,0.03442000000000012,1742250324.839306
0.10000000000000009,0.04499999999999993,0.4849999999999999,0.05078000000000005,-0.00024000000000001798,0.0029200000000000337,0.10499999999999998,-0.15500000000000003,0.48,0.02391999999999994,0.11548000000000003,0.07250000000000001,1742250324.954083
0.125,0.040000000000000036,0.5699999999999998,-0.052120000000000055,0.12280000000000002,-0.0958199999999999,0.2250000000000001,-0.16500000000000004,0.3799999999999999,0.1447799999999999,0.1471,0.02635999999999994,1742250325.065228
0.16999999999999993,-0.03500000000000003,0.3799999999999999,-0.06152000000000002,-0.04870000000000008,-0.2826000000000001,0.20500000000000007,-0.26,0.345,0.013800000000000034,0.00048000000000003595,0.04296000000000011,1742250325.17837
0.14000000000000012,0.014999999999999902,0.5150000000000001,0.0007399999999999629,-0.025519999999999987,-0.009039999999999937,0.20999999999999996,-0.21999999999999997,0.385,-0.0041599999999999415,-0.02855999999999992,0.04833999999999983,1742250325.293917
0.135,0.09000000000000008,0.47,0.0023200000000000998,-0.0036599999999999966,0.005859999999999976,0.21999999999999997,-0.19999999999999996,0.42500000000000004,0.0307599999999999,-0.009159999999999946,0.015619999999999967,1742250325.40633
0.14500000000000002,0.05499999999999994,0.48,0.01868000000000003,0.014040000000000052,-0.021480000000000055,0.21500000000000008,-0.20999999999999996,0.385,0.0014600000000000168,0.0047600000000000975,-0.0050000000000000044,1742250325.5203578
0.15500000000000003,0.05499999999999994,0.48,0.03956000000000004,0.01966000000000001,-0.03625999999999996,0.20500000000000007,-0.235,0.375,-0.01990000000000003,-0.0015800000000000258,-0.007320000000000104,1742250325.634542
0.16500000000000004,0.030000000000000027,0.45999999999999996,0.04675999999999991,-0.005859999999999976,-0.010140000000000038,0.20999999999999996,-0.21499999999999997,0.3999999999999999,-0.012460000000000027,-0.0048799999999999955,-0.0039000000000000146,1742250325.7484312
0.15999999999999992,0.010000000000000009,0.4650000000000001,0.001100000000000101,-0.01746000000000003,0.020499999999999963,0.20500000000000007,-0.21999999999999997,0.395,-0.006840000000000068,0.014899999999999913,-0.010140000000000038,1742250325.862433
0.14500000000000002,-0.0050000000000000044,0.4650000000000001,0.010140000000000038,-0.03613999999999995,0.03980000000000006,0.20500000000000007,-0.265,0.395,0.030160000000000187,0.04503999999999997,0.02198000000000011,1742250325.976129
0.1299999999999999,0.014999999999999902,0.47,0.0037799999999998946,-0.026000000000000023,0.044440000000000035,0.23499999999999988,-0.52,0.3700000000000001,0.08288000000000006,-0.0018400000000000638,0.06359999999999988,1742250326.093913
0.125,0.040000000000000036,0.5249999999999999,0.0027999999999999137,0.009279999999999955,0.010860000000000092,0.2450000000000001,-0.235,0.2450000000000001,-0.033440000000000025,-0.08508000000000004,0.12952000000000008,1742250326.202353
0.1200000000000001,-0.0050000000000000044,0.4650000000000001,0.031239999999999934,-0.056520000000000015,0.05176000000000003,0.14500000000000002,-0.07499999999999996,0.375,-0.2229,-0.11646000000000001,0.04394000000000009,1742250326.316294
0.07000000000000006,-0.0050000000000000044,0.47,0.013679999999999914,-0.09179999999999999,0.10888000000000009,0.14500000000000002,0.08000000000000007,0.5,-0.09802,-0.11536000000000002,-0.05408000000000002,1742250326.434474
0.04499999999999993,-0.0050000000000000044,0.5049999999999999,0.010620000000000074,-0.01648000000000005,0.035880000000000134,0.06000000000000005,-0.015000000000000013,0.4950000000000001,-0.006460000000000021,-0.007200000000000095,-0.002080000000000082,1742250326.544408
0.040000000000000036,0.020000000000000018,0.49,0.030160000000000187,-0.013679999999999914,0.07835999999999999,0.17500000000000004,-0.050000000000000044,0.3799999999999999,0.0966800000000001,0.049799999999999844,-0.021600000000000064,1742250326.658218
0.030000000000000027,0.02499999999999991,0.5150000000000001,0.031239999999999934,0.0030599999999998406,-0.013679999999999914,0.17500000000000004,-0.07499999999999996,0.41999999999999993,-0.15539999999999998,-0.04052,0.00011999999999989797,1742250326.774546
0.030000000000000027,-0.03500000000000003,0.48,0.10572000000000004,-0.012460000000000027,-0.01660000000000006,0.03499999999999992,-0.06499999999999995,0.5,0.07385999999999981,-0.04077999999999993,-0.005240000000000022,1742250326.886357
0.02499999999999991,-0.010000000000000009,0.49,0.035640000000000116,-0.0122000000000001,-0.0048799999999999955,0.19500000000000006,-0.08499999999999996,0.33499999999999996,-0.05125999999999997,0.15501999999999994,0.02942,1742250327.000192
0.050000000000000044,-0.07000000000000006,0.47,0.04747999999999997,0.062019999999999964,0.01977999999999991,0.16500000000000004,-0.06499999999999995,0.5049999999999999,-0.059820000000000095,-0.03064,-0.005979999999999985,1742250327.114424
0.03499999999999992,-0.08999999999999997,0.52,0.04064000000000001,-0.024540000000000006,0.01953999999999989,0.09499999999999997,0.03499999999999992,0.565,-0.011240000000000028,0.007200000000000095,-0.010000000000000009,1742250327.2282429
0.08499999999999996,-0.12,0.51,0.0037799999999998946,0.01208000000000009,0.12719999999999998,0.11499999999999999,-0.08999999999999997,0.4849999999999999,-0.009039999999999937,0.016000000000000014,-0.012820000000000054,1742250327.342329
0.07499999999999996,-0.06000000000000005,0.4950000000000001,-0.07629999999999992,-0.0697000000000001,-0.19396000000000002,0.1299999999999999,0.06499999999999995,0.4950000000000001,-0.0343,0.016119999999999912,0.026739999999999986,1742250327.456083
0.03499999999999992,-0.12,0.4099999999999999,0.09631999999999996,0.016119999999999912,0.00865999999999989,0.10499999999999998,0.030000000000000027,0.44500000000000006,0.01415999999999995,0.04064000000000001,0.04699999999999993,1742250327.573426
0.020000000000000018,-0.18500000000000005,0.48,-0.044320000000000026,-0.031000000000000028,0.07020000000000004,0.16999999999999993,-0.07499999999999996,0.5,-0.08874000000000004,0.13538000000000006,0.06666000000000016,1742250327.682245
-0.025000000000000022,-0.14500000000000002,0.48,0.07874000000000003,0.010380000000000056,0.027220000000000022,0.26,0.16999999999999993,0.4099999999999999,-0.15612000000000004,0.022820000000000062,0.04527999999999999,1742250327.796139
0.02499999999999991,-0.255,0.4650000000000001,-0.06665999999999994,-0.09789999999999999,0.18286000000000002,0.19500000000000006,0.06499999999999995,0.41999999999999993,0.044440000000000035,0.06030000000000002,0.05932000000000004,1742250327.915241
0.02499999999999991,-0.14500000000000002,0.44500000000000006,-0.05725999999999998,0.048819999999999864,0.24583999999999984,0.27,0.07499999999999996,0.42999999999999994,0.06922000000000006,0.045660000000000034,0.07397999999999993,1742250328.022059
0.07499999999999996,-0.050000000000000044,0.45999999999999996,-0.15405999999999997,0.028079999999999883,0.25305999999999984,0.2650000000000001,0.07499999999999996,0.4099999999999999,0.05468000000000006,0.030019999999999936,0.018179999999999863,1742250328.134899
0.10499999999999998,0.040000000000000036,0.43500000000000005,-0.16858000000000006,0.035640000000000116,-0.11596000000000006,0.19999999999999996,0.08499999999999996,0.43999999999999995,0.037959999999999994,0.03601999999999994,-0.0232,1742250328.248034
0.08000000000000007,0.03499999999999992,0.5,-0.0037800000000000056,-0.022220000000000018,-0.14037999999999995,0.345,0.22999999999999998,0.45999999999999996,0.22277999999999998,0.14222,-0.21251999999999993,1742250328.3610408
0.06000000000000005,-0.06000000000000005,0.5049999999999999,0.10230000000000006,0.018320000000000114,-0.04455999999999993,0.2549999999999999,-0.18500000000000005,0.2250000000000001,0.12988000000000022,-0.2058199999999999,-0.2583,1742250328.4756742
0.03499999999999992,-0.07499999999999996,0.51,-0.018179999999999974,0.0014600000000000168,-0.040899999999999936,0.19999999999999996,-0.17500000000000004,0.41500000000000004,-0.26990000000000003,-0.06053999999999993,-0.12696000000000007,1742250328.5884318
0.08000000000000007,0.04499999999999993,0.4849999999999999,-0.10560000000000003,0.14647999999999994,0.03394000000000008,0.09000000000000008,-0.17999999999999994,0.45999999999999996,-0.28028,0.0036599999999999966,-0.13624000000000003,1742250328.702265
0.23499999999999988,0.18500000000000005,0.395,-0.30479999999999996,0.17857999999999996,-0.13378,0.1499999999999999,-0.030000000000000027,0.4849999999999999,-0.008059999999999956,-0.03637999999999997,0.022460000000000147,1742250328.81856
0.31499999999999995,0.15500000000000003,0.29000000000000004,-0.06725999999999999,0.031500000000000083,-0.3102999999999999,0.1100000000000001,-0.025000000000000022,0.4950000000000001,0.009879999999999889,-0.010619999999999963,0.025880000000000125,1742250328.935145
0.2450000000000001,-0.13,0.44999999999999996,0.10450000000000004,-0.01990000000000003,-0.11694000000000004,0.1299999999999999,-0.0050000000000000044,0.4750000000000001,-0.04064000000000001,0.020380000000000065,0.028939999999999966,1742250329.0441291
0.27,-0.010000000000000009,0.48,0.018320000000000114,0.03601999999999994,0.010380000000000056,0.09499999999999997,0.010000000000000009,0.5,-0.035640000000000005,-0.017940000000000067,0.011840000000000073,1742250329.1580732
0.2749999999999999,0.06499999999999995,0.3900000000000001,-0.13488,0.012199999999999989,0.005239999999999911,0.135,0.03499999999999992,0.49,-0.043460000000000054,0.0027999999999999137,0.05333999999999994,1742250329.275337
0.30499999999999994,0.07499999999999996,0.3900000000000001,0.0626199999999999,0.02540000000000009,0.07520000000000016,0.1200000000000001,0.06499999999999995,0.4849999999999999,-0.08763999999999994,0.0034199999999999786,0.026739999999999986,1742250329.385008
0.28,0.1299999999999999,0.3900000000000001,0.010140000000000038,-0.010140000000000038,-0.04188000000000003,0.15500000000000003,0.08000000000000007,0.45500000000000007,-0.03601999999999994,0.037719999999999976,0.01966000000000001,1742250329.498049
0.29000000000000004,-0.12,0.355,0.22828000000000004,0.049799999999999844,-0.031379999999999963,0.11499999999999999,0.16999999999999993,0.4950000000000001,0.06957999999999998,-0.03625999999999996,0.14588,1742250329.614798
0.32000000000000006,0.004999999999999893,0.43999999999999995,-0.07422000000000006,0.04638000000000009,0.08216000000000001,0.0,0.17500000000000004,0.5,0.029179999999999984,0.023320000000000007,0.39403999999999995,1742250329.724043
0.2749999999999999,0.010000000000000009,0.395,0.0018400000000000638,-0.026619999999999977,0.02746000000000004,0.06499999999999995,0.16999999999999993,0.4650000000000001,-0.028679999999999928,0.02540000000000009,-0.11096000000000006,1742250329.837128
0.29000000000000004,-0.030000000000000027,0.385,0.030160000000000187,0.015260000000000051,-0.013539999999999996,0.10499999999999998,0.06499999999999995,0.48,0.10095999999999994,-0.012820000000000054,-0.01525999999999994,1742250329.955155
0.33499999999999996,-0.18999999999999995,0.3900000000000001,-0.24768,0.07457999999999987,0.12719999999999998,0.11499999999999999,0.09499999999999997,0.4750000000000001,0.0023200000000000998,0.0024399999999999977,-0.006340000000000012,1742250330.06504
0.345,0.15500000000000003,0.26,-0.29138,-0.21862000000000004,0.19726,0.11499999999999999,0.09000000000000008,0.4849999999999999,-0.028200000000000003,0.008059999999999956,0.009039999999999937,1742250330.179015
0.21999999999999997,0.3599999999999999,0.32000000000000006,-0.24853999999999998,-0.03382000000000007,-0.05384,0.10499999999999998,0.135,0.45999999999999996,-0.015619999999999967,0.016000000000000014,0.033320000000000016,1742250330.298645
0.24,0.25,0.345,0.09373999999999993,0.029900000000000038,-0.014900000000000024,0.09499999999999997,0.125,0.4750000000000001,-0.0017000000000000348,0.006839999999999957,-0.008919999999999928,1742250330.4051552
0.2250000000000001,0.21999999999999997,0.3599999999999999,0.02391999999999994,-0.006460000000000021,0.01977999999999991,0.09000000000000008,0.1100000000000001,0.43999999999999995,0.06396000000000002,0.004999999999999893,0.0027999999999999137,1742250330.518935
0.19999999999999996,0.29000000000000004,0.405,0.36572000000000005,0.06603999999999988,0.008539999999999992,0.07000000000000006,0.125,0.5899999999999999,0.20031999999999983,-0.03260000000000007,-0.21289999999999998,1742250330.635363
0.25,-0.07000000000000006,0.395,0.27038000000000006,-0.16881999999999997,0.05848000000000009,0.1499999999999999,-0.265,0.4750000000000001,-0.03955999999999993,0.3366600000000002,-0.15637999999999996,1742250330.746228
0.18500000000000005,-0.015000000000000013,0.5,0.08031999999999995,-0.11621999999999999,-0.011240000000000028,0.29499999999999993,-0.09499999999999997,0.2650000000000001,0.20677999999999996,0.05738000000000021,0.2354799999999999,1742250330.859966
0.10000000000000009,-0.06499999999999995,0.4849999999999999,0.04078000000000004,-0.016120000000000023,-0.05944000000000005,0.27,0.06499999999999995,0.365,0.007200000000000095,-0.12878,0.14379999999999993,1742250330.976337
0.07499999999999996,-0.09499999999999997,0.4950000000000001,0.02088000000000001,-0.016840000000000077,-0.02954000000000001,0.20999999999999996,0.1200000000000001,0.42999999999999994,-0.04052,-0.03736000000000006,0.07397999999999993,1742250331.086179
0.1100000000000001,-0.08499999999999996,0.4750000000000001,0.008539999999999992,0.011360000000000037,0.02855999999999992,0.20999999999999996,0.1299999999999999,0.45500000000000007,0.0025599999999998957,0.02320000000000011,0.0042800000000000615,1742250331.199841
0.09000000000000008,-0.06000000000000005,0.4849999999999999,0.014399999999999968,-0.021360000000000046,0.21655999999999986,0.22999999999999998,0.010000000000000009,0.43999999999999995,-0.0023200000000000998,-0.012580000000000036,0.014639999999999986,1742250331.315399
0.09499999999999997,-0.08999999999999997,0.49,-0.0686,0.0009799999999999809,-0.01770000000000005,0.20999999999999996,0.14000000000000012,0.44999999999999996,0.09192,-0.0045199999999999685,-0.009519999999999973,1742250331.427161
0.08499999999999996,0.08499999999999996,0.48,0.016000000000000014,0.0018400000000000638,-0.00988,0.2450000000000001,0.10499999999999998,0.42500000000000004,-0.03613999999999995,0.08692000000000011,-0.18701999999999996,1742250331.540972
0.08000000000000007,0.0,0.4750000000000001,0.0026800000000000157,-0.020019999999999927,0.0014600000000000168,0.25,-0.135,0.2749999999999999,0.13440000000000007,-0.19665999999999995,-0.12353999999999998,1742250331.655956
0.05499999999999994,0.014999999999999902,0.49,0.1236600000000001,-0.03064,0.01855999999999991,0.11499999999999999,-0.19500000000000006,0.5049999999999999,0.02210000000000001,-0.10815999999999992,0.038939999999999975,1742250331.768052
0.04499999999999993,-0.050000000000000044,0.5150000000000001,0.017220000000000013,-0.022580000000000044,-0.02513999999999994,0.14000000000000012,-0.09999999999999998,0.45500000000000007,0.022820000000000062,-0.009039999999999937,-0.014039999999999941,1742250331.882101
0.030000000000000027,-0.07499999999999996,0.4650000000000001,0.014639999999999986,-0.028799999999999937,-0.021240000000000037,0.14000000000000012,-0.14,0.44999999999999996,-0.005499999999999949,-0.021120000000000028,-0.02734000000000003,1742250331.9983869
0.010000000000000009,-0.09999999999999998,0.4849999999999999,0.0007399999999999629,-0.012460000000000027,0.06994000000000011,0.11499999999999999,-0.0050000000000000044,0.4750000000000001,0.010620000000000074,0.015020000000000033,-0.05152000000000001,1742250332.115691
-0.015000000000000013,0.0,0.4849999999999999,-0.03637999999999997,0.00035999999999991594,0.08557999999999999,0.08000000000000007,-0.07499999999999996,0.405,-0.30200000000000005,-0.07496000000000003,-0.19079999999999997,1742250332.224257
0.004999999999999893,-0.0050000000000000044,0.5150000000000001,-0.03736000000000006,0.013800000000000034,0.0650599999999999,0.020000000000000018,-0.16500000000000004,0.53,0.031239999999999934,-0.09986000000000006,-0.03760000000000008,1742250332.338101
0.050000000000000044,0.014999999999999902,0.48,-0.04491999999999996,0.03516000000000008,0.0709200000000001,0.050000000000000044,-0.12,0.5550000000000002,0.10474000000000006,-0.008299999999999974,-0.005739999999999967,1742250332.4558022
0.06499999999999995,0.05499999999999994,0.4849999999999999,-0.04455999999999993,0.02320000000000011,0.05896000000000012,0.07000000000000006,-0.15000000000000002,0.51,0.05383999999999989,0.03614000000000006,-0.007080000000000086,1742250332.566047
0.05499999999999994,0.05499999999999994,0.4849999999999999,-0.02758000000000005,0.0034199999999999786,0.023800000000000043,0.07499999999999996,-0.125,0.47,0.06702000000000008,0.07116000000000011,0.031119999999999814,1742250332.679905
0.08000000000000007,0.11499999999999999,0.4750000000000001,-0.016720000000000068,0.021239999999999926,0.023320000000000007,0.125,-0.13,0.44500000000000006,0.017340000000000133,0.06359999999999988,0.0012199999999999989,1742250332.7954931
0.07499999999999996,0.08499999999999996,0.5049999999999999,-0.00782000000000005,-0.0022000000000000908,-0.008919999999999928,0.1499999999999999,-0.20499999999999996,0.5350000000000001,-0.006960000000000077,0.030279999999999863,0.0006200000000000649,1742250332.90604
0.06000000000000005,0.08000000000000007,0.47,-0.03503999999999996,0.022460000000000147,0.00550000000000006,0.14500000000000002,-0.16500000000000004,0.4750000000000001,-0.010619999999999963,0.00878000000000001,-0.0042799999999999505,1742250333.02012
0.10000000000000009,0.1100000000000001,0.5,-0.02746000000000004,0.03516000000000008,0.013919999999999932,0.15999999999999992,-0.16500000000000004,0.43999999999999995,-0.0041599999999999415,0.0013400000000001189,-0.00036000000000002697,1742250333.136349
0.11499999999999999,0.1200000000000001,0.4750000000000001,-0.001960000000000073,0.006599999999999939,-0.00988,0.135,-0.15000000000000002,0.4650000000000001,-0.037719999999999976,-0.07165999999999995,0.022699999999999942,1742250333.24815
0.10499999999999998,0.1200000000000001,0.47,-0.006220000000000003,0.00865999999999989,0.0036599999999999966,0.11499999999999999,-0.10999999999999999,0.4849999999999999,0.008179999999999854,-0.0006199999999999539,-0.0012199999999999989,1742250333.36213
0.1100000000000001,0.1299999999999999,0.4650000000000001,-0.009519999999999973,0.01868000000000003,0.013679999999999914,0.125,-0.14,0.4650000000000001,0.03394000000000008,0.05797999999999992,-0.03173999999999999,1742250333.47717
0.1200000000000001,0.135,0.4650000000000001,-0.007440000000000002,0.023800000000000043,0.025020000000000042,0.16500000000000004,-0.17000000000000004,0.41500000000000004,0.0317400000000001,-0.0040200000000000236,0.03259999999999996,1742250333.596009
0.1299999999999999,0.1200000000000001,0.4650000000000001,-0.009399999999999964,0.0043999999999999595,0.001100000000000101,0.1299999999999999,-0.14500000000000002,0.4750000000000001,-0.005240000000000022,0.0,0.010259999999999936,1742250333.703864
0.1200000000000001,0.1499999999999999,0.45500000000000007,0.01097999999999999,-0.0050000000000000044,-0.0027999999999999137,0.15500000000000003,-0.15500000000000003,0.44500000000000006,0.013539999999999885,0.017819999999999947,-0.008539999999999992,1742250333.817879
0.125,0.1299999999999999,0.45999999999999996,0.0030599999999998406,-0.0029199999999999227,-0.0013400000000000079,0.15999999999999992,-0.18999999999999995,0.42999999999999994,0.020259999999999945,0.007200000000000095,-0.0036599999999999966,1742250333.935636
0.125,0.1299999999999999,0.45999999999999996,0.00035999999999991594,-0.033320000000000016,0.012320000000000109,0.15500000000000003,-0.17500000000000004,0.44999999999999996,-0.002080000000000082,0.0041599999999999415,-0.011099999999999999,1742250334.045026
0.07499999999999996,0.15500000000000003,0.5049999999999999,-0.013919999999999932,-0.023440000000000016,0.009879999999999889,0.15500000000000003,-0.17999999999999994,0.44999999999999996,0.00024000000000001798,0.016960000000000086,-0.009519999999999973,1742250334.1589
-0.08499999999999996,0.18999999999999995,0.47,0.0019599999999999618,-0.0039000000000000146,0.012460000000000138,0.08499999999999996,-0.2849999999999999,0.3900000000000001,-0.016720000000000068,-0.0047599999999999865,0.023320000000000007,1742259138.09734
-0.16000000000000003,0.18999999999999995,0.4849999999999999,-0.0031799999999999606,-0.020499999999999963,-0.021360000000000046,0.07499999999999996,-0.26,0.3900000000000001,0.0040199999999999125,0.0035399999999998766,0.010380000000000056,1742259138.213357
-0.12,0.18500000000000005,0.43999999999999995,-0.010619999999999963,0.0026800000000000157,-0.07103999999999999,0.08000000000000007,-0.275,0.3799999999999999,0.0045200000000000795,-0.006460000000000021,-0.01208000000000009,1742259138.325539
-0.06499999999999995,0.17500000000000004,0.45500000000000007,0.010499999999999954,-0.010259999999999936,-0.05884,0.09000000000000008,-0.29499999999999993,0.405,0.00035999999999991594,-0.010000000000000009,-0.010140000000000038,1742259138.439332
-0.07000000000000006,0.19500000000000006,0.45500000000000007,-0.016840000000000077,0.001100000000000101,-0.04601999999999995,0.08499999999999996,-0.2849999999999999,0.3900000000000001,0.0031799999999999606,-0.007440000000000002,0.005120000000000013,1742259138.553401
-0.06000000000000005,0.21999999999999997,0.44999999999999996,-0.005120000000000013,-0.009039999999999937,-0.04418,0.08000000000000007,-0.28,0.3900000000000001,0.0007399999999999629,-0.015739999999999976,0.009640000000000093,1742259138.6674628
-0.050000000000000044,0.21999999999999997,0.43999999999999995,-0.0040200000000000236,0.001100000000000101,-0.05125999999999997,0.07499999999999996,-0.2849999999999999,0.405,0.0009799999999999809,-0.023320000000000007,0.013539999999999885,1742259138.78132
-0.03500000000000003,0.21500000000000008,0.43999999999999995,-0.028200000000000003,-0.005120000000000013,-0.04798000000000002,0.07000000000000006,-0.27,0.4099999999999999,-0.002080000000000082,-0.007320000000000104,0.007940000000000058,1742259138.895391
-0.06000000000000005,0.26,0.41999999999999993,-0.08275999999999994,-0.0047599999999999865,-0.047719999999999985,0.07000000000000006,-0.275,0.395,0.0035399999999998766,0.0039000000000000146,0.00011999999999989797,1742259139.011841
-0.030000000000000027,0.2849999999999999,0.42500000000000004,-0.021240000000000037,-0.0024400000000001087,-0.052240000000000064,0.06499999999999995,-0.28,0.395,-0.012319999999999998,0.020140000000000047,-0.0014600000000000168,1742259139.1234078
0.010000000000000009,0.30000000000000004,0.385,-0.037719999999999976,0.02929999999999988,-0.03382000000000007,0.08499999999999996,-0.29000000000000004,0.395,0.0029200000000000337,-0.0025599999999998957,-0.010739999999999972,1742259139.237241
0.05499999999999994,0.2250000000000001,0.3900000000000001,-0.028679999999999928,0.0025599999999998957,-0.00878000000000001,0.07000000000000006,-0.265,0.3900000000000001,0.005980000000000096,-0.03295999999999999,-0.002080000000000082,1742259139.352134
0.0,0.26,0.4099999999999999,0.04503999999999997,-0.021600000000000064,0.0611600000000001,0.020000000000000018,-0.28,0.405,-0.0048799999999999955,-0.06152000000000002,-0.011360000000000037,1742259139.4652748
-0.06000000000000005,0.33000000000000007,0.4650000000000001,-0.016960000000000086,-0.03283999999999998,0.026000000000000023,0.020000000000000018,-0.27,0.395,0.007440000000000113,-0.023320000000000007,-0.007080000000000086,1742259139.579353
-0.030000000000000027,0.29000000000000004,0.345,-0.03625999999999996,-0.028200000000000003,0.05750000000000011,0.02499999999999991,-0.2849999999999999,0.375,0.019160000000000066,-0.015859999999999985,-0.011360000000000037,1742259139.693353
-0.06000000000000005,0.30000000000000004,0.3900000000000001,-0.015739999999999976,-0.016960000000000086,0.06407999999999991,0.0,-0.29000000000000004,0.395,0.010860000000000092,-0.049679999999999946,-0.016960000000000086,1742259139.80736
-0.08999999999999997,0.31499999999999995,0.41500000000000004,0.020019999999999927,-0.0046399999999999775,0.06518000000000002,-0.040000000000000036,-0.29000000000000004,0.4099999999999999,-0.007200000000000095,-0.05188000000000004,-0.014780000000000015,1742259139.92128
-0.10999999999999999,0.29000000000000004,0.3999999999999999,-0.017220000000000013,-0.005739999999999967,0.05333999999999994,-0.06000000000000005,-0.275,0.4099999999999999,-0.022340000000000027,-0.04418,-0.03198000000000001,1742259140.035376
-0.125,0.2650000000000001,0.375,-0.056400000000000006,0.0015800000000001369,0.07714000000000021,-0.06499999999999995,-0.25,0.395,0.028079999999999883,-0.0041599999999999415,-0.05113999999999996,1742259140.15209
-0.17000000000000004,0.33000000000000007,0.3500000000000001,-0.031379999999999963,0.010860000000000092,0.05235999999999996,-0.09499999999999997,-0.33499999999999996,0.3799999999999999,0.05298000000000003,0.012460000000000138,-0.04125999999999996,1742259140.2632651
-0.16000000000000003,0.30000000000000004,0.355,-0.041019999999999945,0.027700000000000058,0.03601999999999994,-0.09499999999999997,-0.31000000000000005,0.3799999999999999,-0.01978000000000002,0.016720000000000068,-0.007440000000000002,1742259140.377289
