L-AccX,L-AccY,L-AccZ,L-GyrX,L-GyrY,L-GyrZ,R-AccX,R-AccY,R-AccZ,R-GyrX,R-GyrY,R-GyrZ,timestamp
0.1100000000000001,0.2450000000000001,-0.43999999999999995,0.012820000000000054,-0.06555999999999995,0.04821999999999993,0.08000000000000007,-0.040000000000000036,0.41999999999999993,0.14026000000000005,-0.09179999999999999,0.31128,1742256894.869447
0.14500000000000002,0.2450000000000001,-0.4099999999999999,0.002080000000000082,-0.05113999999999996,0.008920000000000039,0.08499999999999996,-0.03500000000000003,0.41999999999999993,0.13659999999999983,-0.09765999999999997,0.15722000000000014,1742256894.983451
0.17500000000000004,0.25,-0.385,-0.016000000000000014,-0.03479999999999994,-0.010379999999999945,0.09000000000000008,-0.10499999999999998,0.44500000000000006,0.0341800000000001,-0.07946000000000009,0.038939999999999975,1742256895.0976598
0.18999999999999995,0.21999999999999997,-0.355,-0.04077999999999993,0.0008600000000000829,-0.00036000000000002697,0.06000000000000005,-0.15000000000000002,0.4750000000000001,-0.011360000000000037,-0.1016800000000001,-0.005619999999999958,1742256895.2164748
0.17500000000000004,0.19999999999999996,-0.41999999999999993,-0.0047599999999999865,-0.008299999999999974,-0.0014600000000000168,0.07499999999999996,-0.16500000000000004,0.4750000000000001,-0.013539999999999996,0.0041599999999999415,0.007319999999999993,1742256895.325635
0.16999999999999993,0.20500000000000007,-0.42500000000000004,-0.008059999999999956,-0.020259999999999945,0.015139999999999931,0.10000000000000009,-0.14500000000000002,0.44999999999999996,-0.015020000000000033,0.009160000000000057,0.011719999999999953,1742256895.4395788
0.17500000000000004,0.16999999999999993,-0.43500000000000005,-0.0029199999999999227,-0.018919999999999937,0.0024399999999999977,0.09499999999999997,-0.15000000000000002,0.4750000000000001,0.0046399999999999775,-0.011960000000000082,0.00770000000000004,1742256895.555864
0.20999999999999996,0.23499999999999988,-0.38,-0.02415999999999996,-0.016000000000000014,0.007560000000000011,0.10000000000000009,-0.15000000000000002,0.45999999999999996,-0.0032999999999999696,0.0045200000000000795,0.010000000000000009,1742256895.6675892
0.19999999999999996,0.18500000000000005,-0.405,0.0023200000000000998,0.00011999999999989797,-0.020259999999999945,0.10000000000000009,-0.14,0.44999999999999996,-0.025760000000000005,-0.01085999999999998,0.018799999999999928,1742256895.781494
0.19500000000000006,0.18500000000000005,-0.4099999999999999,0.0019599999999999618,0.006599999999999939,-0.017820000000000058,0.10000000000000009,-0.12,0.47,0.00878000000000001,0.00770000000000004,0.010140000000000038,1742256895.899034
0.20500000000000007,0.17999999999999994,-0.42500000000000004,0.010860000000000092,0.008539999999999992,-0.012700000000000045,0.1100000000000001,-0.125,0.45500000000000007,0.008059999999999956,0.021120000000000028,0.00770000000000004,1742256896.016186
0.19500000000000006,0.18999999999999995,-0.41500000000000004,0.0014600000000000168,0.004999999999999893,-0.008299999999999974,0.1200000000000001,-0.14,0.45999999999999996,0.005740000000000078,-0.005859999999999976,0.0019599999999999618,1742256896.1235049
0.19500000000000006,0.19500000000000006,-0.41500000000000004,-0.0009799999999999809,0.0040199999999999125,-0.01208000000000009,0.1200000000000001,-0.14500000000000002,0.45500000000000007,0.015020000000000033,0.013800000000000034,0.004999999999999893,1742256896.237592
0.20500000000000007,0.17999999999999994,-0.41500000000000004,0.0034199999999999786,0.0007399999999999629,-0.012700000000000045,0.1299999999999999,-0.14500000000000002,0.45500000000000007,0.0023200000000000998,-0.00012000000000000899,0.010620000000000074,1742256896.357207
0.20500000000000007,0.17999999999999994,-0.41500000000000004,0.002080000000000082,0.0015800000000001369,-0.006960000000000077,0.1299999999999999,-0.14,0.45999999999999996,0.0032999999999998586,-0.005499999999999949,0.007940000000000058,1742256896.465518
0.19999999999999996,0.17999999999999994,-0.41999999999999993,0.00035999999999991594,0.00024000000000001798,-0.005979999999999985,0.1299999999999999,-0.15000000000000002,0.45500000000000007,-0.00036000000000002697,-0.0017000000000000348,0.0026800000000000157,1742256896.579511
0.19999999999999996,0.17999999999999994,-0.41500000000000004,-0.005120000000000013,0.0023200000000000998,-0.0034199999999999786,0.125,-0.14,0.45500000000000007,0.00035999999999991594,-0.011099999999999999,0.0048799999999999955,1742256896.696036
0.20500000000000007,0.17500000000000004,-0.41999999999999993,-0.0042799999999999505,0.007319999999999993,-0.008660000000000001,0.1200000000000001,-0.14500000000000002,0.45500000000000007,-0.0029199999999999227,-0.025639999999999996,0.007560000000000011,1742256896.807601
0.20500000000000007,0.17999999999999994,-0.41999999999999993,-0.0022000000000000908,0.00550000000000006,-0.005120000000000013,0.1100000000000001,-0.14500000000000002,0.45999999999999996,0.0021999999999999797,-0.015619999999999967,0.0042800000000000615,1742256896.9215171
0.19500000000000006,0.16999999999999993,-0.41999999999999993,0.0029200000000000337,0.0032999999999998586,-0.0040200000000000236,0.10499999999999998,-0.14,0.45999999999999996,0.0023200000000000998,-0.0027999999999999137,0.004999999999999893,1742256897.0356748
0.19500000000000006,0.17500000000000004,-0.41999999999999993,-0.001960000000000073,0.0025599999999998957,-0.0027999999999999137,0.10499999999999998,-0.15000000000000002,0.4650000000000001,0.006340000000000012,0.0006200000000000649,0.0,1742256897.155383
0.19500000000000006,0.17500000000000004,-0.42500000000000004,-0.005739999999999967,0.0045200000000000795,-0.0026799999999999047,0.1100000000000001,-0.15500000000000003,0.45500000000000007,0.013539999999999885,-0.009159999999999946,-0.005120000000000013,1742256897.263517
0.19500000000000006,0.16999999999999993,-0.42500000000000004,-0.0013400000000000079,0.0034199999999999786,-0.006460000000000021,0.10000000000000009,-0.15000000000000002,0.45500000000000007,0.00035999999999991594,-0.0047599999999999865,0.0007399999999999629,1742256897.3774562
0.19500000000000006,0.16500000000000004,-0.42999999999999994,0.0,-0.0012199999999999989,-0.0029199999999999227,0.09499999999999997,-0.15500000000000003,0.45999999999999996,0.007079999999999975,-0.00024000000000001798,0.00048000000000003595,1742256897.494785
0.19999999999999996,0.16500000000000004,-0.42999999999999994,0.0047600000000000975,-0.0024400000000001087,0.006460000000000132,0.09499999999999997,-0.15000000000000002,0.4650000000000001,0.0013400000000001189,0.0031799999999999606,-0.0007399999999999629,1742256897.605427
0.18500000000000005,0.19500000000000006,-0.41500000000000004,0.004999999999999893,0.004999999999999893,-0.0017000000000000348,0.1100000000000001,-0.16500000000000004,0.43999999999999995,0.006720000000000059,0.00550000000000006,-0.0030599999999999516,1742256897.7193978
0.19999999999999996,0.16999999999999993,-0.4099999999999999,-0.010739999999999972,0.01746000000000003,0.0023200000000000998,0.1200000000000001,-0.15500000000000003,0.44999999999999996,0.0017000000000000348,-0.011099999999999999,0.011719999999999953,1742256897.835994
0.16999999999999993,0.17500000000000004,-0.44500000000000006,-0.007080000000000086,0.018059999999999965,-0.0045199999999999685,0.09000000000000008,-0.17500000000000004,0.45999999999999996,0.010739999999999972,-0.027700000000000058,-0.0042799999999999505,1742256897.947499
0.17500000000000004,0.16999999999999993,-0.43999999999999995,-0.008919999999999928,0.0027999999999999137,-0.00988,0.07499999999999996,-0.18500000000000005,0.4650000000000001,0.0017000000000000348,-0.022820000000000062,0.006599999999999939,1742256898.0615082
0.18500000000000005,0.15999999999999992,-0.43500000000000005,0.00035999999999991594,-0.010739999999999972,-0.0015800000000000258,0.06499999999999995,-0.15000000000000002,0.45999999999999996,-0.0030599999999999516,0.0036599999999999966,0.0042800000000000615,1742256898.175488
0.18999999999999995,0.16999999999999993,-0.42500000000000004,0.0035399999999998766,-0.005739999999999967,0.0019599999999999618,0.08499999999999996,-0.15000000000000002,0.45999999999999996,-0.0007399999999999629,0.008179999999999854,0.0008600000000000829,1742256898.294785
0.18999999999999995,0.17500000000000004,-0.41999999999999993,-0.0015800000000000258,0.00011999999999989797,-0.0009799999999999809,0.09499999999999997,-0.15500000000000003,0.45500000000000007,-0.0012199999999999989,0.00035999999999991594,-0.0030599999999999516,1742256898.403455
0.18999999999999995,0.16999999999999993,-0.42999999999999994,-0.00048000000000003595,0.0007399999999999629,-0.0035399999999999876,0.09000000000000008,-0.16000000000000003,0.45999999999999996,0.0023200000000000998,-0.0015800000000000258,0.0008600000000000829,1742256898.5175
0.18999999999999995,0.16500000000000004,-0.43500000000000005,-0.0014600000000000168,0.0032999999999998586,-0.0023200000000000998,0.09000000000000008,-0.15000000000000002,0.45999999999999996,0.0040199999999999125,0.002080000000000082,0.0027999999999999137,1742256898.6346729
0.18500000000000005,0.15999999999999992,-0.42999999999999994,0.0013400000000001189,-0.0035399999999999876,0.0009799999999999809,0.07499999999999996,-0.16500000000000004,0.45999999999999996,0.0026800000000000157,0.00024000000000001798,0.0006200000000000649,1742256898.745307
0.18999999999999995,0.16500000000000004,-0.42500000000000004,-0.0030599999999999516,0.0024399999999999977,0.005859999999999976,0.09000000000000008,-0.16000000000000003,0.45500000000000007,0.0040199999999999125,0.0037799999999998946,-0.0034199999999999786,1742256898.859448
0.18999999999999995,0.17500000000000004,-0.43999999999999995,0.0,-0.0030599999999999516,0.0012199999999999989,0.08499999999999996,-0.17000000000000004,0.4650000000000001,0.002080000000000082,0.0,-0.00660000000000005,1742256898.974708
0.18999999999999995,0.16999999999999993,-0.42500000000000004,-0.0010999999999999899,-0.0032999999999999696,-0.0026799999999999047,0.09499999999999997,-0.16500000000000004,0.45500000000000007,-0.0022000000000000908,0.0023200000000000998,0.00011999999999989797,1742256899.087507
0.18999999999999995,0.16999999999999993,-0.42500000000000004,0.0,-0.0017000000000000348,-0.0018400000000000638,0.09000000000000008,-0.16000000000000003,0.45500000000000007,-0.0012199999999999989,0.002080000000000082,0.00048000000000003595,1742256899.201393
0.19500000000000006,0.16999999999999993,-0.42500000000000004,-0.0032999999999999696,0.00035999999999991594,-0.0037800000000000056,0.10000000000000009,-0.16000000000000003,0.45999999999999996,0.00048000000000003595,0.0026800000000000157,0.0024399999999999977,1742256899.315414
0.18999999999999995,0.15999999999999992,-0.43500000000000005,-0.0035399999999999876,0.0007399999999999629,-0.0017000000000000348,0.09000000000000008,-0.16000000000000003,0.45999999999999996,-0.00012000000000000899,-0.0032999999999999696,0.00011999999999989797,1742256899.43423
0.18999999999999995,0.15999999999999992,-0.42999999999999994,-0.0027999999999999137,-0.0012199999999999989,0.0026800000000000157,0.08499999999999996,-0.15500000000000003,0.45999999999999996,0.0021999999999999797,0.005239999999999911,-0.0006199999999999539,1742256899.543426
0.18500000000000005,0.16999999999999993,-0.42999999999999994,-0.0025599999999998957,0.0018400000000000638,0.0006200000000000649,0.09499999999999997,-0.16500000000000004,0.45500000000000007,-0.0017000000000000348,-0.0035399999999999876,-0.0036599999999999966,1742256899.6573608
0.18999999999999995,0.16500000000000004,-0.42999999999999994,0.0,-0.001960000000000073,0.00048000000000003595,0.09000000000000008,-0.16000000000000003,0.45500000000000007,-0.0009799999999999809,0.0023200000000000998,-0.0013400000000000079,1742256899.774438
0.18999999999999995,0.16500000000000004,-0.42999999999999994,-0.0025599999999998957,0.00011999999999989797,-0.0025599999999998957,0.09499999999999997,-0.16500000000000004,0.45500000000000007,0.0006200000000000649,0.0018400000000000638,0.0,1742256899.885398
0.18999999999999995,0.15999999999999992,-0.42999999999999994,-0.0012199999999999989,0.00035999999999991594,-0.0035399999999999876,0.09000000000000008,-0.16000000000000003,0.45999999999999996,-0.002080000000000082,-0.0026799999999999047,0.0026800000000000157,1742256899.9994829
0.18999999999999995,0.15999999999999992,-0.43500000000000005,-0.0012199999999999989,-0.00012000000000000899,-0.0018400000000000638,0.09000000000000008,-0.16000000000000003,0.45999999999999996,0.00024000000000001798,0.0040199999999999125,-0.0014600000000000168,1742256900.114469
0.19500000000000006,0.15999999999999992,-0.42999999999999994,-0.002080000000000082,0.0042800000000000615,-0.0009799999999999809,0.09499999999999997,-0.15500000000000003,0.45500000000000007,-0.0006199999999999539,-0.0030599999999999516,0.00011999999999989797,1742256900.227455
0.18500000000000005,0.15999999999999992,-0.43500000000000005,-0.0015800000000000258,0.0024399999999999977,-0.0034199999999999786,0.09000000000000008,-0.16500000000000004,0.45999999999999996,0.00048000000000003595,-0.0025599999999998957,-0.00012000000000000899,1742256900.3414452
0.18500000000000005,0.15999999999999992,-0.42999999999999994,0.0006200000000000649,0.0027999999999999137,-0.0014600000000000168,0.09000000000000008,-0.15500000000000003,0.45999999999999996,0.0012199999999999989,-0.0006199999999999539,0.0,1742256900.45535
0.18999999999999995,0.15500000000000003,-0.42500000000000004,0.0009799999999999809,0.0031799999999999606,-0.0018400000000000638,0.08499999999999996,-0.16000000000000003,0.44999999999999996,0.0032999999999998586,0.0019599999999999618,0.0041599999999999415,1742256900.574195
0.19500000000000006,0.15500000000000003,-0.44500000000000006,0.00035999999999991594,0.005619999999999958,0.0008600000000000829,0.09000000000000008,-0.16000000000000003,0.47,0.00878000000000001,-0.0009799999999999809,0.00011999999999989797,1742256900.683179
0.17999999999999994,0.15999999999999992,-0.43500000000000005,-0.00048000000000003595,-0.0006199999999999539,0.0018400000000000638,0.08499999999999996,-0.17000000000000004,0.45999999999999996,0.0029200000000000337,0.0015800000000001369,-0.0030599999999999516,1742256900.7963488
0.18500000000000005,0.15999999999999992,-0.43500000000000005,-0.005240000000000022,0.012460000000000138,0.005239999999999911,0.09499999999999997,-0.15500000000000003,0.45999999999999996,0.0047600000000000975,-0.0010999999999999899,-0.0026799999999999047,1742256900.910443
0.16999999999999993,0.16999999999999993,-0.43999999999999995,-0.0024400000000001087,0.0034199999999999786,-0.0012199999999999989,0.08499999999999996,-0.17500000000000004,0.45500000000000007,-0.0018400000000000638,-0.012700000000000045,-0.0026799999999999047,1742256901.024373
0.17500000000000004,0.15999999999999992,-0.43500000000000005,-0.0018400000000000638,0.00011999999999989797,-0.0035399999999999876,0.08000000000000007,-0.17500000000000004,0.45500000000000007,0.0029200000000000337,0.005619999999999958,0.0032999999999998586,1742256901.138401
0.17500000000000004,0.15500000000000003,-0.43999999999999995,-0.0040200000000000236,-0.0026799999999999047,-0.0014600000000000168,0.08000000000000007,-0.17000000000000004,0.45999999999999996,0.00048000000000003595,0.0013400000000001189,0.001100000000000101,1742256901.254347
0.17999999999999994,0.1499999999999999,-0.43999999999999995,-0.0024400000000001087,-0.0015800000000000258,-0.0007399999999999629,0.08499999999999996,-0.16500000000000004,0.45500000000000007,-0.005120000000000013,-0.00012000000000000899,0.0,1742256901.366427
0.17999999999999994,0.15500000000000003,-0.43999999999999995,-0.0032999999999999696,-0.0036599999999999966,0.00024000000000001798,0.08000000000000007,-0.17000000000000004,0.45999999999999996,-0.0037800000000000056,0.00011999999999989797,-0.0027999999999999137,1742256901.480333
0.18500000000000005,0.1499999999999999,-0.43999999999999995,-0.0040200000000000236,-0.0037800000000000056,-0.0007399999999999629,0.08499999999999996,-0.16500000000000004,0.45500000000000007,-0.0040200000000000236,-0.0008599999999999719,-0.002080000000000082,1742256901.594539
0.17999999999999994,0.15500000000000003,-0.43999999999999995,0.0008600000000000829,-0.005739999999999967,0.0043999999999999595,0.08000000000000007,-0.16000000000000003,0.4650000000000001,-0.0037800000000000056,0.0047600000000000975,-0.0022000000000000908,1742256901.70834
0.18500000000000005,0.15999999999999992,-0.42500000000000004,0.0009799999999999809,-0.0017000000000000348,-0.011360000000000037,0.10000000000000009,-0.16500000000000004,0.44999999999999996,-0.0031799999999999606,0.0029200000000000337,0.007440000000000113,1742256901.822371
0.18999999999999995,0.1499999999999999,-0.43999999999999995,-0.001960000000000073,0.0029200000000000337,-0.01525999999999994,0.09499999999999997,-0.15000000000000002,0.45999999999999996,-0.00024000000000001798,-0.0045199999999999685,0.012700000000000156,1742256901.936388
0.18999999999999995,0.135,-0.43999999999999995,-0.0017000000000000348,-0.0041599999999999415,-0.006720000000000059,0.08000000000000007,-0.15000000000000002,0.4650000000000001,-0.0024400000000001087,-0.0023200000000000998,0.008299999999999974,1742256902.0544488
0.18500000000000005,0.1499999999999999,-0.43999999999999995,0.00024000000000001798,-0.0012199999999999989,-0.00036000000000002697,0.08000000000000007,-0.15500000000000003,0.45999999999999996,-0.0012199999999999989,0.0037799999999998946,-0.0007399999999999629,1742256902.164333
0.18500000000000005,0.16500000000000004,-0.44999999999999996,0.009640000000000093,-0.015859999999999985,-0.012460000000000027,0.08000000000000007,-0.17000000000000004,0.47,0.00035999999999991594,0.005980000000000096,0.0041599999999999415,1742256902.27834
0.19999999999999996,0.15500000000000003,-0.43500000000000005,0.0042800000000000615,-0.03613999999999995,-0.028679999999999928,0.09499999999999997,-0.17500000000000004,0.4650000000000001,-0.001960000000000073,0.027959999999999985,0.023440000000000127,1742256902.396926
0.2250000000000001,0.135,-0.4099999999999999,-0.012700000000000045,-0.029179999999999984,-0.033320000000000016,0.1200000000000001,-0.14,0.45500000000000007,-0.021240000000000037,0.01415999999999995,0.028939999999999966,1742256902.506456
0.24,0.125,-0.41999999999999993,-0.02391999999999994,-0.02198,-0.03710000000000002,0.1200000000000001,-0.135,0.4650000000000001,-0.015499999999999958,-0.0037800000000000056,0.02526000000000006,1742256902.620502
0.2450000000000001,0.10000000000000009,-0.41999999999999993,-0.026859999999999995,-0.019039999999999946,-0.04932000000000003,0.1100000000000001,-0.10999999999999999,0.4650000000000001,-0.01525999999999994,-0.007320000000000104,0.027579999999999938,1742256902.7343569
0.2749999999999999,0.06499999999999995,-0.405,-0.033320000000000016,0.0021999999999999797,-0.06579999999999997,0.125,-0.10499999999999998,0.4750000000000001,0.0006200000000000649,-0.02513999999999994,0.03233999999999981,1742256902.848331
0.27,0.030000000000000027,-0.4099999999999999,-0.049919999999999964,0.0041599999999999415,-0.020139999999999936,0.10499999999999998,-0.08499999999999996,0.47,-0.02403999999999995,-0.028079999999999994,-0.0018400000000000638,1742256902.963404
0.28,0.02499999999999991,-0.395,-0.026120000000000032,-0.012460000000000027,0.008059999999999956,0.10000000000000009,-0.07999999999999996,0.4849999999999999,-0.02391999999999994,0.0027999999999999137,-0.01636000000000004,1742256903.076261
0.2650000000000001,0.04499999999999993,-0.385,0.005980000000000096,-0.0042799999999999505,0.03479999999999994,0.10000000000000009,-0.07999999999999996,0.45500000000000007,0.012320000000000109,0.019279999999999964,-0.02429999999999999,1742256903.19422
0.2749999999999999,0.06499999999999995,-0.41999999999999993,0.02222000000000013,-0.007940000000000058,0.02868000000000004,0.1200000000000001,-0.10499999999999998,0.47,0.020380000000000065,0.021360000000000046,-0.018059999999999965,1742256903.304141
0.28,0.06000000000000005,-0.405,0.01746000000000003,-0.01208000000000009,0.009759999999999991,0.1299999999999999,-0.11499999999999999,0.45999999999999996,0.014780000000000015,0.022580000000000044,0.0040199999999999125,1742256903.417451
0.2749999999999999,0.07499999999999996,-0.4099999999999999,0.021120000000000028,-0.005499999999999949,0.010140000000000038,0.1299999999999999,-0.09499999999999997,0.45999999999999996,0.013919999999999932,0.018179999999999863,-0.00048000000000003595,1742256903.534168
0.2849999999999999,0.07000000000000006,-0.4099999999999999,0.008299999999999974,-0.006960000000000077,0.005239999999999911,0.1299999999999999,-0.12,0.47,0.0027999999999999137,0.005980000000000096,0.0,1742256903.644154
0.29000000000000004,0.08000000000000007,-0.405,0.00782000000000016,-0.02501999999999993,0.027220000000000022,0.135,-0.10999999999999999,0.47,0.007560000000000011,0.024780000000000024,-0.008539999999999992,1742256903.758142
0.2849999999999999,0.09000000000000008,-0.39,0.0025599999999998957,-0.0006199999999999539,0.009759999999999991,0.16500000000000004,-0.11499999999999999,0.44999999999999996,0.006220000000000114,0.022699999999999942,-0.008059999999999956,1742256903.8756711
0.2849999999999999,0.09499999999999997,-0.395,-0.0041599999999999415,0.0048799999999999955,0.0045200000000000795,0.15500000000000003,-0.12,0.45500000000000007,0.0034199999999999786,-0.0017000000000000348,-0.00537999999999994,1742256903.986142
0.28,0.10000000000000009,-0.4,0.0031799999999999606,0.0039000000000000146,0.0014600000000000168,0.15500000000000003,-0.12,0.45500000000000007,0.002080000000000082,-0.0009799999999999809,-0.0027999999999999137,1742256904.1000562
0.28,0.09499999999999997,-0.4,-0.0015800000000000258,0.0041599999999999415,-0.00048000000000003595,0.15500000000000003,-0.125,0.44999999999999996,0.006960000000000077,0.0009799999999999809,-0.0013400000000000079,1742256904.21366
0.28,0.09000000000000008,-0.395,-0.00048000000000003595,0.0032999999999998586,0.0032999999999998586,0.1499999999999999,-0.125,0.45500000000000007,0.0034199999999999786,0.00048000000000003595,-0.0029199999999999227,1742256904.327212
0.28,0.10499999999999998,-0.395,0.006839999999999957,0.0043999999999999595,0.006599999999999939,0.15500000000000003,-0.12,0.45500000000000007,0.009400000000000075,0.004999999999999893,-0.006460000000000021,1742256904.441055
0.2749999999999999,0.09000000000000008,-0.4099999999999999,-0.0017000000000000348,0.006220000000000114,0.0035399999999998766,0.15500000000000003,-0.14,0.45500000000000007,0.007319999999999993,-0.0031799999999999606,-0.0036599999999999966,1742256904.5540328
0.28,0.09499999999999997,-0.4,0.0021999999999999797,-0.0040200000000000236,0.015020000000000033,0.14500000000000002,-0.13,0.45500000000000007,0.0031799999999999606,0.0025599999999998957,-0.006220000000000003,1742256904.6671832
0.27,0.11499999999999999,-0.405,0.00550000000000006,-0.0017000000000000348,0.005619999999999958,0.15500000000000003,-0.14500000000000002,0.44999999999999996,0.00770000000000004,0.010739999999999972,-0.006960000000000077,1742256904.780162
0.2749999999999999,0.1100000000000001,-0.395,-0.0047599999999999865,-0.0027999999999999137,-0.0010999999999999899,0.15999999999999992,-0.14500000000000002,0.44500000000000006,-0.0027999999999999137,-0.0015800000000000258,0.0024399999999999977,1742256904.896283
0.27,0.1299999999999999,-0.4,0.0035399999999998766,-0.0023200000000000998,-0.014399999999999968,0.15999999999999992,-0.14500000000000002,0.44999999999999996,0.0017000000000000348,0.0007399999999999629,0.0040199999999999125,1742256905.008257
0.2849999999999999,0.09000000000000008,-0.4,-0.0048799999999999955,-0.009039999999999937,-0.03272000000000008,0.15500000000000003,-0.16000000000000003,0.45500000000000007,-0.0017000000000000348,-0.008179999999999965,0.02416000000000018,1742256905.1225111
0.2749999999999999,0.07000000000000006,-0.395,0.006460000000000132,0.005239999999999911,-0.0036599999999999966,0.15500000000000003,-0.09999999999999998,0.44999999999999996,-0.0014600000000000168,0.0030599999999998406,0.01097999999999999,1742256905.236167
0.2849999999999999,0.10000000000000009,-0.4,0.0017000000000000348,0.0015800000000001369,-0.00770000000000004,0.15999999999999992,-0.14500000000000002,0.44999999999999996,0.0040199999999999125,-0.0026799999999999047,0.001100000000000101,1742256905.3504891
0.28,0.10000000000000009,-0.385,-0.0010999999999999899,0.0034199999999999786,0.006099999999999994,0.15999999999999992,-0.10499999999999998,0.45500000000000007,-0.006840000000000068,-0.0014600000000000168,-0.005979999999999985,1742256905.464454
0.28,0.10000000000000009,-0.4,-0.00770000000000004,0.0009799999999999809,0.010259999999999936,0.1499999999999999,-0.135,0.45500000000000007,-0.0035399999999999876,-0.0014600000000000168,-0.006340000000000012,1742256905.578162
0.28,0.09499999999999997,-0.395,-0.010619999999999963,0.0036599999999999966,0.0036599999999999966,0.15500000000000003,-0.13,0.45500000000000007,-0.0015800000000000258,-0.0035399999999999876,-0.0027999999999999137,1742256905.6948538
0.28,0.08499999999999996,-0.395,-0.008919999999999928,0.0040199999999999125,0.0046399999999999775,0.15500000000000003,-0.12,0.45500000000000007,-0.006220000000000003,-0.006340000000000012,0.0014600000000000168,1742256905.806237
0.2749999999999999,0.09499999999999997,-0.4099999999999999,-0.014399999999999968,0.012820000000000054,0.00878000000000001,0.15500000000000003,-0.13,0.45500000000000007,-0.0048799999999999955,-0.007320000000000104,-0.006840000000000068,1742256905.920139
0.2650000000000001,0.08499999999999996,-0.405,-0.0007399999999999629,0.007440000000000113,-0.007200000000000095,0.135,-0.125,0.45999999999999996,-0.017080000000000095,-0.018799999999999928,-0.009159999999999946,1742256906.034164
0.26,0.08499999999999996,-0.42500000000000004,0.0036599999999999966,0.005859999999999976,0.0007399999999999629,0.135,-0.11499999999999999,0.4650000000000001,0.0047600000000000975,-0.0018400000000000638,0.00048000000000003595,1742256906.147959
0.2650000000000001,0.08000000000000007,-0.41500000000000004,0.0048799999999999955,-0.007080000000000086,0.00048000000000003595,0.1299999999999999,-0.125,0.47,0.0008600000000000829,0.00550000000000006,0.005859999999999976,1742256906.261157
0.26,0.09499999999999997,-0.4,0.004999999999999893,-0.002080000000000082,0.006220000000000114,0.14000000000000012,-0.12,0.45500000000000007,0.0029200000000000337,0.009039999999999937,-0.00012000000000000899,1742256906.37633
0.2650000000000001,0.10000000000000009,-0.41500000000000004,0.00537999999999994,-0.007320000000000104,0.007319999999999993,0.135,-0.125,0.4650000000000001,0.0018400000000000638,0.010380000000000056,-0.0017000000000000348,1742256906.4890208
0.2650000000000001,0.10000000000000009,-0.395,-0.0013400000000000079,-0.00036000000000002697,-0.0032999999999999696,0.1499999999999999,-0.13,0.44999999999999996,-0.006099999999999994,0.0023200000000000998,-0.0014600000000000168,1742256906.6032588
0.2650000000000001,0.1100000000000001,-0.405,0.0017000000000000348,0.0047600000000000975,0.0007399999999999629,0.1499999999999999,-0.12,0.44999999999999996,0.0,-0.0014600000000000168,-0.006220000000000003,1742256906.716981
0.2749999999999999,0.10000000000000009,-0.4099999999999999,0.014899999999999913,-0.01966000000000001,-0.005619999999999958,0.14500000000000002,-0.14,0.4650000000000001,0.0017000000000000348,0.01317999999999997,0.00048000000000003595,1742256906.835655
0.2749999999999999,0.10000000000000009,-0.39,0.016839999999999966,-0.029899999999999927,0.018320000000000114,0.14500000000000002,-0.10499999999999998,0.45999999999999996,0.0039000000000000146,0.03917999999999999,-0.005619999999999958,1742256906.944146
0.29000000000000004,0.11499999999999999,-0.4,0.009279999999999955,-0.019159999999999955,0.005859999999999976,0.17500000000000004,-0.14,0.44999999999999996,0.0027999999999999137,0.02171999999999996,-0.010000000000000009,1742256907.057269
0.29499999999999993,0.1200000000000001,-0.37,0.007940000000000058,-0.019159999999999955,0.0037799999999998946,0.17999999999999994,-0.13,0.43999999999999995,-0.010499999999999954,0.015139999999999931,0.001100000000000101,1742256907.174256
0.30000000000000004,0.1299999999999999,-0.385,-0.0040200000000000236,-0.006720000000000059,0.014899999999999913,0.18999999999999995,-0.10999999999999999,0.44500000000000006,-0.010259999999999936,0.011479999999999935,-0.0043999999999999595,1742256907.28521
0.30499999999999994,0.135,-0.385,-0.006960000000000077,-0.0030599999999999516,0.014899999999999913,0.19500000000000006,-0.125,0.43999999999999995,-0.01978000000000002,0.0024399999999999977,-0.011240000000000028,1742256907.39919
0.29499999999999993,0.1299999999999999,-0.37,0.0018400000000000638,-0.0027999999999999137,0.011600000000000055,0.18999999999999995,-0.12,0.43999999999999995,0.0008600000000000829,0.00878000000000001,-0.007940000000000058,1742256907.513849
0.29499999999999993,0.14000000000000012,-0.375,0.0035399999999998766,-0.0013400000000000079,0.010860000000000092,0.19999999999999996,-0.12,0.44500000000000006,-0.0022000000000000908,0.007200000000000095,-0.006340000000000012,1742256907.6270258
0.29499999999999993,0.135,-0.38,-0.0007399999999999629,-0.00024000000000001798,0.00770000000000004,0.18999999999999995,-0.125,0.43999999999999995,0.0017000000000000348,0.0040199999999999125,-0.0026799999999999047,1742256907.741266
0.29499999999999993,0.135,-0.37,-0.0022000000000000908,0.0029200000000000337,0.0013400000000001189,0.19500000000000006,-0.12,0.43999999999999995,-0.0014600000000000168,-0.001960000000000073,-0.00024000000000001798,1742256907.85503
0.29000000000000004,0.135,-0.38,-0.006840000000000068,0.0048799999999999955,0.001100000000000101,0.19500000000000006,-0.12,0.43999999999999995,0.0014600000000000168,-0.010000000000000009,-0.0017000000000000348,1742256907.969007
0.2849999999999999,0.1299999999999999,-0.38,-0.0008599999999999719,0.0026800000000000157,-0.0017000000000000348,0.18999999999999995,-0.125,0.43999999999999995,0.0031799999999999606,-0.005739999999999967,-0.0010999999999999899,1742256908.083214
0.2849999999999999,0.1299999999999999,-0.38,-0.0008599999999999719,0.0026800000000000157,0.0008600000000000829,0.18500000000000005,-0.125,0.43999999999999995,0.0040199999999999125,-0.0007399999999999629,-0.0022000000000000908,1742256908.197061
0.2849999999999999,0.1299999999999999,-0.38,-0.008539999999999992,0.008539999999999992,0.00770000000000004,0.18500000000000005,-0.12,0.43999999999999995,0.0015800000000001369,-0.006220000000000003,-0.005859999999999976,1742256908.313161
0.28,0.135,-0.395,-0.01317999999999997,0.012320000000000109,0.011360000000000037,0.17500000000000004,-0.125,0.44999999999999996,0.0030599999999998406,-0.010379999999999945,-0.013679999999999914,1742256908.425101
0.2749999999999999,0.135,-0.395,0.0009799999999999809,0.0048799999999999955,0.0027999999999999137,0.17500000000000004,-0.125,0.44500000000000006,0.0034199999999999786,-0.0031799999999999606,-0.005979999999999985,1742256908.538955
0.27,0.135,-0.395,-0.0006199999999999539,0.0045200000000000795,-0.0009799999999999809,0.17500000000000004,-0.135,0.44500000000000006,0.0037799999999998946,-0.0040200000000000236,-0.0029199999999999227,1742256908.653328
0.27,0.1299999999999999,-0.395,-0.008299999999999974,0.01550000000000007,-0.0015800000000000258,0.17500000000000004,-0.13,0.44500000000000006,0.0026800000000000157,-0.010379999999999945,0.00024000000000001798,1742256908.766201
0.2650000000000001,0.135,-0.4099999999999999,0.016720000000000068,-0.0047599999999999865,-0.0015800000000000258,0.15999999999999992,-0.13,0.45500000000000007,0.0042800000000000615,-0.01317999999999997,-0.0018400000000000638,1742256908.880168
0.27,0.1299999999999999,-0.395,0.00024000000000001798,-0.00782000000000005,-0.0027999999999999137,0.16500000000000004,-0.135,0.44500000000000006,-0.00770000000000004,0.0014600000000000168,0.005619999999999958,1742256908.994069
0.27,0.1299999999999999,-0.385,-0.00537999999999994,0.012320000000000109,-0.0027999999999999137,0.16500000000000004,-0.11499999999999999,0.44999999999999996,-0.00024000000000001798,-0.02076,-0.0018400000000000638,1742256909.108207
0.2650000000000001,0.1299999999999999,-0.4,-0.001960000000000073,0.011600000000000055,-0.006099999999999994,0.14000000000000012,-0.13,0.45999999999999996,0.0031799999999999606,-0.021120000000000028,-0.0009799999999999809,1742256909.222059
0.2650000000000001,0.1299999999999999,-0.405,-0.0012199999999999989,0.008539999999999992,-0.0075599999999999,0.14000000000000012,-0.125,0.45500000000000007,0.005239999999999911,-0.0075599999999999,0.00550000000000006,1742256909.336035
0.2549999999999999,0.1299999999999999,-0.405,0.0040199999999999125,0.0017000000000000348,-0.005499999999999949,0.1499999999999999,-0.14500000000000002,0.4650000000000001,0.007940000000000058,-0.008919999999999928,-0.00048000000000003595,1742256909.453128
0.2549999999999999,0.1100000000000001,-0.405,-0.007440000000000002,-0.006460000000000021,0.0024399999999999977,0.1200000000000001,-0.125,0.47,-0.024780000000000024,0.00865999999999989,0.0023200000000000998,1742256909.563051
0.26,0.1299999999999999,-0.405,0.007319999999999993,-0.008059999999999956,0.018799999999999928,0.135,-0.10499999999999998,0.45999999999999996,-0.018440000000000012,0.010860000000000092,-0.015139999999999931,1742256909.676959
0.26,0.14500000000000002,-0.395,0.0017000000000000348,-0.0037800000000000056,0.005859999999999976,0.14500000000000002,-0.13,0.45999999999999996,-0.0014600000000000168,0.006720000000000059,-0.008179999999999965,1742256909.7931452
0.2650000000000001,0.14000000000000012,-0.395,0.00537999999999994,-0.0041599999999999415,0.0047600000000000975,0.1499999999999999,-0.11499999999999999,0.45999999999999996,-0.0036599999999999966,0.012820000000000054,-0.0010999999999999899,1742256909.9039402
0.27,0.14500000000000002,-0.395,0.0023200000000000998,-0.00048000000000003595,0.0007399999999999629,0.15500000000000003,-0.12,0.45500000000000007,0.0026800000000000157,0.00782000000000016,0.00024000000000001798,1742256910.017952
0.27,0.14000000000000012,-0.395,0.0039000000000000146,-0.0034199999999999786,-0.0023200000000000998,0.1499999999999999,-0.11499999999999999,0.44500000000000006,0.008539999999999992,0.015139999999999931,0.0036599999999999966,1742256910.133887
0.27,0.1499999999999999,-0.395,0.0025599999999998957,-0.0012199999999999989,-0.0040200000000000236,0.16500000000000004,-0.125,0.44999999999999996,-0.0007399999999999629,0.0017000000000000348,0.0007399999999999629,1742256910.2460968
0.27,0.14500000000000002,-0.395,0.0030599999999998406,0.00048000000000003595,-0.0045199999999999685,0.16500000000000004,-0.11499999999999999,0.43999999999999995,-0.0013400000000000079,0.006720000000000059,0.0027999999999999137,1742256910.360013
0.2650000000000001,0.1299999999999999,-0.395,-0.007320000000000104,0.005740000000000078,0.0008600000000000829,0.15999999999999992,-0.12,0.4650000000000001,-0.0017000000000000348,0.0021999999999999797,-0.0008599999999999719,1742256910.473952
0.27,0.14500000000000002,-0.395,-0.008179999999999965,0.009640000000000093,-0.0013400000000000079,0.16500000000000004,-0.11499999999999999,0.43999999999999995,-0.0037800000000000056,0.0036599999999999966,0.001100000000000101,1742256910.588083
0.27,0.14500000000000002,-0.4,-0.005859999999999976,0.01097999999999999,-0.0046399999999999775,0.16500000000000004,-0.12,0.43999999999999995,0.0040199999999999125,-0.01525999999999994,-0.0037800000000000056,1742256910.702062
0.27,0.135,-0.39,0.007440000000000113,0.0014600000000000168,-0.010000000000000009,0.15999999999999992,-0.12,0.44500000000000006,0.006340000000000012,0.0021999999999999797,0.00537999999999994,1742256910.8160489
0.2549999999999999,0.1499999999999999,-0.405,-0.01097999999999999,0.007440000000000113,-0.017080000000000095,0.16500000000000004,-0.14500000000000002,0.43999999999999995,-0.017820000000000058,-0.005120000000000013,0.0045200000000000795,1742256910.933263
0.2749999999999999,0.125,-0.395,0.0006200000000000649,-0.002080000000000082,-0.022340000000000027,0.1499999999999999,-0.10999999999999999,0.44999999999999996,-0.006340000000000012,0.0024399999999999977,0.015139999999999931,1742256911.0441449
0.27,0.1200000000000001,-0.4,-0.002080000000000082,0.009400000000000075,-0.0047599999999999865,0.16500000000000004,-0.09499999999999997,0.44999999999999996,0.0031799999999999606,-0.0026799999999999047,0.0029200000000000337,1742256911.157999
0.26,0.11499999999999999,-0.4,-0.0013400000000000079,0.010860000000000092,-0.006960000000000077,0.14500000000000002,-0.10999999999999999,0.45999999999999996,-0.00036000000000002697,-0.006220000000000003,-0.0043999999999999595,1742256911.273045
0.26,0.1299999999999999,-0.41500000000000004,0.016839999999999966,0.034540000000000015,-0.010739999999999972,0.15500000000000003,-0.09499999999999997,0.45500000000000007,0.008059999999999956,-0.014639999999999986,-0.0040200000000000236,1742256911.386047
0.2450000000000001,0.1299999999999999,-0.42500000000000004,0.00782000000000016,0.0026800000000000157,-0.0122000000000001,0.1299999999999999,-0.14500000000000002,0.48,0.016240000000000032,0.0029200000000000337,0.011239999999999917,1742256911.4998422
0.2549999999999999,0.10499999999999998,-0.41500000000000004,0.0023200000000000998,-0.0039000000000000146,-0.0040200000000000236,0.135,-0.11499999999999999,0.45500000000000007,0.00865999999999989,0.0032999999999998586,0.009879999999999889,1742256911.613506
0.25,0.135,-0.4099999999999999,0.0030599999999998406,-0.0032999999999999696,0.006839999999999957,0.14000000000000012,-0.125,0.45999999999999996,0.0006200000000000649,0.007319999999999993,-0.006840000000000068,1742256911.7268631
0.25,0.135,-0.405,-0.00012000000000000899,0.0023200000000000998,-0.0050000000000000044,0.1499999999999999,-0.135,0.44999999999999996,-0.0035399999999999876,0.0014600000000000168,0.00024000000000001798,1742256911.8409832
0.2549999999999999,0.135,-0.405,-0.006960000000000077,0.00550000000000006,0.0031799999999999606,0.15999999999999992,-0.11499999999999999,0.45500000000000007,-0.0035399999999999876,-0.0007399999999999629,-0.002080000000000082,1742256911.954886
0.2549999999999999,0.1299999999999999,-0.41500000000000004,0.0008600000000000829,-0.0036599999999999966,-0.0010999999999999899,0.14000000000000012,-0.13,0.4650000000000001,0.0017000000000000348,-0.0026799999999999047,-0.0014600000000000168,1742256912.06897
0.2549999999999999,0.125,-0.405,0.0023200000000000998,-0.0042799999999999505,0.008539999999999992,0.14500000000000002,-0.10999999999999999,0.45500000000000007,-0.0022000000000000908,-0.0015800000000000258,-0.0035399999999999876,1742256912.182902
0.2450000000000001,0.1200000000000001,-0.41500000000000004,0.014520000000000088,-0.002080000000000082,0.015139999999999931,0.14000000000000012,-0.11499999999999999,0.45999999999999996,0.006340000000000012,0.0042800000000000615,-0.008299999999999974,1742256912.296889
0.24,0.14500000000000002,-0.41500000000000004,0.007560000000000011,-0.007940000000000058,0.012700000000000156,0.14000000000000012,-0.135,0.45500000000000007,0.0017000000000000348,0.010140000000000038,-0.013679999999999914,1742256912.4109051
0.2450000000000001,0.14000000000000012,-0.4,0.0009799999999999809,0.0024399999999999977,0.01195999999999997,0.15500000000000003,-0.125,0.44999999999999996,-0.0010999999999999899,0.00537999999999994,-0.0122000000000001,1742256912.5248482
0.24,0.15500000000000003,-0.41500000000000004,0.0021999999999999797,0.010739999999999972,0.010620000000000074,0.15500000000000003,-0.135,0.44999999999999996,0.007319999999999993,-0.0026799999999999047,-0.012580000000000036,1742256912.637751
0.23499999999999988,0.14500000000000002,-0.41500000000000004,0.008419999999999872,0.0030599999999998406,0.0046399999999999775,0.14500000000000002,-0.14500000000000002,0.44500000000000006,0.01208000000000009,0.010860000000000092,-0.0008599999999999719,1742256912.753539
0.23499999999999988,0.15999999999999992,-0.405,0.0019599999999999618,0.010259999999999936,0.016839999999999966,0.15999999999999992,-0.14500000000000002,0.43999999999999995,0.015139999999999931,0.0006200000000000649,-0.010739999999999972,1742256912.863778
0.22999999999999998,0.16999999999999993,-0.41500000000000004,0.0024399999999999977,0.0041599999999999415,0.005740000000000078,0.14500000000000002,-0.17000000000000004,0.43999999999999995,0.008059999999999956,-0.005979999999999985,-0.008179999999999965,1742256912.9767869
0.2250000000000001,0.15999999999999992,-0.4099999999999999,0.0030599999999998406,0.0031799999999999606,0.0029200000000000337,0.1499999999999999,-0.16000000000000003,0.44500000000000006,0.007440000000000113,0.0036599999999999966,-0.0026799999999999047,1742256913.093984
0.2250000000000001,0.16500000000000004,-0.41500000000000004,-0.0007399999999999629,0.0040199999999999125,0.0041599999999999415,0.1499999999999999,-0.16000000000000003,0.44500000000000006,0.006340000000000012,0.0039000000000000146,-0.0022000000000000908,1742256913.202909
0.2250000000000001,0.16500000000000004,-0.4099999999999999,-0.0037800000000000056,0.0042800000000000615,0.0023200000000000998,0.1499999999999999,-0.16500000000000004,0.43999999999999995,0.0013400000000001189,-0.0040200000000000236,-0.0012199999999999989,1742256913.316837
0.2250000000000001,0.16999999999999993,-0.41500000000000004,0.0008600000000000829,-0.0009799999999999809,0.0030599999999998406,0.14000000000000012,-0.16500000000000004,0.44500000000000006,0.0023200000000000998,-0.00024000000000001798,-0.0022000000000000908,1742256913.433438
0.21999999999999997,0.16999999999999993,-0.4099999999999999,0.00024000000000001798,-0.0015800000000000258,0.0024399999999999977,0.14500000000000002,-0.16500000000000004,0.43999999999999995,0.00011999999999989797,0.0017000000000000348,-0.0029199999999999227,1742256913.544836
0.2250000000000001,0.16500000000000004,-0.4099999999999999,0.00024000000000001798,0.00048000000000003595,0.00011999999999989797,0.14500000000000002,-0.16500000000000004,0.43999999999999995,0.0007399999999999629,0.0007399999999999629,-0.00048000000000003595,1742256913.658901
0.21999999999999997,0.16500000000000004,-0.41500000000000004,-0.0017000000000000348,0.0024399999999999977,-0.00012000000000000899,0.14500000000000002,-0.17000000000000004,0.43999999999999995,0.0034199999999999786,-0.0023200000000000998,-0.0009799999999999809,1742256913.7734349
0.21999999999999997,0.15999999999999992,-0.41500000000000004,-0.0018400000000000638,0.00048000000000003595,0.005239999999999911,0.14000000000000012,-0.16000000000000003,0.44500000000000006,0.0008600000000000829,0.00024000000000001798,-0.0042799999999999505,1742256913.886935
0.21500000000000008,0.16500000000000004,-0.41999999999999993,-0.0008599999999999719,0.0031799999999999606,0.001100000000000101,0.14500000000000002,-0.17000000000000004,0.43999999999999995,0.0009799999999999809,0.0014600000000000168,-0.0034199999999999786,1742256914.0008
0.2250000000000001,0.16500000000000004,-0.41500000000000004,0.00011999999999989797,0.0015800000000001369,-0.0022000000000000908,0.1499999999999999,-0.17000000000000004,0.43999999999999995,0.0040199999999999125,-0.0006199999999999539,0.0025599999999998957,1742256914.114815
0.21500000000000008,0.16500000000000004,-0.41999999999999993,-0.0014600000000000168,0.0006200000000000649,0.00048000000000003595,0.14000000000000012,-0.17000000000000004,0.43999999999999995,-0.0007399999999999629,-0.0026799999999999047,-0.0013400000000000079,1742256914.2288089
0.21500000000000008,0.16999999999999993,-0.41999999999999993,0.0014600000000000168,0.0009799999999999809,0.0012199999999999989,0.14000000000000012,-0.17000000000000004,0.43999999999999995,0.00035999999999991594,-0.0007399999999999629,-0.0015800000000000258,1742256914.342905
0.21500000000000008,0.17500000000000004,-0.41500000000000004,0.009039999999999937,0.0018400000000000638,-0.011360000000000037,0.14500000000000002,-0.17500000000000004,0.43999999999999995,0.0036599999999999966,0.0035399999999998766,0.0043999999999999595,1742256914.455887
0.21999999999999997,0.16500000000000004,-0.41500000000000004,0.00048000000000003595,0.0027999999999999137,-0.0010999999999999899,0.14500000000000002,-0.16500000000000004,0.43999999999999995,0.0017000000000000348,0.0006200000000000649,0.00048000000000003595,1742256914.573919
0.21500000000000008,0.16999999999999993,-0.41999999999999993,-0.00012000000000000899,0.00024000000000001798,-0.00048000000000003595,0.14000000000000012,-0.17999999999999994,0.43999999999999995,-0.00036000000000002697,-0.00012000000000000899,0.00011999999999989797,1742256914.683887
0.21999999999999997,0.16500000000000004,-0.41500000000000004,-0.00048000000000003595,0.0007399999999999629,0.0023200000000000998,0.14500000000000002,-0.17000000000000004,0.43999999999999995,-0.0015800000000000258,0.00035999999999991594,-0.002080000000000082,1742256914.7978408
0.21500000000000008,0.16999999999999993,-0.41500000000000004,0.0012199999999999989,-0.0006199999999999539,0.0034199999999999786,0.14000000000000012,-0.17000000000000004,0.43999999999999995,0.00024000000000001798,0.0039000000000000146,-0.0030599999999999516,1742256914.9118552
0.21500000000000008,0.16999999999999993,-0.4099999999999999,-0.0008599999999999719,0.0035399999999998766,-0.0008599999999999719,0.1499999999999999,-0.17500000000000004,0.43999999999999995,0.0019599999999999618,0.0,-0.00024000000000001798,1742256915.025918
0.20999999999999996,0.15999999999999992,-0.41500000000000004,-0.0022000000000000908,0.005619999999999958,0.0035399999999998766,0.14000000000000012,-0.17000000000000004,0.43999999999999995,0.0031799999999999606,-0.0024400000000001087,-0.0023200000000000998,1742256915.13986
0.20999999999999996,0.16999999999999993,-0.41999999999999993,-0.0024400000000001087,0.009279999999999955,0.010000000000000009,0.14000000000000012,-0.17999999999999994,0.44500000000000006,0.006599999999999939,-0.0015800000000000258,-0.008539999999999992,1742256915.2538629
0.19999999999999996,0.17500000000000004,-0.42500000000000004,-0.0008599999999999719,0.0048799999999999955,-0.006220000000000003,0.14000000000000012,-0.18999999999999995,0.43999999999999995,0.0007399999999999629,-0.00036000000000002697,0.0015800000000001369,1742256915.367962
0.20999999999999996,0.16500000000000004,-0.41999999999999993,-0.0036599999999999966,0.0026800000000000157,-0.0009799999999999809,0.14000000000000012,-0.17500000000000004,0.43999999999999995,0.00537999999999994,0.00782000000000016,-0.00036000000000002697,1742256915.481916
0.19999999999999996,0.16999999999999993,-0.42500000000000004,-0.008299999999999974,-0.0029199999999999227,-0.017080000000000095,0.135,-0.18999999999999995,0.43999999999999995,-0.016240000000000032,-0.0026799999999999047,0.00782000000000016,1742256915.59603
0.21500000000000008,0.14500000000000002,-0.42500000000000004,-0.00878000000000001,0.0037799999999998946,-0.011480000000000046,0.14000000000000012,-0.15000000000000002,0.44500000000000006,-0.007320000000000104,-0.008919999999999928,0.010140000000000038,1742256915.713273
0.20500000000000007,0.1499999999999999,-0.41999999999999993,-0.0037800000000000056,0.001100000000000101,0.0012199999999999989,0.14000000000000012,-0.16000000000000003,0.44500000000000006,0.00011999999999989797,0.0013400000000001189,0.0009799999999999809,1742256915.823861
0.20999999999999996,0.16999999999999993,-0.41999999999999993,-0.015619999999999967,0.006720000000000059,0.005980000000000096,0.15500000000000003,-0.17500000000000004,0.42999999999999994,-0.00036000000000002697,-0.005859999999999976,-0.008179999999999965,1742256915.937736
0.19500000000000006,0.16500000000000004,-0.42999999999999994,-0.01305999999999996,0.00550000000000006,-0.015020000000000033,0.14000000000000012,-0.17999999999999994,0.43999999999999995,-0.005979999999999985,-0.011360000000000037,0.006220000000000114,1742256916.052968
0.20999999999999996,0.135,-0.43500000000000005,-0.012940000000000063,0.01208000000000009,-0.021240000000000037,0.1299999999999999,-0.16500000000000004,0.44500000000000006,-0.0029199999999999227,-0.019279999999999964,0.013419999999999987,1742256916.165798
0.19500000000000006,0.1100000000000001,-0.43500000000000005,-0.029779999999999918,-0.0027999999999999137,-0.005979999999999985,0.11499999999999999,-0.14500000000000002,0.44999999999999996,-0.030019999999999936,0.01110000000000011,0.011360000000000037,1742256916.2799091
0.18999999999999995,0.10000000000000009,-0.45500000000000007,-0.011360000000000037,0.007200000000000095,-0.0037800000000000056,0.125,-0.15500000000000003,0.4750000000000001,-0.014900000000000024,-0.0026799999999999047,0.00782000000000016,1742256916.3962429
0.20500000000000007,0.10499999999999998,-0.45500000000000007,-0.012700000000000045,0.020140000000000047,0.005740000000000078,0.11499999999999999,-0.14500000000000002,0.45500000000000007,0.0032999999999998586,-0.011240000000000028,-0.0050000000000000044,1742256916.507734
0.18999999999999995,0.1100000000000001,-0.43999999999999995,-0.017080000000000095,0.008299999999999974,-0.006840000000000068,0.10499999999999998,-0.16500000000000004,0.47,-0.010259999999999936,-0.01525999999999994,-0.0014600000000000168,1742256916.621851
0.18500000000000005,0.10000000000000009,-0.43999999999999995,-0.001960000000000073,0.013539999999999885,-0.022220000000000018,0.10499999999999998,-0.15500000000000003,0.44999999999999996,0.013800000000000034,-0.019159999999999955,0.011600000000000055,1742256916.735858
0.17500000000000004,0.10000000000000009,-0.45999999999999996,0.0042800000000000615,0.015139999999999931,-0.022460000000000035,0.09000000000000008,-0.15000000000000002,0.4650000000000001,0.013299999999999867,-0.014639999999999986,0.013539999999999885,1742256916.8537111
0.17500000000000004,0.09499999999999997,-0.4650000000000001,0.0015800000000001369,0.0013400000000001189,-0.01746000000000003,0.08499999999999996,-0.16000000000000003,0.45999999999999996,0.012580000000000036,-0.001960000000000073,0.02210000000000001,1742256916.963694
0.18500000000000005,0.08000000000000007,-0.4650000000000001,0.0040199999999999125,-0.023440000000000016,-0.0025599999999998957,0.07499999999999996,-0.15000000000000002,0.4750000000000001,0.002080000000000082,0.019160000000000066,0.018059999999999965,1742256917.077861
0.20500000000000007,0.09499999999999997,-0.42999999999999994,-0.0043999999999999595,-0.011960000000000082,0.013299999999999867,0.10499999999999998,-0.13,0.44999999999999996,-0.0045199999999999685,0.012820000000000054,-0.0008599999999999719,1742256917.192814
0.19500000000000006,0.1100000000000001,-0.45999999999999996,0.005619999999999958,0.0019599999999999618,0.025140000000000162,0.09499999999999997,-0.14500000000000002,0.45999999999999996,-0.0015800000000000258,-0.0023200000000000998,-0.020139999999999936,1742256917.305643
0.19500000000000006,0.125,-0.43500000000000005,-0.0031799999999999606,-0.011099999999999999,0.006599999999999939,0.11499999999999999,-0.16000000000000003,0.44999999999999996,-0.0032999999999999696,0.011600000000000055,-0.012580000000000036,1742256917.418848
0.19999999999999996,0.10499999999999998,-0.44500000000000006,-0.01427999999999996,-0.00988,0.006839999999999957,0.11499999999999999,-0.15000000000000002,0.45999999999999996,-0.00770000000000004,0.006220000000000114,-0.011240000000000028,1742256917.533602
0.20999999999999996,0.09499999999999997,-0.44999999999999996,-0.01855999999999991,-0.006099999999999994,0.0040199999999999125,0.1100000000000001,-0.135,0.47,-0.016240000000000032,-0.0009799999999999809,-0.011360000000000037,1742256917.646825
0.19999999999999996,0.09000000000000008,-0.44500000000000006,-0.01537999999999995,-0.0031799999999999606,0.0023200000000000998,0.10000000000000009,-0.13,0.4650000000000001,-0.012580000000000036,-0.0032999999999999696,-0.012580000000000036,1742256917.760843
0.19999999999999996,0.09499999999999997,-0.42999999999999994,-0.007940000000000058,0.0036599999999999966,0.004999999999999893,0.10499999999999998,-0.13,0.44500000000000006,-0.00024000000000001798,-0.0025599999999998957,-0.011240000000000028,1742256917.875511
0.20999999999999996,0.08499999999999996,-0.45999999999999996,-0.0043999999999999595,-0.005739999999999967,-0.0045199999999999685,0.1100000000000001,-0.15500000000000003,0.48,-0.0006199999999999539,0.0036599999999999966,0.0027999999999999137,1742256917.988919
0.18999999999999995,0.08499999999999996,-0.43500000000000005,-0.008660000000000001,0.006460000000000132,0.0012199999999999989,0.10000000000000009,-0.135,0.44500000000000006,-0.0032999999999999696,-0.0023200000000000998,-0.0041599999999999415,1742256918.102784
0.20500000000000007,0.08000000000000007,-0.4650000000000001,-0.006220000000000003,0.0046399999999999775,-0.0015800000000000258,0.09499999999999997,-0.135,0.4750000000000001,-0.0024400000000001087,-0.006720000000000059,-0.0039000000000000146,1742256918.216896
0.19999999999999996,0.07499999999999996,-0.44500000000000006,-0.0006199999999999539,-0.0047599999999999865,0.0046399999999999775,0.09499999999999997,-0.14,0.4650000000000001,-0.00048000000000003595,0.006220000000000114,-0.0017000000000000348,1742256918.33375
0.19500000000000006,0.08000000000000007,-0.45500000000000007,-0.006340000000000012,0.0006200000000000649,0.0031799999999999606,0.09499999999999997,-0.14500000000000002,0.45999999999999996,0.00048000000000003595,0.002080000000000082,-0.005739999999999967,1742256918.444779
0.18999999999999995,0.08000000000000007,-0.45500000000000007,-0.0018400000000000638,-0.008179999999999965,-0.00782000000000005,0.10000000000000009,-0.15500000000000003,0.45999999999999996,0.0025599999999998957,0.006099999999999994,0.0048799999999999955,1742256918.55902
0.20500000000000007,0.07499999999999996,-0.44500000000000006,-0.0031799999999999606,-0.02198,-0.014039999999999941,0.10499999999999998,-0.14500000000000002,0.4650000000000001,-0.008419999999999983,0.007940000000000058,0.017819999999999947,1742256918.673289
0.21999999999999997,0.06499999999999995,-0.43500000000000005,0.014520000000000088,-0.01636000000000004,-0.0024400000000001087,0.10000000000000009,-0.12,0.4650000000000001,0.006220000000000114,0.01977999999999991,0.015740000000000087,1742256918.786774
0.23499999999999988,0.06499999999999995,-0.43999999999999995,0.017940000000000067,-0.0007399999999999629,0.01635999999999993,0.11499999999999999,-0.11499999999999999,0.4650000000000001,0.009759999999999991,0.025640000000000107,-0.0029199999999999227,1742256918.900638
0.21999999999999997,0.08499999999999996,-0.43999999999999995,0.0043999999999999595,-0.0042799999999999505,0.03905999999999987,0.1200000000000001,-0.13,0.44999999999999996,0.009160000000000057,0.023679999999999923,-0.027840000000000087,1742256919.013909
0.2250000000000001,0.1299999999999999,-0.42999999999999994,-0.02294000000000007,-0.029179999999999984,0.037599999999999856,0.1499999999999999,-0.17000000000000004,0.43500000000000005,-0.00036000000000002697,0.017340000000000133,-0.02429999999999999,1742256919.127763
0.22999999999999998,0.1100000000000001,-0.41999999999999993,0.002080000000000082,0.0013400000000001189,-0.0040200000000000236,0.15500000000000003,-0.15000000000000002,0.43999999999999995,0.007079999999999975,0.0006200000000000649,0.00048000000000003595,1742256919.2416298
0.2250000000000001,0.1200000000000001,-0.43500000000000005,0.0035399999999998766,0.007200000000000095,-0.005979999999999985,0.14500000000000002,-0.16000000000000003,0.45500000000000007,0.0045200000000000795,-0.006340000000000012,0.0013400000000001189,1742256919.355636
0.21999999999999997,0.09499999999999997,-0.44500000000000006,-0.0030599999999999516,0.014399999999999968,-0.007080000000000086,0.135,-0.135,0.45999999999999996,-0.0026799999999999047,-0.019039999999999946,0.005859999999999976,1742256919.473812
0.21500000000000008,0.10000000000000009,-0.44999999999999996,0.0015800000000001369,0.0009799999999999809,-0.0008599999999999719,0.125,-0.15000000000000002,0.45999999999999996,0.0014600000000000168,-0.001960000000000073,-0.0007399999999999629,1742256919.583663
0.21999999999999997,0.10499999999999998,-0.43500000000000005,0.0009799999999999809,-0.0015800000000000258,0.0015800000000001369,0.1299999999999999,-0.14500000000000002,0.44999999999999996,0.00048000000000003595,0.00011999999999989797,-0.001960000000000073,1742256919.6976168
0.21500000000000008,0.10499999999999998,-0.43500000000000005,-0.0006199999999999539,-0.0015800000000000258,0.0013400000000001189,0.135,-0.15000000000000002,0.44999999999999996,0.0023200000000000998,0.0025599999999998957,-0.0018400000000000638,1742256919.813204
0.21999999999999997,0.10000000000000009,-0.43999999999999995,-0.0009799999999999809,-0.0014600000000000168,0.0029200000000000337,0.135,-0.15000000000000002,0.44999999999999996,-0.0013400000000000079,0.00048000000000003595,-0.0025599999999998957,1742256919.9247308
0.21500000000000008,0.10499999999999998,-0.43500000000000005,-0.00036000000000002697,0.0007399999999999629,-0.0006199999999999539,0.135,-0.15500000000000003,0.44999999999999996,0.00011999999999989797,-0.0009799999999999809,-0.0025599999999998957,1742256920.038763
0.21500000000000008,0.10000000000000009,-0.43500000000000005,0.0019599999999999618,-0.0008599999999999719,-0.0014600000000000168,0.1299999999999999,-0.15000000000000002,0.44999999999999996,0.0031799999999999606,0.00035999999999991594,0.0012199999999999989,1742256920.153788
0.21500000000000008,0.10000000000000009,-0.43500000000000005,0.0031799999999999606,0.0023200000000000998,0.0017000000000000348,0.135,-0.15000000000000002,0.44999999999999996,0.0048799999999999955,0.0012199999999999989,-0.0009799999999999809,1742256920.266571
0.21500000000000008,0.10499999999999998,-0.43999999999999995,0.0014600000000000168,0.00035999999999991594,0.0034199999999999786,0.1299999999999999,-0.15500000000000003,0.44999999999999996,0.005120000000000013,0.0035399999999998766,-0.0027999999999999137,1742256920.3795269
0.20999999999999996,0.1100000000000001,-0.43500000000000005,-0.00012000000000000899,0.0018400000000000638,0.00011999999999989797,0.14000000000000012,-0.16000000000000003,0.44500000000000006,0.0023200000000000998,-0.00012000000000000899,-0.0024400000000001087,1742256920.4936268
0.21500000000000008,0.10499999999999998,-0.43999999999999995,-0.005120000000000013,-0.0018400000000000638,-0.0036599999999999966,0.135,-0.16000000000000003,0.44500000000000006,0.0014600000000000168,-0.0013400000000000079,0.0013400000000001189,1742256920.606823
0.20999999999999996,0.1100000000000001,-0.43999999999999995,-0.0046399999999999775,-0.0018400000000000638,-0.0023200000000000998,0.1299999999999999,-0.14500000000000002,0.45500000000000007,-0.011960000000000082,-0.0015800000000000258,0.0008600000000000829,1742256920.720893
0.21999999999999997,0.10000000000000009,-0.43500000000000005,0.0026800000000000157,0.0009799999999999809,0.0017000000000000348,0.1299999999999999,-0.14500000000000002,0.45500000000000007,0.005120000000000013,0.0027999999999999137,0.0,1742256920.834561
0.21500000000000008,0.10499999999999998,-0.43500000000000005,0.0034199999999999786,-0.0006199999999999539,0.0037799999999998946,0.1299999999999999,-0.15500000000000003,0.45500000000000007,0.0030599999999998406,0.0031799999999999606,-0.0018400000000000638,1742256920.947649
0.21999999999999997,0.10499999999999998,-0.43999999999999995,0.0027999999999999137,-0.0006199999999999539,0.0030599999999998406,0.135,-0.15500000000000003,0.44999999999999996,0.0042800000000000615,0.0037799999999998946,-0.001960000000000073,1742256921.0616472
0.21500000000000008,0.10499999999999998,-0.42999999999999994,0.0026800000000000157,-0.001960000000000073,0.005740000000000078,0.14000000000000012,-0.15500000000000003,0.44500000000000006,0.005740000000000078,0.005120000000000013,-0.0022000000000000908,1742256921.175649
0.21500000000000008,0.1100000000000001,-0.43500000000000005,0.0018400000000000638,-0.00048000000000003595,0.0014600000000000168,0.14000000000000012,-0.16000000000000003,0.44500000000000006,0.0018400000000000638,0.0041599999999999415,-0.001960000000000073,1742256921.293749
0.21500000000000008,0.1100000000000001,-0.43500000000000005,0.0024399999999999977,-0.00036000000000002697,0.0019599999999999618,0.14500000000000002,-0.16000000000000003,0.44500000000000006,0.0026800000000000157,0.0030599999999998406,0.00024000000000001798,1742256921.4037938
0.21500000000000008,0.1200000000000001,-0.43500000000000005,0.0019599999999999618,0.0006200000000000649,0.0009799999999999809,0.14000000000000012,-0.16500000000000004,0.44500000000000006,0.0012199999999999989,0.0012199999999999989,-0.0017000000000000348,1742256921.51755
0.21999999999999997,0.11499999999999999,-0.43500000000000005,-0.0006199999999999539,0.0017000000000000348,-0.00036000000000002697,0.14500000000000002,-0.16500000000000004,0.44500000000000006,0.0019599999999999618,0.0006200000000000649,-0.00048000000000003595,1742256921.634232
0.21500000000000008,0.11499999999999999,-0.43500000000000005,0.007440000000000113,-0.0014600000000000168,0.0046399999999999775,0.14000000000000012,-0.16000000000000003,0.44500000000000006,0.0032999999999998586,0.0036599999999999966,-0.002080000000000082,1742256921.74557
0.21500000000000008,0.125,-0.43500000000000005,-0.0008599999999999719,0.0030599999999998406,0.0012199999999999989,0.1499999999999999,-0.17000000000000004,0.43999999999999995,0.0008600000000000829,0.0014600000000000168,-0.0034199999999999786,1742256921.859554
0.21500000000000008,0.1200000000000001,-0.43500000000000005,0.0017000000000000348,0.0013400000000001189,-0.0006199999999999539,0.14500000000000002,-0.16500000000000004,0.44500000000000006,0.0014600000000000168,0.00011999999999989797,0.00035999999999991594,1742256921.9739552
0.21500000000000008,0.1200000000000001,-0.43500000000000005,-0.00048000000000003595,0.0013400000000001189,0.001100000000000101,0.14500000000000002,-0.16500000000000004,0.43999999999999995,0.002080000000000082,0.0014600000000000168,-0.001960000000000073,1742256922.087726
0.21500000000000008,0.1200000000000001,-0.42999999999999994,-0.00024000000000001798,-0.0009799999999999809,-0.0014600000000000168,0.14500000000000002,-0.17000000000000004,0.43999999999999995,0.0012199999999999989,-0.00012000000000000899,0.0009799999999999809,1742256922.201788
0.21500000000000008,0.1200000000000001,-0.43500000000000005,-0.0006199999999999539,0.0030599999999998406,-0.0037800000000000056,0.1499999999999999,-0.17000000000000004,0.43999999999999995,-0.0018400000000000638,-0.0029199999999999227,0.00011999999999989797,1742256922.315662
0.21500000000000008,0.11499999999999999,-0.43500000000000005,-0.0025599999999998957,0.0034199999999999786,-0.0027999999999999137,0.14500000000000002,-0.16500000000000004,0.43999999999999995,0.00048000000000003595,-0.0041599999999999415,-0.00024000000000001798,1742256922.4334872
0.20999999999999996,0.11499999999999999,-0.43500000000000005,-0.006340000000000012,0.0030599999999998406,-0.006220000000000003,0.14500000000000002,-0.17500000000000004,0.43999999999999995,-0.0040200000000000236,-0.007440000000000002,0.002080000000000082,1742256922.543676
0.20999999999999996,0.10499999999999998,-0.43500000000000005,-0.005499999999999949,0.0025599999999998957,-0.0075599999999999,0.14000000000000012,-0.16000000000000003,0.44500000000000006,-0.0040200000000000236,-0.005979999999999985,0.0039000000000000146,1742256922.657683
0.20999999999999996,0.1100000000000001,-0.43999999999999995,-0.005619999999999958,0.00537999999999994,-0.00660000000000005,0.14000000000000012,-0.16500000000000004,0.44500000000000006,-0.0015800000000000258,-0.006220000000000003,0.0015800000000001369,1742256922.773428
0.20999999999999996,0.10000000000000009,-0.43999999999999995,0.0032999999999998586,-0.0027999999999999137,-0.0030599999999999516,0.125,-0.16500000000000004,0.45500000000000007,0.00024000000000001798,-0.00024000000000001798,0.0037799999999998946,1742256922.885587
0.21500000000000008,0.10499999999999998,-0.43999999999999995,-0.0008599999999999719,0.0,0.0027999999999999137,0.135,-0.16000000000000003,0.44500000000000006,0.00011999999999989797,0.0009799999999999809,-0.00048000000000003595,1742256922.999574
0.21500000000000008,0.10499999999999998,-0.43999999999999995,0.0006200000000000649,-0.00036000000000002697,0.0012199999999999989,0.135,-0.16000000000000003,0.44999999999999996,-0.00036000000000002697,0.002080000000000082,-0.0017000000000000348,1742256923.113825
0.20999999999999996,0.10499999999999998,-0.43999999999999995,0.00024000000000001798,-0.0023200000000000998,0.0009799999999999809,0.135,-0.16500000000000004,0.44999999999999996,0.0006200000000000649,0.0026800000000000157,-0.00036000000000002697,1742256923.227697
0.20999999999999996,0.10499999999999998,-0.43999999999999995,0.00035999999999991594,-0.0017000000000000348,0.0021999999999999797,0.135,-0.16000000000000003,0.44999999999999996,-0.00036000000000002697,0.0023200000000000998,-0.0013400000000000079,1742256923.341822
0.21500000000000008,0.1100000000000001,-0.43500000000000005,-0.0014600000000000168,-0.0012199999999999989,0.0021999999999999797,0.135,-0.16000000000000003,0.44500000000000006,0.0,0.0023200000000000998,-0.0029199999999999227,1742256923.455613
0.21500000000000008,0.1100000000000001,-0.43500000000000005,0.006340000000000012,-0.0032999999999999696,-0.00048000000000003595,0.135,-0.16000000000000003,0.44500000000000006,0.0015800000000001369,0.0030599999999998406,-0.00024000000000001798,1742256923.573459
0.21500000000000008,0.11499999999999999,-0.43999999999999995,-0.0007399999999999629,0.002080000000000082,-0.0048799999999999955,0.14500000000000002,-0.17500000000000004,0.43999999999999995,0.0034199999999999786,-0.0018400000000000638,0.00048000000000003595,1742256923.683595
0.21500000000000008,0.10000000000000009,-0.43500000000000005,0.00035999999999991594,-0.0012199999999999989,-0.0023200000000000998,0.135,-0.16000000000000003,0.44999999999999996,0.0013400000000001189,0.0017000000000000348,0.0039000000000000146,1742256923.797597
0.21500000000000008,0.1100000000000001,-0.43500000000000005,-0.0006199999999999539,0.0023200000000000998,0.0023200000000000998,0.14000000000000012,-0.16000000000000003,0.44500000000000006,0.00024000000000001798,-0.00048000000000003595,-0.0022000000000000908,1742256923.911477
0.21500000000000008,0.11499999999999999,-0.43999999999999995,0.0008600000000000829,-0.00048000000000003595,0.0024399999999999977,0.135,-0.16500000000000004,0.44500000000000006,0.002080000000000082,0.002080000000000082,-0.0027999999999999137,1742256924.024478
0.21500000000000008,0.11499999999999999,-0.43500000000000005,0.0014600000000000168,-0.0007399999999999629,0.0012199999999999989,0.14000000000000012,-0.16500000000000004,0.44500000000000006,0.002080000000000082,0.0026800000000000157,-0.0012199999999999989,1742256924.1385112
0.21500000000000008,0.1100000000000001,-0.43500000000000005,0.0021999999999999797,0.00024000000000001798,0.0041599999999999415,0.14000000000000012,-0.16000000000000003,0.44500000000000006,0.0027999999999999137,0.0037799999999998946,-0.0015800000000000258,1742256924.253526
0.21500000000000008,0.1200000000000001,-0.43500000000000005,-0.00012000000000000899,-0.00036000000000002697,0.005740000000000078,0.14500000000000002,-0.17000000000000004,0.43999999999999995,0.0027999999999999137,0.0042800000000000615,-0.005120000000000013,1742256924.3656042
0.21500000000000008,0.1200000000000001,-0.43500000000000005,0.0,-0.00036000000000002697,0.00011999999999989797,0.1499999999999999,-0.17000000000000004,0.43999999999999995,0.0006200000000000649,0.0007399999999999629,-0.001960000000000073,1742256924.479498
0.21500000000000008,0.11499999999999999,-0.43500000000000005,-0.00024000000000001798,0.00024000000000001798,0.00024000000000001798,0.14500000000000002,-0.16500000000000004,0.43999999999999995,0.0017000000000000348,0.0013400000000001189,-0.00024000000000001798,1742256924.593552
0.21500000000000008,0.1100000000000001,-0.43500000000000005,0.001100000000000101,-0.00012000000000000899,0.0013400000000001189,0.14000000000000012,-0.16500000000000004,0.44500000000000006,0.0013400000000001189,0.001100000000000101,-0.0008599999999999719,1742256924.707547
0.21500000000000008,0.1200000000000001,-0.43500000000000005,-0.00012000000000000899,0.0012199999999999989,0.0023200000000000998,0.14500000000000002,-0.17000000000000004,0.43999999999999995,0.0034199999999999786,0.0027999999999999137,-0.002080000000000082,1742256924.821561
0.21500000000000008,0.1200000000000001,-0.43500000000000005,-0.00048000000000003595,0.0006200000000000649,-0.0014600000000000168,0.14500000000000002,-0.17500000000000004,0.43999999999999995,0.001100000000000101,0.0007399999999999629,0.00035999999999991594,1742256924.935617
0.21500000000000008,0.11499999999999999,-0.43500000000000005,0.00035999999999991594,0.0014600000000000168,0.0018400000000000638,0.14500000000000002,-0.16500000000000004,0.43999999999999995,-0.0006199999999999539,0.0007399999999999629,-0.0022000000000000908,1742256925.05373
0.20999999999999996,0.1200000000000001,-0.43500000000000005,-0.0007399999999999629,0.0013400000000001189,-0.0025599999999998957,0.14500000000000002,-0.17999999999999994,0.43999999999999995,-0.00012000000000000899,-0.0036599999999999966,-0.00024000000000001798,1742256925.163569
0.21500000000000008,0.11499999999999999,-0.43500000000000005,0.0013400000000001189,0.0009799999999999809,-0.0023200000000000998,0.14000000000000012,-0.16500000000000004,0.43999999999999995,0.002080000000000082,-0.0008599999999999719,0.0019599999999999618,1742256925.279112
0.20999999999999996,0.11499999999999999,-0.43999999999999995,0.00011999999999989797,-0.00012000000000000899,-0.0010999999999999899,0.14000000000000012,-0.17500000000000004,0.44500000000000006,0.001100000000000101,-0.0009799999999999809,0.00048000000000003595,1742256925.3923252
0.20999999999999996,0.11499999999999999,-0.43500000000000005,-0.00048000000000003595,0.0019599999999999618,0.0008600000000000829,0.14500000000000002,-0.17000000000000004,0.43999999999999995,0.0015800000000001369,0.0006200000000000649,-0.0013400000000000079,1742256925.505549
0.20999999999999996,0.11499999999999999,-0.43999999999999995,-0.0010999999999999899,0.0018400000000000638,-0.0039000000000000146,0.14000000000000012,-0.17500000000000004,0.43999999999999995,0.00024000000000001798,-0.0013400000000000079,0.0017000000000000348,1742256925.619566
0.20999999999999996,0.11499999999999999,-0.43500000000000005,-0.00048000000000003595,0.00048000000000003595,0.00035999999999991594,0.14000000000000012,-0.17000000000000004,0.43999999999999995,0.0023200000000000998,0.0009799999999999809,0.00011999999999989797,1742256925.733728
0.20999999999999996,0.11499999999999999,-0.43500000000000005,-0.0006199999999999539,0.00035999999999991594,0.0008600000000000829,0.14000000000000012,-0.17000000000000004,0.44500000000000006,0.00011999999999989797,0.00011999999999989797,-0.00012000000000000899,1742256925.847615
0.20999999999999996,0.11499999999999999,-0.43999999999999995,0.00024000000000001798,0.00024000000000001798,-0.0013400000000000079,0.14000000000000012,-0.17500000000000004,0.43999999999999995,-0.00048000000000003595,-0.0008599999999999719,-0.00012000000000000899,1742256925.961552
0.20999999999999996,0.1100000000000001,-0.43999999999999995,0.00011999999999989797,-0.00024000000000001798,0.0007399999999999629,0.14000000000000012,-0.17000000000000004,0.43999999999999995,0.0,0.0008600000000000829,-0.0008599999999999719,1742256926.075385
0.20500000000000007,0.11499999999999999,-0.43500000000000005,-0.0006199999999999539,0.0008600000000000829,0.0012199999999999989,0.14500000000000002,-0.17000000000000004,0.43999999999999995,0.0009799999999999809,0.0029200000000000337,-0.0013400000000000079,1742256926.193675
0.20999999999999996,0.1200000000000001,-0.43500000000000005,0.0007399999999999629,0.00035999999999991594,-0.0018400000000000638,0.14500000000000002,-0.17000000000000004,0.43999999999999995,-0.0012199999999999989,-0.0006199999999999539,0.00024000000000001798,1742256926.303383
0.20999999999999996,0.11499999999999999,-0.43500000000000005,0.0007399999999999629,-0.0009799999999999809,0.0007399999999999629,0.14000000000000012,-0.17000000000000004,0.43999999999999995,0.0006200000000000649,0.001100000000000101,0.00011999999999989797,1742256926.417388
0.20999999999999996,0.11499999999999999,-0.43500000000000005,0.0012199999999999989,-0.0018400000000000638,0.00048000000000003595,0.14000000000000012,-0.17000000000000004,0.43999999999999995,0.0008600000000000829,0.0017000000000000348,-0.0007399999999999629,1742256926.5342898
0.20999999999999996,0.1200000000000001,-0.43500000000000005,-0.00048000000000003595,-0.0006199999999999539,0.0,0.14500000000000002,-0.17500000000000004,0.43999999999999995,0.0013400000000001189,0.0018400000000000638,-0.0010999999999999899,1742256926.6539478
0.20999999999999996,0.1200000000000001,-0.43500000000000005,-0.0008599999999999719,0.00011999999999989797,-0.0015800000000000258,0.14500000000000002,-0.17000000000000004,0.43999999999999995,0.0006200000000000649,0.00048000000000003595,0.00011999999999989797,1742256926.76351
0.20999999999999996,0.11499999999999999,-0.43500000000000005,0.00024000000000001798,-0.0006199999999999539,-0.0023200000000000998,0.14000000000000012,-0.17000000000000004,0.44500000000000006,-0.0010999999999999899,-0.0010999999999999899,0.0009799999999999809,1742256926.877515
0.20999999999999996,0.11499999999999999,-0.43999999999999995,-0.0015800000000000258,0.001100000000000101,-0.002080000000000082,0.14500000000000002,-0.17500000000000004,0.43999999999999995,-0.0007399999999999629,-0.001960000000000073,0.00011999999999989797,1742256926.9937332
0.20999999999999996,0.1100000000000001,-0.43999999999999995,-0.001960000000000073,0.00048000000000003595,-0.0022000000000000908,0.14000000000000012,-0.17000000000000004,0.43999999999999995,-0.0009799999999999809,-0.00024000000000001798,0.0012199999999999989,1742256927.105469
0.20999999999999996,0.11499999999999999,-0.43999999999999995,-0.0027999999999999137,-0.00036000000000002697,0.00024000000000001798,0.14000000000000012,-0.17000000000000004,0.43999999999999995,-0.0012199999999999989,-0.00036000000000002697,-0.0014600000000000168,1742256927.219598
0.20999999999999996,0.11499999999999999,-0.43500000000000005,-0.0017000000000000348,0.0,0.00024000000000001798,0.14000000000000012,-0.16500000000000004,0.43999999999999995,-0.0025599999999998957,-0.00012000000000000899,-0.0015800000000000258,1742256927.3334348
0.20999999999999996,0.1100000000000001,-0.43999999999999995,-0.0015800000000000258,-0.00024000000000001798,-0.0030599999999999516,0.14000000000000012,-0.17000000000000004,0.43999999999999995,-0.0010999999999999899,-0.00048000000000003595,0.00048000000000003595,1742256927.447644
0.20999999999999996,0.1100000000000001,-0.43999999999999995,-0.002080000000000082,-0.00012000000000000899,-0.0013400000000000079,0.14000000000000012,-0.17000000000000004,0.43999999999999995,-0.0014600000000000168,-0.00036000000000002697,-0.00024000000000001798,1742256927.5615182
0.20999999999999996,0.11499999999999999,-0.43999999999999995,-0.00024000000000001798,0.0015800000000001369,0.0026800000000000157,0.14000000000000012,-0.16500000000000004,0.43999999999999995,-0.0006199999999999539,0.00035999999999991594,-0.0018400000000000638,1742256927.6754189
0.20999999999999996,0.1100000000000001,-0.43500000000000005,-0.00024000000000001798,0.0014600000000000168,-0.0025599999999998957,0.14000000000000012,-0.17500000000000004,0.43999999999999995,0.0017000000000000348,-0.0029199999999999227,-0.00048000000000003595,1742256927.793014
0.20999999999999996,0.1100000000000001,-0.43999999999999995,-0.0018400000000000638,0.00035999999999991594,-0.0031799999999999606,0.14000000000000012,-0.17000000000000004,0.44500000000000006,0.00035999999999991594,-0.0026799999999999047,0.0026800000000000157,1742256927.9034612
0.20999999999999996,0.10499999999999998,-0.43500000000000005,0.00011999999999989797,-0.00012000000000000899,-0.00048000000000003595,0.135,-0.16500000000000004,0.44500000000000006,0.0013400000000001189,0.00035999999999991594,0.0006200000000000649,1742256928.0175092
0.20999999999999996,0.1100000000000001,-0.43999999999999995,0.0009799999999999809,-0.00012000000000000899,0.0006200000000000649,0.135,-0.17000000000000004,0.44500000000000006,0.0018400000000000638,0.0008600000000000829,-0.0013400000000000079,1742256928.133847
0.20999999999999996,0.1100000000000001,-0.43500000000000005,0.0013400000000001189,-0.0006199999999999539,-0.00036000000000002697,0.14000000000000012,-0.17000000000000004,0.44500000000000006,0.0027999999999999137,0.002080000000000082,0.0009799999999999809,1742256928.245467
0.20500000000000007,0.1100000000000001,-0.43999999999999995,0.0007399999999999629,0.0007399999999999629,0.0007399999999999629,0.14000000000000012,-0.17000000000000004,0.43999999999999995,0.0012199999999999989,0.0019599999999999618,-0.0012199999999999989,1742256928.359242
0.20999999999999996,0.11499999999999999,-0.43999999999999995,-0.0006199999999999539,0.0018400000000000638,-0.0008599999999999719,0.14000000000000012,-0.17000000000000004,0.43999999999999995,-0.0006199999999999539,-0.0009799999999999809,-0.00048000000000003595,1742256928.473475
0.20999999999999996,0.1100000000000001,-0.43999999999999995,0.0006200000000000649,0.0007399999999999629,-0.0017000000000000348,0.14000000000000012,-0.17500000000000004,0.43999999999999995,0.001100000000000101,0.00011999999999989797,0.0007399999999999629,1742256928.586314
0.20999999999999996,0.1100000000000001,-0.43999999999999995,0.00024000000000001798,0.00048000000000003595,-0.0008599999999999719,0.14000000000000012,-0.17000000000000004,0.44500000000000006,0.0,-0.0006199999999999539,-0.0007399999999999629,1742256928.700541
0.20999999999999996,0.1100000000000001,-0.43999999999999995,0.00011999999999989797,0.00011999999999989797,-0.0009799999999999809,0.14000000000000012,-0.17000000000000004,0.43999999999999995,0.0006200000000000649,-0.0010999999999999899,0.00035999999999991594,1742256928.8143492
0.20999999999999996,0.1100000000000001,-0.43999999999999995,0.00048000000000003595,0.0007399999999999629,-0.0012199999999999989,0.14000000000000012,-0.17000000000000004,0.43999999999999995,-0.00024000000000001798,-0.00048000000000003595,0.00011999999999989797,1742256928.927326
0.20999999999999996,0.1100000000000001,-0.43999999999999995,0.00011999999999989797,-0.00048000000000003595,-0.00012000000000000899,0.14000000000000012,-0.17000000000000004,0.44500000000000006,0.0008600000000000829,-0.00036000000000002697,-0.00048000000000003595,1742256929.041428
0.20999999999999996,0.11499999999999999,-0.43999999999999995,-0.00036000000000002697,0.0008600000000000829,0.0012199999999999989,0.14500000000000002,-0.17000000000000004,0.43999999999999995,0.0009799999999999809,-0.00036000000000002697,-0.001960000000000073,1742256929.1553578
0.20999999999999996,0.1100000000000001,-0.43999999999999995,0.0018400000000000638,0.00048000000000003595,-0.0012199999999999989,0.14000000000000012,-0.17000000000000004,0.43999999999999995,0.00011999999999989797,0.0012199999999999989,0.0006200000000000649,1742256929.2731788
0.20999999999999996,0.1100000000000001,-0.43999999999999995,-0.00024000000000001798,0.001100000000000101,-0.00012000000000000899,0.14000000000000012,-0.17000000000000004,0.43999999999999995,0.0006200000000000649,0.0007399999999999629,0.0,1742256929.382417
0.20999999999999996,0.11499999999999999,-0.43999999999999995,0.00048000000000003595,-0.00012000000000000899,0.00035999999999991594,0.14000000000000012,-0.17000000000000004,0.43999999999999995,0.0,0.00035999999999991594,-0.0007399999999999629,1742256929.49635
0.20999999999999996,0.1100000000000001,-0.43999999999999995,0.0007399999999999629,-0.00024000000000001798,-0.0018400000000000638,0.14000000000000012,-0.17000000000000004,0.43999999999999995,0.0007399999999999629,-0.0010999999999999899,0.0009799999999999809,1742256929.612791
0.20999999999999996,0.1100000000000001,-0.43999999999999995,0.0007399999999999629,-0.0009799999999999809,-0.0006199999999999539,0.135,-0.17000000000000004,0.44500000000000006,0.0009799999999999809,-0.00012000000000000899,0.0012199999999999989,1742256929.724473
0.20999999999999996,0.11499999999999999,-0.43999999999999995,-0.00024000000000001798,-0.0013400000000000079,0.0029200000000000337,0.14000000000000012,-0.16500000000000004,0.43999999999999995,0.0032999999999998586,0.0031799999999999606,-0.0012199999999999989,1742256929.838401
0.20999999999999996,0.11499999999999999,-0.43999999999999995,0.00011999999999989797,-0.00012000000000000899,-0.0018400000000000638,0.14500000000000002,-0.17500000000000004,0.43999999999999995,0.0,-0.0010999999999999899,0.00024000000000001798,1742256929.952683
0.20999999999999996,0.1100000000000001,-0.43999999999999995,0.0006200000000000649,-0.0006199999999999539,0.00035999999999991594,0.14000000000000012,-0.17000000000000004,0.43999999999999995,0.0009799999999999809,-0.00036000000000002697,0.001100000000000101,1742256930.066346
0.20999999999999996,0.11499999999999999,-0.43500000000000005,-0.0007399999999999629,-0.0009799999999999809,0.0027999999999999137,0.14000000000000012,-0.17000000000000004,0.43999999999999995,0.00048000000000003595,0.0009799999999999809,-0.0018400000000000638,1742256930.180419
0.20999999999999996,0.11499999999999999,-0.43999999999999995,-0.0008599999999999719,0.00024000000000001798,-0.00048000000000003595,0.14000000000000012,-0.17500000000000004,0.43999999999999995,0.0007399999999999629,-0.0007399999999999629,-0.00036000000000002697,1742256930.294413
0.20999999999999996,0.11499999999999999,-0.43999999999999995,-0.00024000000000001798,-0.00012000000000000899,-0.0022000000000000908,0.14000000000000012,-0.17000000000000004,0.44500000000000006,0.0006200000000000649,-0.00012000000000000899,0.0017000000000000348,1742256930.408499
0.20999999999999996,0.11499999999999999,-0.43500000000000005,-0.0014600000000000168,-0.0014600000000000168,0.001100000000000101,0.14000000000000012,-0.17000000000000004,0.43999999999999995,-0.00036000000000002697,0.0012199999999999989,-0.0015800000000000258,1742256930.522393
0.20999999999999996,0.11499999999999999,-0.43999999999999995,-0.0008599999999999719,-0.00012000000000000899,-0.0012199999999999989,0.14500000000000002,-0.17500000000000004,0.43999999999999995,-0.0015800000000000258,-0.0013400000000000079,-0.002080000000000082,1742256930.636517
0.20999999999999996,0.1100000000000001,-0.43500000000000005,-0.00048000000000003595,-0.0009799999999999809,-0.0022000000000000908,0.14000000000000012,-0.17000000000000004,0.43999999999999995,0.00048000000000003595,0.0012199999999999989,0.0015800000000001369,1742256930.7528472
0.20999999999999996,0.1100000000000001,-0.43999999999999995,-0.0026799999999999047,-0.0009799999999999809,-0.0022000000000000908,0.14500000000000002,-0.17500000000000004,0.43999999999999995,-0.0022000000000000908,-0.0007399999999999629,0.00024000000000001798,1742256930.864481
0.20999999999999996,0.11499999999999999,-0.42999999999999994,-0.0009799999999999809,-0.0018400000000000638,-0.002080000000000082,0.14000000000000012,-0.17000000000000004,0.43999999999999995,-0.0025599999999998957,0.00035999999999991594,0.00024000000000001798,1742256930.978948
0.21999999999999997,0.11499999999999999,-0.43999999999999995,-0.005499999999999949,0.00537999999999994,-0.0027999999999999137,0.1499999999999999,-0.16500000000000004,0.43999999999999995,-0.0013400000000000079,-0.005619999999999958,-0.0007399999999999629,1742256931.09313
0.19500000000000006,0.1200000000000001,-0.45500000000000007,-0.00770000000000004,-0.005619999999999958,-0.011960000000000082,0.135,-0.18999999999999995,0.44999999999999996,-0.0034199999999999786,-0.001960000000000073,0.0048799999999999955,1742256931.2064462
0.20999999999999996,0.1100000000000001,-0.43999999999999995,-0.024660000000000015,-0.010000000000000009,-0.05688000000000004,0.15500000000000003,-0.21999999999999997,0.42999999999999994,-0.03076000000000001,-0.02513999999999994,0.033560000000000034,1742256931.320439
0.22999999999999998,0.05499999999999994,-0.41500000000000004,-0.021120000000000028,-0.00660000000000005,-0.04920000000000002,0.1200000000000001,-0.11499999999999999,0.44500000000000006,-0.03088000000000002,-0.024540000000000006,0.03638000000000008,1742256931.4344552
0.2450000000000001,0.040000000000000036,-0.43999999999999995,-0.01855999999999991,0.0029200000000000337,-0.036619999999999986,0.125,-0.10999999999999999,0.4750000000000001,-0.014780000000000015,-0.021240000000000037,0.023320000000000007,1742256931.548398
0.24,0.014999999999999902,-0.44500000000000006,-0.015619999999999967,-0.0012199999999999989,-0.021720000000000073,0.1100000000000001,-0.09999999999999998,0.47,-0.016120000000000023,-0.021480000000000055,0.01648000000000005,1742256931.662428
0.23499999999999988,0.014999999999999902,-0.44500000000000006,-0.006460000000000021,-0.009519999999999973,-0.00036000000000002697,0.10000000000000009,-0.09999999999999998,0.4849999999999999,-0.00660000000000005,0.0025599999999998957,0.0023200000000000998,1742256931.776438
0.23499999999999988,0.04499999999999993,-0.44999999999999996,-0.0036599999999999966,-0.014399999999999968,0.011600000000000055,0.1100000000000001,-0.10999999999999999,0.4750000000000001,-0.009519999999999973,0.012580000000000036,-0.009519999999999973,1742256931.890351
0.2450000000000001,0.03499999999999992,-0.43999999999999995,-0.011240000000000028,-0.03967999999999994,-0.0012199999999999989,0.1200000000000001,-0.135,0.4650000000000001,-0.027840000000000087,0.027579999999999938,0.0037799999999998946,1742256932.004412
0.28,0.004999999999999893,-0.39,0.018920000000000048,-0.009519999999999973,0.009039999999999937,0.15500000000000003,-0.015000000000000013,0.44999999999999996,-0.01415999999999995,0.03259999999999996,0.01305999999999985,1742256932.118232
0.26,0.014999999999999902,-0.405,0.026980000000000004,0.011600000000000055,0.013539999999999885,0.1499999999999999,-0.06000000000000005,0.45999999999999996,0.03614000000000006,0.01758000000000015,-0.0013400000000000079,1742256932.2332768
0.24,0.05499999999999994,-0.42500000000000004,-0.0015800000000000258,0.0283199999999999,0.014040000000000052,0.1499999999999999,-0.09999999999999998,0.44999999999999996,0.015139999999999931,-0.010739999999999972,-0.019039999999999946,1742256932.345191
0.2450000000000001,0.07000000000000006,-0.45999999999999996,0.0042800000000000615,0.008059999999999956,0.0023200000000000998,0.1499999999999999,-0.14500000000000002,0.47,0.0025599999999998957,-0.009039999999999937,-0.00537999999999994,1742256932.459162
0.24,0.050000000000000044,-0.44999999999999996,-0.015619999999999967,-0.012940000000000063,0.019400000000000084,0.14000000000000012,-0.12,0.45999999999999996,-0.010000000000000009,0.007940000000000058,-0.006960000000000077,1742256932.573271
0.2450000000000001,0.06000000000000005,-0.42500000000000004,-0.01415999999999995,-0.03882000000000008,0.016240000000000032,0.135,-0.125,0.4750000000000001,-0.03051999999999999,0.03088000000000002,-0.009159999999999946,1742256932.6864
0.26,0.06499999999999995,-0.405,0.005239999999999911,0.006960000000000077,0.012700000000000156,0.17999999999999994,-0.07499999999999996,0.43999999999999995,-0.0017000000000000348,0.009759999999999991,-0.01636000000000004,1742256932.8001049
0.25,0.05499999999999994,-0.42999999999999994,0.011719999999999953,0.010860000000000092,0.0021999999999999797,0.16500000000000004,-0.10999999999999999,0.45999999999999996,0.018179999999999863,-0.0027999999999999137,-0.0036599999999999966,1742256932.916555
0.24,0.07000000000000006,-0.43500000000000005,0.01208000000000009,0.004999999999999893,0.005120000000000013,0.15999999999999992,-0.12,0.45999999999999996,0.01770000000000005,0.00537999999999994,-0.0034199999999999786,1742256933.026111
0.2450000000000001,0.07000000000000006,-0.42999999999999994,0.011239999999999917,0.006839999999999957,0.0027999999999999137,0.16500000000000004,-0.11499999999999999,0.44999999999999996,0.010140000000000038,0.00048000000000003595,0.0017000000000000348,1742256933.139138
0.24,0.07499999999999996,-0.42500000000000004,0.010620000000000074,0.008299999999999974,0.00770000000000004,0.16500000000000004,-0.125,0.44500000000000006,0.019039999999999946,0.0,-0.0039000000000000146,1742256933.2536268
0.23499999999999988,0.09499999999999997,-0.43500000000000005,0.008920000000000039,0.0018400000000000638,0.0031799999999999606,0.16999999999999993,-0.15500000000000003,0.44500000000000006,0.015740000000000087,0.0032999999999998586,-0.006720000000000059,1742256933.365129
0.23499999999999988,0.08499999999999996,-0.43500000000000005,0.0037799999999998946,0.0013400000000001189,-0.00048000000000003595,0.16500000000000004,-0.14500000000000002,0.44500000000000006,0.00024000000000001798,-0.0014600000000000168,-0.002080000000000082,1742256933.4782238
0.22999999999999998,0.09499999999999997,-0.43500000000000005,0.0041599999999999415,-0.0041599999999999415,-0.009759999999999991,0.16500000000000004,-0.16000000000000003,0.43500000000000005,0.0037799999999998946,0.0015800000000001369,0.0025599999999998957,1742256933.59325
0.2450000000000001,0.07499999999999996,-0.42500000000000004,-0.0018400000000000638,-0.0042799999999999505,-0.0039000000000000146,0.16500000000000004,-0.135,0.44500000000000006,-0.0018400000000000638,-0.0015800000000000258,0.006340000000000012,1742256933.7064672
0.23499999999999988,0.09499999999999997,-0.42500000000000004,-0.0022000000000000908,-0.0012199999999999989,-0.0018400000000000638,0.16999999999999993,-0.14,0.43999999999999995,-0.0034199999999999786,-0.002080000000000082,-0.001960000000000073,1742256933.8204072
0.24,0.09000000000000008,-0.42500000000000004,0.014399999999999968,-0.0013400000000000079,-0.02100000000000002,0.17500000000000004,-0.15000000000000002,0.43500000000000005,0.01195999999999997,-0.0018400000000000638,0.014399999999999968,1742256933.934226
0.2450000000000001,0.06499999999999995,-0.42500000000000004,0.0043999999999999595,-0.0008599999999999719,-0.007200000000000095,0.15999999999999992,-0.125,0.44999999999999996,0.0048799999999999955,-0.0029199999999999227,0.009279999999999955,1742256934.048237
0.2450000000000001,0.07499999999999996,-0.42999999999999994,-0.0023200000000000998,0.001100000000000101,0.0045200000000000795,0.16500000000000004,-0.135,0.44500000000000006,0.0017000000000000348,-0.0018400000000000638,-0.0034199999999999786,1742256934.162118
0.24,0.08499999999999996,-0.42500000000000004,0.0021999999999999797,0.007560000000000011,0.0009799999999999809,0.17500000000000004,-0.135,0.43500000000000005,0.0043999999999999595,-0.0010999999999999899,-0.006960000000000077,1742256934.276088
0.23499999999999988,0.09000000000000008,-0.43999999999999995,0.0023200000000000998,0.007319999999999993,-0.006099999999999994,0.15999999999999992,-0.16000000000000003,0.44999999999999996,0.007560000000000011,-0.00782000000000005,0.0012199999999999989,1742256934.3891158
0.23499999999999988,0.07499999999999996,-0.42999999999999994,-0.00048000000000003595,0.0034199999999999786,-0.0032999999999999696,0.15500000000000003,-0.14,0.44500000000000006,0.0021999999999999797,-0.0023200000000000998,0.0029200000000000337,1742256934.503248
0.22999999999999998,0.08000000000000007,-0.42999999999999994,-0.0013400000000000079,0.0032999999999998586,0.0013400000000001189,0.15500000000000003,-0.14500000000000002,0.44500000000000006,0.0025599999999998957,-0.0023200000000000998,-0.0040200000000000236,1742256934.617114
0.22999999999999998,0.08499999999999996,-0.43500000000000005,-0.0031799999999999606,0.0036599999999999966,0.0015800000000001369,0.15500000000000003,-0.14500000000000002,0.44500000000000006,0.0015800000000001369,-0.0017000000000000348,-0.0036599999999999966,1742256934.7335548
0.22999999999999998,0.08000000000000007,-0.43500000000000005,-0.0035399999999999876,-0.00024000000000001798,-0.005979999999999985,0.15500000000000003,-0.15500000000000003,0.44500000000000006,-0.0015800000000000258,-0.0039000000000000146,0.0025599999999998957,1742256934.845376
0.22999999999999998,0.07499999999999996,-0.43999999999999995,-0.0031799999999999606,0.0018400000000000638,-0.00036000000000002697,0.15500000000000003,-0.14500000000000002,0.44999999999999996,-0.00024000000000001798,-0.0030599999999999516,0.0,1742256934.959304
0.22999999999999998,0.07499999999999996,-0.43500000000000005,-0.0008599999999999719,-0.0026799999999999047,0.0014600000000000168,0.1499999999999999,-0.15000000000000002,0.44500000000000006,-0.0008599999999999719,0.0021999999999999797,-0.0015800000000000258,1742256935.073451
0.24,0.06499999999999995,-0.42999999999999994,-0.00012000000000000899,-0.00048000000000003595,0.008539999999999992,0.15999999999999992,-0.135,0.44500000000000006,-0.0006199999999999539,0.0046399999999999775,-0.0046399999999999775,1742256935.187267
0.21999999999999997,0.09000000000000008,-0.43999999999999995,0.00048000000000003595,0.00770000000000004,0.017940000000000067,0.15500000000000003,-0.15000000000000002,0.44500000000000006,0.005239999999999911,0.0037799999999998946,-0.01660000000000006,1742256935.3009632
0.2250000000000001,0.08499999999999996,-0.43500000000000005,0.0008600000000000829,-0.00024000000000001798,0.0048799999999999955,0.15999999999999992,-0.15000000000000002,0.44500000000000006,-0.0008599999999999719,0.0032999999999998586,-0.0050000000000000044,1742256935.416571
0.2250000000000001,0.09000000000000008,-0.43999999999999995,0.0021999999999999797,0.0023200000000000998,0.0026800000000000157,0.15999999999999992,-0.16000000000000003,0.44500000000000006,0.0026800000000000157,0.0031799999999999606,-0.0027999999999999137,1742256935.528074
0.2250000000000001,0.08499999999999996,-0.43999999999999995,-0.0008599999999999719,-0.0007399999999999629,-0.0006199999999999539,0.15500000000000003,-0.15500000000000003,0.44500000000000006,-0.00012000000000000899,0.0014600000000000168,-0.0009799999999999809,1742256935.6414
0.2250000000000001,0.08499999999999996,-0.43500000000000005,0.0007399999999999629,-0.00048000000000003595,0.0039000000000000146,0.15500000000000003,-0.15000000000000002,0.43999999999999995,-0.0007399999999999629,0.0023200000000000998,-0.0023200000000000998,1742256935.75508
0.2250000000000001,0.09000000000000008,-0.43500000000000005,0.0026800000000000157,0.0029200000000000337,0.006220000000000114,0.15999999999999992,-0.15500000000000003,0.43999999999999995,0.0030599999999998406,0.0040199999999999125,-0.006720000000000059,1742256935.86795
0.22999999999999998,0.08499999999999996,-0.42999999999999994,-0.002080000000000082,-0.0022000000000000908,0.0007399999999999629,0.15999999999999992,-0.15500000000000003,0.44500000000000006,-0.0015800000000000258,0.0039000000000000146,0.00035999999999991594,1742256935.981226
0.21999999999999997,0.09499999999999997,-0.43999999999999995,0.0012199999999999989,0.001100000000000101,-0.00036000000000002697,0.15999999999999992,-0.15500000000000003,0.43999999999999995,0.0006200000000000649,0.00011999999999989797,-0.00048000000000003595,1742256936.095058
0.22999999999999998,0.08499999999999996,-0.43500000000000005,-0.0013400000000000079,0.00035999999999991594,-0.0023200000000000998,0.15999999999999992,-0.15000000000000002,0.43999999999999995,0.00048000000000003595,-0.0010999999999999899,0.002080000000000082,1742256936.2129369
0.21999999999999997,0.09000000000000008,-0.43999999999999995,-0.0014600000000000168,0.0,0.0008600000000000829,0.15999999999999992,-0.15500000000000003,0.43999999999999995,0.00011999999999989797,0.0006200000000000649,-0.0024400000000001087,1742256936.323065
0.2250000000000001,0.09000000000000008,-0.43500000000000005,-0.002080000000000082,0.00024000000000001798,-0.0009799999999999809,0.15999999999999992,-0.15500000000000003,0.43999999999999995,-0.0009799999999999809,-0.0010999999999999899,-0.0009799999999999809,1742256936.436207
0.2250000000000001,0.08499999999999996,-0.43500000000000005,-0.0029199999999999227,0.00011999999999989797,-0.0026799999999999047,0.15999999999999992,-0.15000000000000002,0.43999999999999995,-0.001960000000000073,-0.002080000000000082,0.0012199999999999989,1742256936.553407
0.21999999999999997,0.08000000000000007,-0.43500000000000005,0.0018400000000000638,0.0017000000000000348,0.0007399999999999629,0.15500000000000003,-0.14500000000000002,0.44500000000000006,-0.0017000000000000348,-0.0013400000000000079,0.0015800000000001369,1742256936.66416
0.21999999999999997,0.09499999999999997,-0.43500000000000005,-0.0035399999999999876,0.0039000000000000146,-0.005120000000000013,0.16500000000000004,-0.16000000000000003,0.43500000000000005,-0.0046399999999999775,-0.006960000000000077,0.0036599999999999966,1742256936.778168
0.2250000000000001,0.07000000000000006,-0.43999999999999995,-0.007200000000000095,-0.0023200000000000998,-0.005859999999999976,0.14500000000000002,-0.14,0.45500000000000007,0.0,0.00011999999999989797,0.00550000000000006,1742256936.895725
0.24,0.07000000000000006,-0.42500000000000004,0.010739999999999972,0.00550000000000006,0.007200000000000095,0.16999999999999993,-0.125,0.44500000000000006,0.012320000000000109,0.009519999999999973,-0.0034199999999999786,1742256937.005988
0.21999999999999997,0.08000000000000007,-0.43500000000000005,0.006340000000000012,0.01746000000000003,0.016720000000000068,0.15500000000000003,-0.15000000000000002,0.43999999999999995,0.007200000000000095,-0.0042799999999999505,-0.018320000000000003,1742256937.118966
0.18999999999999995,0.1299999999999999,-0.4650000000000001,-0.00660000000000005,0.010259999999999936,0.015859999999999985,0.14000000000000012,-0.19500000000000006,0.44500000000000006,0.00011999999999989797,-0.008179999999999965,-0.020139999999999936,1742256937.233466
0.21500000000000008,0.10499999999999998,-0.43999999999999995,-0.007200000000000095,-0.0009799999999999809,-0.013799999999999923,0.15999999999999992,-0.16500000000000004,0.43999999999999995,-0.007940000000000058,-0.009639999999999982,0.009039999999999937,1742256937.346266
0.20500000000000007,0.09000000000000008,-0.44999999999999996,-0.0015800000000000258,-0.00036000000000002697,-0.007080000000000086,0.14500000000000002,-0.16000000000000003,0.44500000000000006,-0.0035399999999999876,-0.0039000000000000146,0.0047600000000000975,1742256937.460416
0.20999999999999996,0.07000000000000006,-0.44500000000000006,-0.00024000000000001798,-0.0042799999999999505,0.0021999999999999797,0.14000000000000012,-0.14500000000000002,0.44999999999999996,-0.0037800000000000056,0.0036599999999999966,0.0008600000000000829,1742256937.574153
0.20999999999999996,0.09000000000000008,-0.43999999999999995,-0.0023200000000000998,-0.0029199999999999227,0.010000000000000009,0.14500000000000002,-0.14500000000000002,0.44999999999999996,-0.0045199999999999685,0.0040199999999999125,-0.007440000000000002,1742256937.68814
0.21500000000000008,0.08000000000000007,-0.43500000000000005,0.005120000000000013,0.0018400000000000638,0.016720000000000068,0.14000000000000012,-0.135,0.44500000000000006,0.0017000000000000348,0.005740000000000078,-0.011240000000000028,1742256937.801963
0.20500000000000007,0.10499999999999998,-0.44999999999999996,0.004999999999999893,-0.0010999999999999899,0.008179999999999854,0.14500000000000002,-0.17000000000000004,0.44500000000000006,0.0037799999999998946,0.0045200000000000795,-0.006460000000000021,1742256937.917207
0.20999999999999996,0.10499999999999998,-0.43999999999999995,-0.006960000000000077,-0.0042799999999999505,-0.00537999999999994,0.1499999999999999,-0.16000000000000003,0.43999999999999995,-0.01636000000000004,-0.018179999999999974,0.010380000000000056,1742256938.02819
0.21999999999999997,0.08000000000000007,-0.44500000000000006,0.0034199999999999786,-0.0045199999999999685,-0.0047599999999999865,0.1299999999999999,-0.13,0.45999999999999996,-0.005499999999999949,-0.013799999999999923,0.007440000000000113,1742256938.142159
0.21500000000000008,0.09000000000000008,-0.43500000000000005,0.022460000000000147,-0.0022000000000000908,0.012820000000000054,0.135,-0.135,0.44999999999999996,0.01746000000000003,0.019400000000000084,-0.0043999999999999595,1742256938.2561228
0.20999999999999996,0.1100000000000001,-0.43999999999999995,0.015619999999999967,0.0047600000000000975,0.01868000000000003,0.14500000000000002,-0.15500000000000003,0.44500000000000006,0.016960000000000086,0.015260000000000051,-0.013679999999999914,1742256938.370016
0.20999999999999996,0.1299999999999999,-0.43500000000000005,0.010140000000000038,0.0041599999999999415,0.005859999999999976,0.15999999999999992,-0.17999999999999994,0.43500000000000005,0.009279999999999955,0.0046399999999999775,-0.008179999999999965,1742256938.4839082
0.2250000000000001,0.1100000000000001,-0.43999999999999995,0.07457999999999987,-0.0031799999999999606,0.026859999999999884,0.1499999999999999,-0.135,0.45999999999999996,0.04235999999999995,0.032480000000000064,-0.027100000000000013,1742256938.597194
0.19999999999999996,0.23499999999999988,-0.32499999999999996,0.20446000000000009,0.056279999999999886,-0.11450000000000005,0.1200000000000001,-0.16000000000000003,0.41500000000000004,-0.04248000000000007,-0.014639999999999986,-0.07922000000000007,1742256938.713492
0.18999999999999995,0.18500000000000005,-0.37,-0.10070000000000001,0.01428000000000007,0.0954600000000001,0.135,0.10499999999999998,0.385,-0.18920000000000003,-0.0025599999999998957,-0.30833999999999995,1742256938.8250408
0.1499999999999999,0.21999999999999997,-0.45999999999999996,0.014399999999999968,0.016240000000000032,-0.007320000000000104,0.03499999999999992,-0.07999999999999996,0.5049999999999999,-0.16370000000000007,-0.13415999999999995,-0.34374000000000005,1742256938.9389749
0.17999999999999994,0.2250000000000001,-0.39,0.04296000000000011,0.0039000000000000146,0.009400000000000075,-0.135,-0.18999999999999995,0.56,-0.029779999999999918,-0.15088000000000001,-0.24353999999999998,1742256939.05325
0.16500000000000004,0.2450000000000001,-0.4,0.031119999999999814,0.016599999999999948,-0.00012000000000000899,-0.10999999999999999,-0.16500000000000004,0.5150000000000001,0.04956000000000005,0.03198000000000012,-0.10803999999999991,1742256939.166993
0.14500000000000002,0.25,-0.41999999999999993,0.016119999999999912,0.012700000000000156,0.011840000000000073,-0.07999999999999996,-0.125,0.45999999999999996,0.037719999999999976,-0.00878000000000001,-0.05506,1742256939.2809129
0.1499999999999999,0.2650000000000001,-0.375,0.015020000000000033,0.0042800000000000615,0.0007399999999999629,-0.07999999999999996,-0.040000000000000036,0.54,0.006599999999999939,0.062019999999999964,0.017340000000000133,1742256939.396487
0.14500000000000002,0.2849999999999999,-0.405,0.005980000000000096,0.0041599999999999415,0.006460000000000132,0.014999999999999902,-0.030000000000000027,0.44999999999999996,-0.03808,0.03308,0.09498000000000006,1742256939.929546
0.21500000000000008,0.20500000000000007,-0.395,-0.008919999999999928,-0.00878000000000001,-0.0023200000000000998,0.1200000000000001,-0.08499999999999996,0.45500000000000007,-0.010000000000000009,0.007319999999999993,0.009879999999999889,1742257049.3066912
0.21500000000000008,0.19500000000000006,-0.4,-0.016960000000000086,-0.02076,0.005619999999999958,0.125,-0.07999999999999996,0.4650000000000001,0.01317999999999997,0.0030599999999998406,0.006460000000000132,1742257049.4206002
0.25,0.17999999999999994,-0.4099999999999999,-0.018440000000000012,0.0035399999999998766,-0.017220000000000013,0.1299999999999999,-0.11499999999999999,0.4750000000000001,0.006220000000000114,-0.012460000000000027,0.022460000000000147,1742257049.533668
0.2549999999999999,0.17999999999999994,-0.385,0.01195999999999997,0.005980000000000096,-0.02391999999999994,0.125,-0.06000000000000005,0.4950000000000001,-0.03370000000000006,-0.017820000000000058,0.01110000000000011,1742257049.647805
0.21500000000000008,0.18999999999999995,-0.395,0.006839999999999957,-0.010379999999999945,-0.006099999999999994,0.1100000000000001,-0.08499999999999996,0.44500000000000006,-0.009519999999999973,-0.0012199999999999989,0.008920000000000039,1742257049.764277
0.2450000000000001,0.17999999999999994,-0.4,-0.02855999999999992,-0.001960000000000073,-0.0034199999999999786,0.1100000000000001,-0.05500000000000005,0.49,-0.010000000000000009,-0.00660000000000005,0.0014600000000000168,1742257049.875795
0.24,0.14500000000000002,-0.395,-0.03979999999999995,-0.013799999999999923,0.02391999999999994,0.1100000000000001,-0.07000000000000006,0.48,-0.021480000000000055,-0.026980000000000004,-0.013419999999999987,1742257049.98999
0.24,0.17500000000000004,-0.405,-0.02855999999999992,-0.016840000000000077,0.016839999999999966,0.09499999999999997,-0.06499999999999995,0.47,0.0025599999999998957,-0.01636000000000004,-0.014039999999999941,1742257050.104494
0.25,0.14000000000000012,-0.4,-0.00660000000000005,-0.0048799999999999955,-0.0041599999999999415,0.10000000000000009,-0.05500000000000005,0.4650000000000001,0.013800000000000034,0.007200000000000095,-0.0015800000000000258,1742257050.2178829
0.25,0.14500000000000002,-0.4099999999999999,-0.013679999999999914,0.0041599999999999415,-0.0023200000000000998,0.10000000000000009,-0.07999999999999996,0.48,0.006599999999999939,0.013800000000000034,0.0026800000000000157,1742257050.331816
0.24,0.1299999999999999,-0.4099999999999999,-0.02403999999999995,0.012460000000000138,-0.01208000000000009,0.09499999999999997,-0.07000000000000006,0.49,0.01305999999999985,0.00035999999999991594,0.006099999999999994,1742257050.445861
0.2549999999999999,0.10000000000000009,-0.42500000000000004,0.0015800000000001369,-0.011960000000000082,0.006599999999999939,0.10499999999999998,-0.05500000000000005,0.4750000000000001,0.04527999999999999,0.0317400000000001,-0.006340000000000012,1742257050.564108
0.26,0.14500000000000002,-0.41500000000000004,-0.01415999999999995,0.00537999999999994,0.010000000000000009,0.125,-0.125,0.48,-0.0012199999999999989,-0.016840000000000077,-0.008059999999999956,1742257050.6740742
0.25,0.1299999999999999,-0.4099999999999999,-0.006720000000000059,-0.006960000000000077,-0.011099999999999999,0.1100000000000001,-0.08499999999999996,0.47,-0.0030599999999999516,-0.0045199999999999685,0.00782000000000016,1742257050.788109
0.25,0.1200000000000001,-0.41999999999999993,-0.006720000000000059,0.0034199999999999786,0.0019599999999999618,0.10499999999999998,-0.10499999999999998,0.4750000000000001,0.0041599999999999415,-0.0025599999999998957,-0.0043999999999999595,1742257050.90215
0.24,0.135,-0.41999999999999993,0.0041599999999999415,-0.0012199999999999989,-0.01537999999999995,0.10000000000000009,-0.10999999999999999,0.47,-0.006960000000000077,-0.008419999999999983,0.016000000000000014,1742257051.019406
0.25,0.1200000000000001,-0.4,0.014899999999999913,-0.005859999999999976,-0.020499999999999963,0.1100000000000001,-0.07999999999999996,0.45999999999999996,0.004999999999999893,0.006720000000000059,0.019039999999999946,1742257051.1299672
0.2450000000000001,0.1200000000000001,-0.4099999999999999,0.012700000000000156,0.011719999999999953,-0.015619999999999967,0.1100000000000001,-0.08999999999999997,0.4650000000000001,0.023320000000000007,-0.0041599999999999415,0.01746000000000003,1742257051.245271
0.2549999999999999,0.1200000000000001,-0.41500000000000004,-0.008299999999999974,0.021600000000000064,-0.014399999999999968,0.10000000000000009,-0.07999999999999996,0.4849999999999999,0.03381999999999996,-0.005739999999999967,0.01195999999999997,1742257051.35804
0.25,0.10000000000000009,-0.43999999999999995,0.038939999999999975,-0.010140000000000038,-0.005120000000000013,0.08000000000000007,-0.08499999999999996,0.4750000000000001,0.04051999999999989,0.03709999999999991,0.0027999999999999137,1742257051.471853
0.2450000000000001,0.11499999999999999,-0.395,0.011360000000000037,0.009160000000000057,0.023800000000000043,0.135,-0.13,0.45500000000000007,0.015020000000000033,-0.0012199999999999989,-0.026619999999999977,1742257051.586209
0.21999999999999997,0.14500000000000002,-0.4099999999999999,-0.03064,0.03503999999999996,0.0354000000000001,0.11499999999999999,-0.17000000000000004,0.45500000000000007,0.014899999999999913,-0.046760000000000024,-0.03613999999999995,1742257051.70516
0.21500000000000008,0.15500000000000003,-0.42999999999999994,-0.013919999999999932,0.02391999999999994,0.009879999999999889,0.09000000000000008,-0.16500000000000004,0.45500000000000007,0.008920000000000039,-0.012700000000000045,-0.00770000000000004,1742257051.814096
0.19999999999999996,0.125,-0.43999999999999995,-0.007440000000000002,0.011479999999999935,0.006839999999999957,0.07000000000000006,-0.15500000000000003,0.45999999999999996,0.0026800000000000157,-0.010499999999999954,-0.005739999999999967,1742257051.930609
0.19999999999999996,0.125,-0.44999999999999996,-0.010140000000000038,0.005239999999999911,0.0007399999999999629,0.07000000000000006,-0.15500000000000003,0.4650000000000001,-0.008539999999999992,-0.008419999999999983,0.0008600000000000829,1742257052.0447628
0.19500000000000006,0.11499999999999999,-0.44999999999999996,-0.010619999999999963,-0.0043999999999999595,-0.0041599999999999415,0.06499999999999995,-0.14500000000000002,0.47,-0.010259999999999936,0.0014600000000000168,0.0035399999999998766,1742257052.15601
0.20500000000000007,0.1100000000000001,-0.43999999999999995,-0.0023200000000000998,-0.00988,-0.006460000000000021,0.09000000000000008,-0.14500000000000002,0.45999999999999996,-0.007200000000000095,0.004999999999999893,0.007440000000000113,1742257052.2699971
0.20999999999999996,0.1100000000000001,-0.43999999999999995,-0.0032999999999999696,0.006960000000000077,-0.0047599999999999865,0.07000000000000006,-0.135,0.4750000000000001,0.0035399999999998766,-0.00660000000000005,0.0025599999999998957,1742257052.387178
0.19999999999999996,0.1100000000000001,-0.44500000000000006,0.0045200000000000795,0.0030599999999998406,0.0031799999999999606,0.07000000000000006,-0.15000000000000002,0.4650000000000001,0.006220000000000114,0.006220000000000114,-0.0022000000000000908,1742257052.498053
0.19999999999999996,0.1200000000000001,-0.44500000000000006,0.005740000000000078,-0.002080000000000082,0.0041599999999999415,0.08000000000000007,-0.16000000000000003,0.4650000000000001,0.0045200000000000795,0.01208000000000009,0.00011999999999989797,1742257052.6120582
0.20500000000000007,0.11499999999999999,-0.44500000000000006,-0.0018400000000000638,-0.008059999999999956,0.00048000000000003595,0.08499999999999996,-0.14500000000000002,0.4650000000000001,-0.0045199999999999685,0.010259999999999936,0.0,1742257052.7260811
0.20500000000000007,0.10499999999999998,-0.43500000000000005,-0.0014600000000000168,-0.0037800000000000056,0.0009799999999999809,0.09000000000000008,-0.135,0.45999999999999996,0.0048799999999999955,0.0047600000000000975,-0.0030599999999999516,1742257052.8401
0.20500000000000007,0.1200000000000001,-0.43999999999999995,0.007200000000000095,-0.00036000000000002697,0.0032999999999998586,0.09000000000000008,-0.15500000000000003,0.45999999999999996,0.0029200000000000337,0.0040199999999999125,-0.0010999999999999899,1742257052.95407
0.20500000000000007,0.11499999999999999,-0.43999999999999995,-0.00048000000000003595,-0.0036599999999999966,-0.002080000000000082,0.08499999999999996,-0.15000000000000002,0.4650000000000001,-0.0024400000000001087,0.0048799999999999955,0.0014600000000000168,1742257053.068112
0.20500000000000007,0.1200000000000001,-0.43999999999999995,0.00011999999999989797,-0.005120000000000013,-0.00036000000000002697,0.09499999999999997,-0.15000000000000002,0.45999999999999996,0.00011999999999989797,0.0045200000000000795,0.0027999999999999137,1742257053.183307
0.20500000000000007,0.125,-0.42999999999999994,-0.00024000000000001798,-0.005120000000000013,-0.005859999999999976,0.10000000000000009,-0.14500000000000002,0.45999999999999996,-0.0026799999999999047,0.0026800000000000157,0.004999999999999893,1742257053.296132
0.21500000000000008,0.1100000000000001,-0.43500000000000005,-0.0024400000000001087,-0.005739999999999967,-0.0025599999999998957,0.10000000000000009,-0.13,0.4650000000000001,-0.007080000000000086,0.0047600000000000975,0.0008600000000000829,1742257053.4100852
0.21500000000000008,0.1200000000000001,-0.43500000000000005,0.0036599999999999966,-0.0017000000000000348,0.0017000000000000348,0.10000000000000009,-0.14,0.45999999999999996,-0.0018400000000000638,0.0040199999999999125,-0.00024000000000001798,1742257053.52481
0.21500000000000008,0.1200000000000001,-0.43500000000000005,-0.002080000000000082,-0.001960000000000073,0.0023200000000000998,0.10000000000000009,-0.14,0.4650000000000001,-0.0008599999999999719,0.0047600000000000975,-0.0014600000000000168,1742257053.6382551
0.21999999999999997,0.1200000000000001,-0.43500000000000005,-0.0034199999999999786,-0.0027999999999999137,0.0006200000000000649,0.10499999999999998,-0.135,0.4650000000000001,-0.0023200000000000998,0.0017000000000000348,0.00048000000000003595,1742257053.7522078
0.21999999999999997,0.11499999999999999,-0.42999999999999994,-0.0029199999999999227,-0.0013400000000000079,-0.0008599999999999719,0.10499999999999998,-0.14,0.45999999999999996,-0.0029199999999999227,-0.0015800000000000258,0.0019599999999999618,1742257053.866564
0.21500000000000008,0.125,-0.43500000000000005,-0.0032999999999999696,-0.00024000000000001798,-0.008419999999999983,0.10000000000000009,-0.15000000000000002,0.4650000000000001,-0.0012199999999999989,-0.006340000000000012,0.007079999999999975,1742257053.9809868
0.21500000000000008,0.1100000000000001,-0.43999999999999995,0.0,-0.005979999999999985,-0.01990000000000003,0.10000000000000009,-0.135,0.4650000000000001,-0.006460000000000021,-0.00048000000000003595,0.018440000000000012,1742257054.09443
0.2250000000000001,0.09499999999999997,-0.42500000000000004,-0.006460000000000021,-0.006099999999999994,-0.011480000000000046,0.10499999999999998,-0.12,0.4650000000000001,-0.00988,-0.0025599999999998957,0.007319999999999993,1742257054.208321
0.22999999999999998,0.09499999999999997,-0.43500000000000005,-0.006840000000000068,-0.0014600000000000168,-0.0039000000000000146,0.10000000000000009,-0.12,0.47,-0.007440000000000002,-0.0048799999999999955,0.00035999999999991594,1742257054.3248892
0.2250000000000001,0.09499999999999997,-0.43500000000000005,-0.005859999999999976,-0.0015800000000000258,-0.0018400000000000638,0.10000000000000009,-0.12,0.47,-0.0030599999999999516,-0.0010999999999999899,0.0006200000000000649,1742257054.4364429
0.2250000000000001,0.10000000000000009,-0.43500000000000005,-0.0023200000000000998,-0.00024000000000001798,-0.0036599999999999966,0.10000000000000009,-0.12,0.47,-0.0007399999999999629,0.0015800000000001369,0.0035399999999998766,1742257054.550325
0.22999999999999998,0.09499999999999997,-0.43500000000000005,-0.0012199999999999989,-0.0024400000000001087,-0.0037800000000000056,0.10000000000000009,-0.12,0.4750000000000001,-0.0009799999999999809,0.0012199999999999989,0.0040199999999999125,1742257054.664741
0.22999999999999998,0.10000000000000009,-0.42999999999999994,0.0040199999999999125,-0.0042799999999999505,-0.001960000000000073,0.1100000000000001,-0.12,0.45999999999999996,0.0018400000000000638,0.00550000000000006,0.009039999999999937,1742257054.778244
0.22999999999999998,0.09000000000000008,-0.42999999999999994,-0.0017000000000000348,0.0015800000000001369,-0.008059999999999956,0.10000000000000009,-0.11499999999999999,0.4750000000000001,0.0026800000000000157,0.0017000000000000348,0.010140000000000038,1742257054.8921652
0.22999999999999998,0.08499999999999996,-0.42999999999999994,0.00024000000000001798,0.00048000000000003595,-0.009759999999999991,0.10000000000000009,-0.10999999999999999,0.4650000000000001,-0.00048000000000003595,-0.001960000000000073,0.00537999999999994,1742257055.006368
0.23499999999999988,0.09000000000000008,-0.42999999999999994,0.0017000000000000348,0.001100000000000101,0.0035399999999998766,0.1100000000000001,-0.125,0.47,0.0031799999999999606,0.0024399999999999977,-0.0030599999999999516,1742257055.122784
0.22999999999999998,0.10499999999999998,-0.43500000000000005,0.0019599999999999618,-0.0032999999999999696,0.00024000000000001798,0.10499999999999998,-0.13,0.4650000000000001,0.0013400000000001189,0.0037799999999998946,0.0040199999999999125,1742257055.2343
0.22999999999999998,0.09499999999999997,-0.42500000000000004,0.0041599999999999415,-0.006720000000000059,-0.0025599999999998957,0.11499999999999999,-0.11499999999999999,0.45999999999999996,-0.0006199999999999539,0.005980000000000096,0.0048799999999999955,1742257055.348417
0.22999999999999998,0.09000000000000008,-0.42999999999999994,-0.0045199999999999685,0.007440000000000113,-0.0006199999999999539,0.10499999999999998,-0.13,0.47,-0.008539999999999992,-0.009759999999999991,-0.0025599999999998957,1742257055.4660978
0.23499999999999988,0.09000000000000008,-0.43999999999999995,-0.007200000000000095,-0.0024400000000001087,-0.010259999999999936,0.10499999999999998,-0.11499999999999999,0.4750000000000001,-0.010259999999999936,-0.0022000000000000908,0.007200000000000095,1742257055.576441
0.25,0.08499999999999996,-0.42999999999999994,-0.0047599999999999865,-0.021600000000000064,-0.0008599999999999719,0.125,-0.09499999999999997,0.4650000000000001,-0.012580000000000036,0.02198000000000011,0.00865999999999989,1742257055.690442
0.24,0.09000000000000008,-0.41999999999999993,-0.0007399999999999629,-0.008419999999999983,-0.005739999999999967,0.1200000000000001,-0.09999999999999998,0.47,-0.0050000000000000044,0.00011999999999989797,0.006220000000000114,1742257055.8048298
0.2450000000000001,0.08499999999999996,-0.41999999999999993,0.0019599999999999618,-0.0047599999999999865,-0.0045199999999999685,0.1200000000000001,-0.10999999999999999,0.4650000000000001,-0.01978000000000002,0.008920000000000039,0.0006200000000000649,1742257055.918462
0.2450000000000001,0.08499999999999996,-0.42500000000000004,-0.0040200000000000236,-0.0045199999999999685,-0.0043999999999999595,0.125,-0.08999999999999997,0.47,-0.01305999999999996,0.0009799999999999809,0.006340000000000012,1742257056.034526
0.2549999999999999,0.08000000000000007,-0.41999999999999993,0.016119999999999912,0.0031799999999999606,-0.016720000000000068,0.125,-0.08499999999999996,0.47,0.0015800000000001369,0.006220000000000114,0.005239999999999911,1742257056.1462662
0.25,0.08000000000000007,-0.41999999999999993,0.0024399999999999977,-0.0006199999999999539,0.0025599999999998957,0.1299999999999999,-0.08499999999999996,0.47,-0.00012000000000000899,0.005740000000000078,-0.0024400000000001087,1742257056.259496
0.25,0.08499999999999996,-0.42500000000000004,0.0013400000000001189,-0.0037800000000000056,0.0039000000000000146,0.135,-0.08499999999999996,0.47,-0.0036599999999999966,0.0015800000000001369,-0.0036599999999999966,1742257056.373516
0.26,0.08499999999999996,-0.4099999999999999,-0.0032999999999999696,-0.0017000000000000348,0.0015800000000001369,0.135,-0.07000000000000006,0.47,-0.025519999999999987,-0.006720000000000059,-0.009639999999999982,1742257056.48764
0.2549999999999999,0.07499999999999996,-0.42500000000000004,-0.005240000000000022,0.0036599999999999966,0.005859999999999976,0.11499999999999999,-0.07499999999999996,0.4750000000000001,-0.01097999999999999,-0.0029199999999999227,-0.01660000000000006,1742257056.604994
0.25,0.09499999999999997,-0.41999999999999993,0.002080000000000082,-0.0025599999999998957,-0.0017000000000000348,0.1200000000000001,-0.07000000000000006,0.48,-0.00878000000000001,0.0035399999999998766,-0.0031799999999999606,1742257056.715613
0.2549999999999999,0.08000000000000007,-0.41999999999999993,-0.0027999999999999137,-0.0032999999999999696,0.0012199999999999989,0.1200000000000001,-0.06499999999999995,0.4750000000000001,-0.0043999999999999595,0.00048000000000003595,-0.00660000000000005,1742257056.82953
0.2549999999999999,0.08499999999999996,-0.42500000000000004,0.0013400000000001189,-0.008919999999999928,0.0006200000000000649,0.1200000000000001,-0.07000000000000006,0.48,-0.0031799999999999606,0.0012199999999999989,-0.00036000000000002697,1742257056.944681
0.25,0.06499999999999995,-0.4,-0.01427999999999996,0.0023200000000000998,-0.00024000000000001798,0.1200000000000001,-0.050000000000000044,0.4750000000000001,0.0031799999999999606,-0.0050000000000000044,-0.00048000000000003595,1742257057.057559
0.25,0.08000000000000007,-0.405,0.01317999999999997,-0.018440000000000012,-0.0037800000000000056,0.125,-0.07499999999999996,0.47,0.010000000000000009,-0.007080000000000086,0.0048799999999999955,1742257057.171529
