L-AccX,L-AccY,L-AccZ,L-GyrX,L-GyrY,L-GyrZ,R-AccX,R-AccY,R-AccZ,R-GyrX,R-GyrY,R-GyrZ,timestamp
0.49,-0.010000000000000009,0.1499999999999999,0.0034199999999999786,-0.03295999999999999,-0.016240000000000032,0.3999999999999999,-0.24,0.10000000000000009,0.012580000000000036,-0.0006199999999999539,0.02320000000000011,1742248464.031924
0.4650000000000001,-0.040000000000000036,0.14000000000000012,0.007940000000000058,-0.01746000000000003,-0.008419999999999983,0.41999999999999993,-0.21999999999999997,0.1200000000000001,-0.0036599999999999966,0.010140000000000038,0.006460000000000132,1742248464.1459332
0.47,-0.040000000000000036,0.10000000000000009,-0.006099999999999994,0.012580000000000036,0.008419999999999872,0.395,-0.21499999999999997,0.1499999999999999,0.007319999999999993,0.019039999999999946,-0.008299999999999974,1742248464.259943
0.4750000000000001,-0.040000000000000036,0.14500000000000002,0.0034199999999999786,-0.014900000000000024,0.019039999999999946,0.43500000000000005,-0.22499999999999998,0.11499999999999999,0.004999999999999893,0.005239999999999911,-0.020019999999999927,1742248464.3739362
0.4750000000000001,-0.015000000000000013,0.15999999999999992,-0.0040200000000000236,-0.011480000000000046,0.010000000000000009,0.42999999999999994,-0.24,0.1100000000000001,0.0012199999999999989,0.0037799999999998946,-0.008179999999999965,1742248464.487963
0.48,0.0,0.15500000000000003,-0.0013400000000000079,0.0008600000000000829,-0.010499999999999954,0.41999999999999993,-0.22999999999999998,0.1100000000000001,0.0042800000000000615,0.0027999999999999137,0.007440000000000113,1742248464.6018329
0.47,-0.010000000000000009,0.1499999999999999,-0.005979999999999985,0.002080000000000082,-0.008059999999999956,0.41999999999999993,-0.22999999999999998,0.11499999999999999,0.0012199999999999989,-0.0042799999999999505,-0.0014600000000000168,1742248464.718663
0.47,-0.0050000000000000044,0.15500000000000003,-0.0037800000000000056,0.009039999999999937,-0.0026799999999999047,0.42500000000000004,-0.245,0.1100000000000001,-0.0023200000000000998,-0.012580000000000036,-0.00024000000000001798,1742248464.830176
0.48,-0.010000000000000009,0.14000000000000012,-0.0018400000000000638,0.018440000000000012,-0.01097999999999999,0.41500000000000004,-0.24,0.125,-0.0036599999999999966,-0.006460000000000021,0.008059999999999956,1742248464.9439418
0.48,-0.030000000000000027,0.135,-0.0022000000000000908,0.005859999999999976,-0.010739999999999972,0.42500000000000004,-0.22499999999999998,0.125,-0.0024400000000001087,0.0006200000000000649,0.009160000000000057,1742248465.0613482
0.4750000000000001,-0.03500000000000003,0.14000000000000012,-0.0013400000000000079,-0.0014600000000000168,-0.00036000000000002697,0.42500000000000004,-0.22499999999999998,0.1200000000000001,0.00011999999999989797,0.0026800000000000157,-0.002080000000000082,1742248465.171803
0.48,-0.025000000000000022,0.14000000000000012,0.00011999999999989797,-0.0027999999999999137,0.0009799999999999809,0.41999999999999993,-0.235,0.11499999999999999,0.00048000000000003595,-0.0007399999999999629,-0.0026799999999999047,1742248465.2859268
0.48,-0.020000000000000018,0.14000000000000012,-0.0009799999999999809,0.0025599999999998957,-0.0026799999999999047,0.42500000000000004,-0.235,0.1200000000000001,0.0,0.0006200000000000649,0.0035399999999998766,1742248465.3997388
0.48,-0.025000000000000022,0.135,0.0009799999999999809,0.0021999999999999797,-0.0026799999999999047,0.42500000000000004,-0.235,0.11499999999999999,0.0023200000000000998,0.00011999999999989797,0.001100000000000101,1742248465.512718
0.48,-0.030000000000000027,0.135,0.0007399999999999629,0.0035399999999998766,-0.0015800000000000258,0.41999999999999993,-0.22999999999999998,0.1200000000000001,0.00048000000000003595,0.0015800000000001369,0.0012199999999999989,1742248465.625835
0.48,-0.030000000000000027,0.14000000000000012,-0.0010999999999999899,0.004999999999999893,-0.0034199999999999786,0.42500000000000004,-0.22999999999999998,0.11499999999999999,-0.0040200000000000236,-0.0013400000000000079,0.0017000000000000348,1742248465.741847
0.4750000000000001,-0.03500000000000003,0.1299999999999999,-0.002080000000000082,0.0012199999999999989,-0.00048000000000003595,0.41999999999999993,-0.22499999999999998,0.11499999999999999,-0.0018400000000000638,0.0024399999999999977,0.0009799999999999809,1742248465.852849
0.48,-0.03500000000000003,0.135,-0.0040200000000000236,-0.00012000000000000899,0.0012199999999999989,0.42500000000000004,-0.22499999999999998,0.11499999999999999,0.001100000000000101,0.0030599999999998406,-0.0010999999999999899,1742248465.966992
0.48,-0.030000000000000027,0.135,-0.001960000000000073,-0.0007399999999999629,0.0012199999999999989,0.42500000000000004,-0.22999999999999998,0.11499999999999999,-0.00036000000000002697,0.0013400000000001189,-0.0017000000000000348,1742248466.0836532
0.48,-0.025000000000000022,0.135,-0.0013400000000000079,-0.0017000000000000348,-0.0008599999999999719,0.42500000000000004,-0.22999999999999998,0.11499999999999999,0.0007399999999999629,0.0021999999999999797,0.0024399999999999977,1742248466.194753
0.4750000000000001,-0.03500000000000003,0.14000000000000012,-0.0017000000000000348,0.00011999999999989797,-0.0029199999999999227,0.42500000000000004,-0.21999999999999997,0.1100000000000001,0.0017000000000000348,0.0023200000000000998,-0.00012000000000000899,1742248466.308877
0.48,-0.025000000000000022,0.135,-0.0025599999999998957,0.0026800000000000157,0.0014600000000000168,0.42500000000000004,-0.22999999999999998,0.11499999999999999,0.00048000000000003595,-0.0008599999999999719,-0.0008599999999999719,1742248466.423158
0.48,-0.030000000000000027,0.135,0.0009799999999999809,0.001100000000000101,-0.0025599999999998957,0.42500000000000004,-0.22499999999999998,0.11499999999999999,0.00035999999999991594,0.0007399999999999629,0.0019599999999999618,1742248466.538004
0.48,-0.030000000000000027,0.1299999999999999,-0.0006199999999999539,0.0012199999999999989,-0.0012199999999999989,0.41999999999999993,-0.22499999999999998,0.11499999999999999,0.001100000000000101,0.0007399999999999629,0.00035999999999991594,1742248466.6496189
0.4750000000000001,-0.030000000000000027,0.1299999999999999,0.00048000000000003595,0.001100000000000101,-0.0006199999999999539,0.42500000000000004,-0.22499999999999998,0.1100000000000001,0.00048000000000003595,-0.00024000000000001798,-0.0008599999999999719,1742248466.7629418
0.48,-0.030000000000000027,0.1299999999999999,-0.0008599999999999719,0.0026800000000000157,0.0009799999999999809,0.42999999999999994,-0.22499999999999998,0.11499999999999999,0.00011999999999989797,0.00011999999999989797,-0.0029199999999999227,1742248466.879225
0.4849999999999999,-0.030000000000000027,0.135,-0.0018400000000000638,0.0,0.0029200000000000337,0.42999999999999994,-0.22999999999999998,0.1100000000000001,-0.0009799999999999809,0.001100000000000101,-0.001960000000000073,1742248466.990869
0.48,-0.025000000000000022,0.1299999999999999,0.0018400000000000638,-0.00012000000000000899,-0.0023200000000000998,0.42500000000000004,-0.22999999999999998,0.1100000000000001,0.0021999999999999797,0.0012199999999999989,0.0013400000000001189,1742248467.106578
0.48,-0.03500000000000003,0.1299999999999999,0.0009799999999999809,-0.00012000000000000899,0.00011999999999989797,0.42999999999999994,-0.22499999999999998,0.1100000000000001,0.00048000000000003595,0.0012199999999999989,-0.001960000000000073,1742248467.2185678
0.48,-0.025000000000000022,0.1299999999999999,-0.0012199999999999989,-0.00012000000000000899,0.00011999999999989797,0.42500000000000004,-0.22999999999999998,0.1100000000000001,-0.0009799999999999809,0.0013400000000001189,-0.0013400000000000079,1742248467.331886
0.48,-0.030000000000000027,0.135,-0.0008599999999999719,0.0006200000000000649,-0.00024000000000001798,0.42999999999999994,-0.22999999999999998,0.1100000000000001,-0.0006199999999999539,0.0,-0.00024000000000001798,1742248467.4458618
0.48,-0.025000000000000022,0.1299999999999999,0.0,0.0,0.0013400000000001189,0.42500000000000004,-0.22999999999999998,0.1100000000000001,-0.0007399999999999629,-0.00048000000000003595,-0.0014600000000000168,1742248467.5620742
0.48,-0.030000000000000027,0.1299999999999999,-0.001960000000000073,0.0,-0.00012000000000000899,0.42999999999999994,-0.22499999999999998,0.1100000000000001,-0.0006199999999999539,0.0009799999999999809,-0.0015800000000000258,1742248467.680015
0.4750000000000001,-0.025000000000000022,0.135,-0.0013400000000000079,0.00011999999999989797,0.0013400000000001189,0.42500000000000004,-0.22999999999999998,0.10499999999999998,-0.0008599999999999719,-0.00012000000000000899,-0.0024400000000001087,1742248467.787946
0.4849999999999999,-0.025000000000000022,0.135,0.0,0.0007399999999999629,0.0012199999999999989,0.42500000000000004,-0.22999999999999998,0.10499999999999998,0.0006200000000000649,0.0006200000000000649,-0.0018400000000000638,1742248467.901816
0.4849999999999999,-0.025000000000000022,0.135,0.00035999999999991594,0.00035999999999991594,-0.0027999999999999137,0.42500000000000004,-0.22999999999999998,0.1100000000000001,0.00035999999999991594,0.0006200000000000649,0.0024399999999999977,1742248468.015668
0.48,-0.025000000000000022,0.1299999999999999,-0.0008599999999999719,0.0014600000000000168,-0.0007399999999999629,0.42500000000000004,-0.22499999999999998,0.10499999999999998,0.0017000000000000348,-0.00024000000000001798,0.0,1742248468.128724
0.48,-0.025000000000000022,0.1299999999999999,0.0012199999999999989,0.0012199999999999989,0.00035999999999991594,0.42500000000000004,-0.22999999999999998,0.1100000000000001,0.0006200000000000649,-0.0014600000000000168,-0.0008599999999999719,1742248468.2428632
0.48,-0.025000000000000022,0.1299999999999999,-0.0013400000000000079,0.0013400000000001189,-0.00036000000000002697,0.42500000000000004,-0.22499999999999998,0.1100000000000001,0.0015800000000001369,0.0006200000000000649,-0.0022000000000000908,1742248468.35969
0.4849999999999999,-0.025000000000000022,0.1299999999999999,-0.002080000000000082,0.0032999999999998586,0.0018400000000000638,0.42500000000000004,-0.22999999999999998,0.1100000000000001,0.0007399999999999629,-0.00036000000000002697,-0.00024000000000001798,1742248468.47086
0.48,-0.025000000000000022,0.125,-0.0030599999999999516,0.006720000000000059,-0.0017000000000000348,0.42500000000000004,-0.22999999999999998,0.1100000000000001,0.0009799999999999809,-0.0010999999999999899,0.0007399999999999629,1742248468.5847082
0.4849999999999999,-0.025000000000000022,0.125,-0.0015800000000000258,0.0027999999999999137,-0.00024000000000001798,0.42500000000000004,-0.22999999999999998,0.1100000000000001,0.0012199999999999989,0.00048000000000003595,-0.0007399999999999629,1742248468.698852
0.4849999999999999,-0.025000000000000022,0.125,0.00035999999999991594,-0.0048799999999999955,0.0026800000000000157,0.42999999999999994,-0.22999999999999998,0.1100000000000001,0.0026800000000000157,0.00550000000000006,0.00048000000000003595,1742248468.812686
0.48,-0.020000000000000018,0.1299999999999999,0.00048000000000003595,0.0007399999999999629,-0.00012000000000000899,0.42500000000000004,-0.235,0.10499999999999998,-0.00048000000000003595,-0.00048000000000003595,0.0007399999999999629,1742248468.926877
0.4849999999999999,-0.025000000000000022,0.125,0.0007399999999999629,0.0009799999999999809,-0.0040200000000000236,0.42500000000000004,-0.22499999999999998,0.1100000000000001,-0.0010999999999999899,0.0009799999999999809,0.0018400000000000638,1742248469.041363
0.48,-0.030000000000000027,0.1299999999999999,0.0009799999999999809,-0.0012199999999999989,0.0,0.42999999999999994,-0.22999999999999998,0.10499999999999998,-0.00024000000000001798,-0.00036000000000002697,-0.0006199999999999539,1742248469.1550431
0.48,-0.025000000000000022,0.125,0.0014600000000000168,0.002080000000000082,0.0006200000000000649,0.42500000000000004,-0.22999999999999998,0.1100000000000001,-0.0013400000000000079,-0.0010999999999999899,-0.0007399999999999629,1742248469.26896
0.4849999999999999,-0.020000000000000018,0.125,-0.0007399999999999629,-0.0006199999999999539,-0.00048000000000003595,0.42500000000000004,-0.22999999999999998,0.10499999999999998,0.0009799999999999809,0.0014600000000000168,-0.00012000000000000899,1742248469.382648
0.48,-0.025000000000000022,0.1299999999999999,0.0012199999999999989,0.0015800000000001369,-0.00036000000000002697,0.42500000000000004,-0.22999999999999998,0.1100000000000001,-0.00036000000000002697,-0.0017000000000000348,-0.00012000000000000899,1742248469.499613
0.4849999999999999,-0.030000000000000027,0.125,0.00011999999999989797,0.0006200000000000649,0.0,0.42500000000000004,-0.22999999999999998,0.1100000000000001,0.00011999999999989797,0.00048000000000003595,-0.0014600000000000168,1742248469.609792
0.4849999999999999,-0.025000000000000022,0.125,-0.0006199999999999539,0.00024000000000001798,0.0008600000000000829,0.42500000000000004,-0.22999999999999998,0.10499999999999998,-0.00036000000000002697,0.0008600000000000829,-0.0014600000000000168,1742248469.7237408
0.48,-0.025000000000000022,0.125,-0.0022000000000000908,0.0039000000000000146,0.00048000000000003595,0.42500000000000004,-0.22999999999999998,0.10499999999999998,-0.0006199999999999539,-0.0015800000000000258,-0.0018400000000000638,1742248469.838571
0.4849999999999999,-0.020000000000000018,0.125,0.0021999999999999797,0.0006200000000000649,-0.0025599999999998957,0.42500000000000004,-0.22999999999999998,0.10499999999999998,0.0012199999999999989,-0.0008599999999999719,0.0014600000000000168,1742248469.951634
0.48,-0.025000000000000022,0.125,0.0008600000000000829,0.001100000000000101,-0.0013400000000000079,0.42999999999999994,-0.22499999999999998,0.10499999999999998,0.0007399999999999629,0.00011999999999989797,0.0006200000000000649,1742248470.065665
0.4849999999999999,-0.025000000000000022,0.1200000000000001,0.00048000000000003595,0.0023200000000000998,0.0012199999999999989,0.42500000000000004,-0.22999999999999998,0.1100000000000001,-0.0007399999999999629,-0.0022000000000000908,-0.002080000000000082,1742248470.179826
0.4849999999999999,-0.025000000000000022,0.1200000000000001,-0.0014600000000000168,-0.00036000000000002697,0.00011999999999989797,0.42999999999999994,-0.22999999999999998,0.10499999999999998,-0.0010999999999999899,0.0006200000000000649,-0.00048000000000003595,1742248470.293768
0.4849999999999999,-0.025000000000000022,0.125,-0.00012000000000000899,0.00011999999999989797,-0.0010999999999999899,0.42500000000000004,-0.22999999999999998,0.10499999999999998,-0.00048000000000003595,0.00048000000000003595,0.0006200000000000649,1742248470.407664
0.48,-0.025000000000000022,0.125,0.00011999999999989797,0.0006200000000000649,-0.0014600000000000168,0.42500000000000004,-0.22499999999999998,0.1100000000000001,-0.0006199999999999539,-0.0013400000000000079,0.0009799999999999809,1742248470.521777
0.48,-0.025000000000000022,0.125,-0.0012199999999999989,0.0009799999999999809,0.0017000000000000348,0.42500000000000004,-0.22999999999999998,0.10499999999999998,0.0012199999999999989,-0.0012199999999999989,-0.002080000000000082,1742248470.639262
0.48,-0.020000000000000018,0.125,0.00048000000000003595,-0.00048000000000003595,0.0006200000000000649,0.42500000000000004,-0.235,0.1100000000000001,0.0007399999999999629,-0.0013400000000000079,-0.00036000000000002697,1742248470.7498062
0.48,-0.030000000000000027,0.125,0.00035999999999991594,0.0015800000000001369,-0.0014600000000000168,0.42999999999999994,-0.22999999999999998,0.10499999999999998,-0.0009799999999999809,-0.0026799999999999047,-0.0007399999999999629,1742248470.863847
0.4849999999999999,-0.020000000000000018,0.1200000000000001,0.0006200000000000649,0.0018400000000000638,0.0018400000000000638,0.42500000000000004,-0.235,0.1100000000000001,-0.00024000000000001798,-0.0025599999999998957,-0.00036000000000002697,1742248470.979077
0.4849999999999999,-0.025000000000000022,0.1200000000000001,0.0014600000000000168,-0.0009799999999999809,-0.0015800000000000258,0.42500000000000004,-0.22999999999999998,0.1100000000000001,0.00035999999999991594,0.00035999999999991594,0.0015800000000001369,1742248471.091604
0.48,-0.030000000000000027,0.1200000000000001,0.00024000000000001798,0.0024399999999999977,-0.0010999999999999899,0.42500000000000004,-0.22499999999999998,0.1100000000000001,-0.0008599999999999719,-0.0017000000000000348,-0.0008599999999999719,1742248471.204831
0.4849999999999999,-0.025000000000000022,0.11499999999999999,-0.0007399999999999629,0.0015800000000001369,-0.0012199999999999989,0.41999999999999993,-0.22999999999999998,0.11499999999999999,0.0,-0.00024000000000001798,-0.0012199999999999989,1742248471.319405
0.49,-0.0050000000000000044,0.11499999999999999,-0.0014600000000000168,0.0042800000000000615,-0.0017000000000000348,0.41999999999999993,-0.245,0.11499999999999999,0.00782000000000016,-0.0024400000000001087,0.008179999999999854,1742248471.432648
0.48,-0.050000000000000044,0.125,0.012320000000000109,-0.00012000000000000899,-0.0045199999999999685,0.43500000000000005,-0.21499999999999997,0.1100000000000001,0.009519999999999973,-0.0040200000000000236,0.007560000000000011,1742248471.5465448
0.48,-0.040000000000000036,0.11499999999999999,0.0030599999999998406,0.0045200000000000795,0.001100000000000101,0.42500000000000004,-0.21999999999999997,0.11499999999999999,-0.00024000000000001798,-0.001960000000000073,-0.0012199999999999989,1742248471.660776
0.49,-0.020000000000000018,0.1100000000000001,-0.0029199999999999227,0.006220000000000114,-0.0032999999999999696,0.42500000000000004,-0.235,0.1100000000000001,-0.00036000000000002697,-0.0013400000000000079,0.0018400000000000638,1742248471.774689
0.49,-0.030000000000000027,0.11499999999999999,-0.0035399999999999876,0.010140000000000038,-0.006960000000000077,0.42999999999999994,-0.22499999999999998,0.11499999999999999,0.0032999999999998586,-0.0022000000000000908,0.005980000000000096,1742248471.888555
0.49,-0.040000000000000036,0.10499999999999998,-0.001960000000000073,0.007319999999999993,-0.006340000000000012,0.42999999999999994,-0.20999999999999996,0.11499999999999999,0.0017000000000000348,0.0013400000000001189,0.0043999999999999595,1742248472.002465
0.48,-0.040000000000000036,0.10499999999999998,0.00035999999999991594,-0.0075599999999999,-0.0042799999999999505,0.42999999999999994,-0.20999999999999996,0.11499999999999999,-0.0018400000000000638,0.0031799999999999606,-0.0025599999999998957,1742248472.119662
0.48,-0.03500000000000003,0.11499999999999999,0.00035999999999991594,-0.010739999999999972,-0.00024000000000001798,0.43500000000000005,-0.21999999999999997,0.1100000000000001,-0.0027999999999999137,0.0032999999999998586,0.00024000000000001798,1742248472.229557
0.4849999999999999,-0.03500000000000003,0.11499999999999999,-0.0010999999999999899,0.0015800000000001369,-0.0009799999999999809,0.43500000000000005,-0.21499999999999997,0.11499999999999999,-0.0026799999999999047,-0.00012000000000000899,-0.00048000000000003595,1742248472.3437178
0.4849999999999999,-0.030000000000000027,0.11499999999999999,-0.0007399999999999629,0.00035999999999991594,0.0014600000000000168,0.43500000000000005,-0.21999999999999997,0.10499999999999998,-0.0008599999999999719,-0.00036000000000002697,0.00011999999999989797,1742248472.459133
0.48,-0.025000000000000022,0.11499999999999999,-0.0006199999999999539,0.006960000000000077,0.0018400000000000638,0.42999999999999994,-0.21999999999999997,0.1100000000000001,0.0009799999999999809,-0.0039000000000000146,0.00035999999999991594,1742248472.571577
0.49,-0.03500000000000003,0.10499999999999998,-0.0010999999999999899,0.00550000000000006,-0.00024000000000001798,0.42999999999999994,-0.21999999999999997,0.11499999999999999,0.0012199999999999989,0.0015800000000001369,0.0015800000000001369,1742248472.685411
0.4849999999999999,-0.03500000000000003,0.1100000000000001,-0.0018400000000000638,-0.00048000000000003595,0.00024000000000001798,0.42999999999999994,-0.21499999999999997,0.1100000000000001,-0.0010999999999999899,0.0021999999999999797,0.0006200000000000649,1742248472.7990038
0.4849999999999999,-0.030000000000000027,0.1100000000000001,-0.0015800000000000258,0.002080000000000082,0.0018400000000000638,0.42999999999999994,-0.21999999999999997,0.1100000000000001,-0.0009799999999999809,-0.0007399999999999629,-0.00024000000000001798,1742248472.911705
0.4849999999999999,-0.030000000000000027,0.10499999999999998,0.0014600000000000168,-0.0022000000000000908,-0.0010999999999999899,0.42999999999999994,-0.21999999999999997,0.1100000000000001,0.0007399999999999629,0.0015800000000001369,0.001100000000000101,1742248473.025381
0.4849999999999999,-0.03500000000000003,0.1100000000000001,0.0017000000000000348,-0.00024000000000001798,-0.0018400000000000638,0.42999999999999994,-0.21499999999999997,0.1100000000000001,0.00024000000000001798,-0.0013400000000000079,-0.00048000000000003595,1742248473.139102
0.4849999999999999,-0.025000000000000022,0.10499999999999998,-0.0009799999999999809,0.004999999999999893,0.00035999999999991594,0.42999999999999994,-0.21999999999999997,0.11499999999999999,-0.0014600000000000168,-0.0032999999999999696,-0.0009799999999999809,1742248473.25272
0.4950000000000001,-0.030000000000000027,0.1100000000000001,0.0012199999999999989,-0.0027999999999999137,-0.001960000000000073,0.43500000000000005,-0.21999999999999997,0.11499999999999999,-0.00048000000000003595,0.0008600000000000829,0.0026800000000000157,1742248473.366557
0.48,-0.030000000000000027,0.10499999999999998,0.0018400000000000638,-0.001960000000000073,-0.0023200000000000998,0.42999999999999994,-0.21499999999999997,0.11499999999999999,-0.00036000000000002697,-0.00048000000000003595,0.001100000000000101,1742248473.480623
0.48,-0.03500000000000003,0.1100000000000001,0.0009799999999999809,-0.00036000000000002697,-0.00012000000000000899,0.42999999999999994,-0.21499999999999997,0.1100000000000001,0.0006200000000000649,-0.0012199999999999989,-0.002080000000000082,1742248473.594625
0.4849999999999999,-0.030000000000000027,0.1100000000000001,-0.00048000000000003595,0.0026800000000000157,0.0036599999999999966,0.42999999999999994,-0.21999999999999997,0.10499999999999998,0.0006200000000000649,-0.0029199999999999227,-0.0039000000000000146,1742248473.70865
0.49,-0.030000000000000027,0.10499999999999998,-0.0007399999999999629,0.0046399999999999775,0.0007399999999999629,0.43500000000000005,-0.22499999999999998,0.1200000000000001,-0.002080000000000082,-0.0013400000000000079,-0.0006199999999999539,1742248473.8226418
0.49,-0.030000000000000027,0.10499999999999998,0.00035999999999991594,-0.0022000000000000908,-0.0027999999999999137,0.43500000000000005,-0.21999999999999997,0.1100000000000001,-0.0009799999999999809,0.0018400000000000638,0.0035399999999998766,1742248473.938117
0.48,-0.030000000000000027,0.10499999999999998,0.0008600000000000829,0.0,-0.0022000000000000908,0.42999999999999994,-0.21499999999999997,0.1100000000000001,0.0013400000000001189,0.00035999999999991594,0.0008600000000000829,1742248474.050389
0.49,-0.03500000000000003,0.10499999999999998,0.0013400000000001189,0.00035999999999991594,-0.00012000000000000899,0.42999999999999994,-0.21499999999999997,0.1200000000000001,0.001100000000000101,0.00048000000000003595,-0.0015800000000000258,1742248474.163543
0.49,-0.030000000000000027,0.10499999999999998,0.00011999999999989797,-0.0012199999999999989,-0.0007399999999999629,0.42999999999999994,-0.21999999999999997,0.11499999999999999,-0.0006199999999999539,0.0015800000000001369,-0.00036000000000002697,1742248474.278774
0.4849999999999999,-0.030000000000000027,0.10499999999999998,-0.0009799999999999809,-0.00012000000000000899,0.00024000000000001798,0.42999999999999994,-0.21499999999999997,0.11499999999999999,0.00035999999999991594,0.0012199999999999989,-0.0023200000000000998,1742248474.3914938
0.4849999999999999,-0.030000000000000027,0.10499999999999998,0.0013400000000001189,-0.00024000000000001798,0.0015800000000001369,0.42999999999999994,-0.21999999999999997,0.1100000000000001,0.0006200000000000649,-0.0008599999999999719,-0.0014600000000000168,1742248474.505623
0.4849999999999999,-0.03500000000000003,0.1100000000000001,-0.002080000000000082,-0.0015800000000000258,0.00011999999999989797,0.42999999999999994,-0.21499999999999997,0.1100000000000001,-0.0026799999999999047,0.00011999999999989797,0.00011999999999989797,1742248474.61938
0.4849999999999999,-0.030000000000000027,0.1100000000000001,0.00011999999999989797,-0.0012199999999999989,0.0031799999999999606,0.42999999999999994,-0.21999999999999997,0.1100000000000001,0.001100000000000101,0.0008600000000000829,-0.0034199999999999786,1742248474.7325802
0.4849999999999999,-0.025000000000000022,0.1100000000000001,0.0023200000000000998,-0.00024000000000001798,0.0,0.42999999999999994,-0.22499999999999998,0.1100000000000001,0.0008600000000000829,-0.00024000000000001798,-0.0013400000000000079,1742248474.84923
0.4849999999999999,-0.03500000000000003,0.10499999999999998,0.0009799999999999809,0.0024399999999999977,-0.0015800000000000258,0.42999999999999994,-0.21999999999999997,0.11499999999999999,-0.00036000000000002697,-0.00024000000000001798,-0.00036000000000002697,1742248474.960611
0.4849999999999999,-0.025000000000000022,0.10499999999999998,0.00011999999999989797,0.0,0.0009799999999999809,0.42500000000000004,-0.21999999999999997,0.1100000000000001,0.0006200000000000649,-0.00024000000000001798,-0.0006199999999999539,1742248475.074566
0.4849999999999999,-0.030000000000000027,0.10499999999999998,0.00035999999999991594,-0.00048000000000003595,0.0006200000000000649,0.42999999999999994,-0.21999999999999997,0.11499999999999999,0.00035999999999991594,-0.0006199999999999539,-0.0017000000000000348,1742248475.188585
0.49,-0.020000000000000018,0.10499999999999998,0.00024000000000001798,-0.0007399999999999629,0.00048000000000003595,0.42999999999999994,-0.22999999999999998,0.11499999999999999,-0.0009799999999999809,0.0008600000000000829,0.0012199999999999989,1742248475.302421
0.4849999999999999,-0.030000000000000027,0.1100000000000001,0.0015800000000001369,-0.002080000000000082,-0.0039000000000000146,0.42999999999999994,-0.21999999999999997,0.1100000000000001,0.001100000000000101,0.0023200000000000998,0.0017000000000000348,1742248475.417932
0.4849999999999999,-0.025000000000000022,0.1100000000000001,0.0006200000000000649,-0.00036000000000002697,-0.0006199999999999539,0.42999999999999994,-0.21999999999999997,0.1100000000000001,-0.00012000000000000899,-0.00024000000000001798,0.0,1742248475.529553
0.4849999999999999,-0.030000000000000027,0.1100000000000001,-0.00024000000000001798,0.0015800000000001369,0.00011999999999989797,0.42999999999999994,-0.21999999999999997,0.1100000000000001,-0.00036000000000002697,-0.00024000000000001798,-0.0010999999999999899,1742248475.643656
0.4849999999999999,-0.030000000000000027,0.1100000000000001,0.0006200000000000649,-0.0007399999999999629,0.00011999999999989797,0.42999999999999994,-0.21999999999999997,0.1100000000000001,0.00048000000000003595,0.0009799999999999809,-0.0006199999999999539,1742248475.758486
0.4849999999999999,-0.030000000000000027,0.1100000000000001,0.00035999999999991594,0.0007399999999999629,0.00035999999999991594,0.42999999999999994,-0.22499999999999998,0.1100000000000001,-0.0015800000000000258,0.00035999999999991594,0.00024000000000001798,1742248475.8714292
0.4849999999999999,-0.030000000000000027,0.1100000000000001,0.00048000000000003595,-0.00048000000000003595,-0.0015800000000000258,0.42999999999999994,-0.21999999999999997,0.1100000000000001,0.0013400000000001189,0.0019599999999999618,-0.00024000000000001798,1742248475.985444
0.4849999999999999,-0.030000000000000027,0.1100000000000001,0.0012199999999999989,0.00011999999999989797,0.00048000000000003595,0.42999999999999994,-0.21999999999999997,0.1100000000000001,0.001100000000000101,-0.0009799999999999809,-0.00024000000000001798,1742248476.099527
0.4849999999999999,-0.025000000000000022,0.10499999999999998,-0.00036000000000002697,0.0013400000000001189,0.0006200000000000649,0.42500000000000004,-0.22499999999999998,0.11499999999999999,-0.00048000000000003595,0.0009799999999999809,-0.0007399999999999629,1742248476.2135391
0.4849999999999999,-0.025000000000000022,0.1100000000000001,-0.00048000000000003595,-0.0018400000000000638,-0.0013400000000000079,0.42999999999999994,-0.21999999999999997,0.10499999999999998,-0.0006199999999999539,0.0013400000000001189,-0.00036000000000002697,1742248476.327566
0.4849999999999999,-0.030000000000000027,0.1100000000000001,0.00048000000000003595,0.00048000000000003595,-0.0006199999999999539,0.42999999999999994,-0.21999999999999997,0.1100000000000001,-0.0008599999999999719,-0.00012000000000000899,0.00011999999999989797,1742248476.441556
0.48,-0.030000000000000027,0.1100000000000001,-0.0015800000000000258,0.0027999999999999137,-0.0008599999999999719,0.42999999999999994,-0.21999999999999997,0.10499999999999998,-0.001960000000000073,-0.0031799999999999606,-0.001960000000000073,1742248476.555653
0.49,-0.03500000000000003,0.10499999999999998,0.00024000000000001798,0.00024000000000001798,0.0009799999999999809,0.42999999999999994,-0.21999999999999997,0.1100000000000001,0.00011999999999989797,0.0013400000000001189,-0.0034199999999999786,1742248476.6694589
0.49,-0.025000000000000022,0.1100000000000001,-0.00012000000000000899,0.0014600000000000168,0.0023200000000000998,0.42999999999999994,-0.22999999999999998,0.1100000000000001,0.0,0.0,-0.0024400000000001087,1742248476.783421
0.4950000000000001,-0.025000000000000022,0.10499999999999998,0.0,0.0039000000000000146,-0.0026799999999999047,0.42999999999999994,-0.22499999999999998,0.11499999999999999,-0.0008599999999999719,0.00035999999999991594,0.0024399999999999977,1742248476.897815
0.4849999999999999,-0.025000000000000022,0.10499999999999998,-0.0010999999999999899,-0.0008599999999999719,-0.0041599999999999415,0.42999999999999994,-0.22499999999999998,0.1100000000000001,-0.0009799999999999809,0.0017000000000000348,0.0021999999999999797,1742248477.0115168
0.4849999999999999,-0.03500000000000003,0.10499999999999998,0.0007399999999999629,0.0006200000000000649,-0.002080000000000082,0.42999999999999994,-0.21999999999999997,0.1100000000000001,-0.0018400000000000638,0.00024000000000001798,0.0019599999999999618,1742248477.1254332
0.4849999999999999,-0.03500000000000003,0.10499999999999998,-0.00012000000000000899,0.00011999999999989797,0.0012199999999999989,0.42999999999999994,-0.21999999999999997,0.1100000000000001,0.0,0.0007399999999999629,-0.0026799999999999047,1742248477.239467
0.49,-0.025000000000000022,0.10499999999999998,-0.001960000000000073,-0.0036599999999999966,0.0035399999999998766,0.42999999999999994,-0.22499999999999998,0.1100000000000001,-0.00036000000000002697,0.0018400000000000638,-0.0014600000000000168,1742248477.353549
0.49,-0.025000000000000022,0.10499999999999998,0.0012199999999999989,0.0007399999999999629,0.00011999999999989797,0.42500000000000004,-0.22499999999999998,0.1100000000000001,0.0,-0.0007399999999999629,-0.0017000000000000348,1742248477.467541
0.49,-0.025000000000000022,0.10000000000000009,-0.0007399999999999629,-0.00024000000000001798,-0.0022000000000000908,0.42999999999999994,-0.22499999999999998,0.1100000000000001,-0.0009799999999999809,0.0006200000000000649,0.0029200000000000337,1742248477.58191
0.4849999999999999,-0.030000000000000027,0.10499999999999998,0.0006200000000000649,0.00011999999999989797,-0.0035399999999999876,0.42999999999999994,-0.21999999999999997,0.1100000000000001,-0.0008599999999999719,0.0012199999999999989,0.0019599999999999618,1742248477.6943302
0.4849999999999999,-0.025000000000000022,0.1100000000000001,0.0,-0.0009799999999999809,-0.0024400000000001087,0.42999999999999994,-0.21999999999999997,0.1100000000000001,0.0012199999999999989,0.002080000000000082,0.0017000000000000348,1742248477.807195
0.49,-0.030000000000000027,0.1100000000000001,0.00035999999999991594,-0.0027999999999999137,-0.001960000000000073,0.43500000000000005,-0.21999999999999997,0.10499999999999998,-0.00048000000000003595,0.0019599999999999618,0.0024399999999999977,1742248477.920437
0.4849999999999999,-0.030000000000000027,0.1100000000000001,0.001100000000000101,-0.0015800000000000258,-0.00036000000000002697,0.42999999999999994,-0.21999999999999997,0.10499999999999998,0.001100000000000101,0.0014600000000000168,-0.00048000000000003595,1742248478.03432
0.4849999999999999,-0.030000000000000027,0.1100000000000001,0.0009799999999999809,-0.00012000000000000899,-0.0018400000000000638,0.43500000000000005,-0.21499999999999997,0.1100000000000001,-0.0006199999999999539,-0.00048000000000003595,0.001100000000000101,1742248478.147487
0.4849999999999999,-0.030000000000000027,0.1100000000000001,-0.00048000000000003595,-0.00036000000000002697,0.0027999999999999137,0.42999999999999994,-0.22499999999999998,0.1100000000000001,0.001100000000000101,0.001100000000000101,-0.0031799999999999606,1742248478.26133
0.4849999999999999,-0.030000000000000027,0.1100000000000001,0.00035999999999991594,-0.0014600000000000168,-0.002080000000000082,0.43500000000000005,-0.21499999999999997,0.1100000000000001,-0.00036000000000002697,0.00048000000000003595,0.0007399999999999629,1742248478.3778582
0.4849999999999999,-0.030000000000000027,0.1100000000000001,0.00035999999999991594,-0.00024000000000001798,0.0007399999999999629,0.42999999999999994,-0.21999999999999997,0.10499999999999998,0.00048000000000003595,-0.00012000000000000899,-0.0014600000000000168,1742248478.4894688
0.4849999999999999,-0.030000000000000027,0.1100000000000001,-0.00024000000000001798,0.0,0.00011999999999989797,0.42999999999999994,-0.21999999999999997,0.10499999999999998,0.00024000000000001798,0.00011999999999989797,-0.0010999999999999899,1742248478.603316
0.49,-0.025000000000000022,0.1100000000000001,-0.0013400000000000079,-0.0010999999999999899,0.00011999999999989797,0.42999999999999994,-0.21999999999999997,0.1100000000000001,-0.0010999999999999899,0.0018400000000000638,0.0014600000000000168,1742248478.718063
0.4849999999999999,-0.025000000000000022,0.1100000000000001,0.0008600000000000829,0.00048000000000003595,0.0,0.42999999999999994,-0.21999999999999997,0.1100000000000001,0.00048000000000003595,0.00011999999999989797,-0.0012199999999999989,1742248478.8313642
0.4849999999999999,-0.025000000000000022,0.11499999999999999,-0.0007399999999999629,-0.0017000000000000348,0.0015800000000001369,0.43500000000000005,-0.21999999999999997,0.10000000000000009,0.001100000000000101,0.001100000000000101,-0.0008599999999999719,1742248478.945319
0.4849999999999999,-0.025000000000000022,0.11499999999999999,0.0015800000000001369,-0.0017000000000000348,-0.0008599999999999719,0.43500000000000005,-0.22499999999999998,0.10000000000000009,0.0012199999999999989,0.00048000000000003595,0.00048000000000003595,1742248479.06109
0.4849999999999999,-0.030000000000000027,0.1100000000000001,0.0029200000000000337,-0.0006199999999999539,-0.0015800000000000258,0.42999999999999994,-0.21999999999999997,0.10499999999999998,-0.00024000000000001798,0.0008600000000000829,-0.00012000000000000899,1742248479.1726668
0.4849999999999999,-0.025000000000000022,0.1100000000000001,-0.0012199999999999989,-0.0014600000000000168,0.00035999999999991594,0.42999999999999994,-0.21999999999999997,0.10499999999999998,0.0014600000000000168,0.0031799999999999606,-0.0017000000000000348,1742248479.286361
0.4849999999999999,-0.025000000000000022,0.11499999999999999,0.00024000000000001798,-0.0015800000000000258,0.00024000000000001798,0.42999999999999994,-0.22499999999999998,0.10000000000000009,0.00011999999999989797,0.00048000000000003595,-0.0009799999999999809,1742248479.4002502
0.4849999999999999,-0.025000000000000022,0.11499999999999999,0.0013400000000001189,0.0013400000000001189,-0.0007399999999999629,0.42999999999999994,-0.21999999999999997,0.10499999999999998,0.0007399999999999629,-0.0013400000000000079,0.00024000000000001798,1742248479.513223
0.4849999999999999,-0.030000000000000027,0.11499999999999999,-0.0008599999999999719,-0.00036000000000002697,0.0009799999999999809,0.43500000000000005,-0.21999999999999997,0.10499999999999998,0.0006200000000000649,0.0015800000000001369,-0.0030599999999999516,1742248479.626252
0.49,-0.025000000000000022,0.11499999999999999,0.00011999999999989797,-0.00024000000000001798,0.0032999999999998586,0.42999999999999994,-0.22499999999999998,0.10499999999999998,0.001100000000000101,0.0017000000000000348,-0.002080000000000082,1742248479.739435
0.4849999999999999,-0.025000000000000022,0.1100000000000001,0.0,-0.0012199999999999989,0.00048000000000003595,0.43500000000000005,-0.21999999999999997,0.10000000000000009,0.00048000000000003595,0.0019599999999999618,-0.0008599999999999719,1742248479.8532338
0.4849999999999999,-0.025000000000000022,0.11499999999999999,-0.0017000000000000348,-0.0014600000000000168,0.0012199999999999989,0.43500000000000005,-0.22999999999999998,0.09499999999999997,-0.0017000000000000348,0.0026800000000000157,-0.00012000000000000899,1742248479.967348
0.48,-0.025000000000000022,0.11499999999999999,0.0,-0.0007399999999999629,-0.0030599999999999516,0.42999999999999994,-0.21999999999999997,0.09499999999999997,-0.0012199999999999989,0.0008600000000000829,0.0025599999999998957,1742248480.083581
0.48,-0.025000000000000022,0.11499999999999999,0.0015800000000001369,0.00048000000000003595,0.0024399999999999977,0.42999999999999994,-0.21999999999999997,0.10000000000000009,0.0024399999999999977,0.00011999999999989797,-0.0022000000000000908,1742248480.197941
0.49,-0.025000000000000022,0.1100000000000001,0.00011999999999989797,-0.0012199999999999989,0.0,0.43500000000000005,-0.22499999999999998,0.10499999999999998,-0.0013400000000000079,0.0019599999999999618,-0.00012000000000000899,1742248480.309336
0.4849999999999999,-0.025000000000000022,0.11499999999999999,-0.00024000000000001798,-0.0008599999999999719,0.0009799999999999809,0.42999999999999994,-0.22499999999999998,0.09499999999999997,0.00024000000000001798,0.0018400000000000638,-0.0009799999999999809,1742248480.423243
0.48,-0.020000000000000018,0.11499999999999999,0.0008600000000000829,0.0009799999999999809,-0.0009799999999999809,0.42999999999999994,-0.22499999999999998,0.09499999999999997,0.0,-0.0014600000000000168,0.00048000000000003595,1742248480.536281
0.4849999999999999,-0.025000000000000022,0.11499999999999999,-0.0010999999999999899,0.00035999999999991594,-0.0008599999999999719,0.43500000000000005,-0.21999999999999997,0.09499999999999997,-0.00012000000000000899,-0.0008599999999999719,-0.0007399999999999629,1742248480.6504571
0.4849999999999999,-0.020000000000000018,0.11499999999999999,0.0006200000000000649,0.0014600000000000168,-0.0010999999999999899,0.42999999999999994,-0.22999999999999998,0.10000000000000009,-0.0010999999999999899,-0.0012199999999999989,0.00048000000000003595,1742248480.764344
0.4849999999999999,-0.030000000000000027,0.11499999999999999,0.0013400000000001189,0.0006200000000000649,-0.0013400000000000079,0.42999999999999994,-0.21999999999999997,0.10000000000000009,-0.00048000000000003595,-0.00012000000000000899,0.00024000000000001798,1742248480.87835
0.4849999999999999,-0.020000000000000018,0.11499999999999999,0.00024000000000001798,0.0021999999999999797,-0.00012000000000000899,0.42999999999999994,-0.22499999999999998,0.10000000000000009,-0.0008599999999999719,-0.0010999999999999899,-0.00024000000000001798,1742248480.992429
0.4849999999999999,-0.025000000000000022,0.11499999999999999,0.0019599999999999618,0.0,-0.0013400000000000079,0.43500000000000005,-0.22499999999999998,0.10000000000000009,0.0021999999999999797,0.0,0.0006200000000000649,1742248481.106121
0.4849999999999999,-0.025000000000000022,0.11499999999999999,0.0009799999999999809,-0.00048000000000003595,-0.00048000000000003595,0.43500000000000005,-0.22499999999999998,0.10000000000000009,0.00011999999999989797,-0.0013400000000000079,-0.00036000000000002697,1742248481.219305
0.4849999999999999,-0.025000000000000022,0.1100000000000001,-0.00024000000000001798,0.0012199999999999989,-0.00012000000000000899,0.42999999999999994,-0.22499999999999998,0.10000000000000009,-0.0014600000000000168,0.00011999999999989797,-0.00048000000000003595,1742248481.333333
0.4849999999999999,-0.025000000000000022,0.11499999999999999,-0.0006199999999999539,-0.0032999999999999696,-0.0027999999999999137,0.43500000000000005,-0.21999999999999997,0.09499999999999997,0.00011999999999989797,0.0024399999999999977,0.0027999999999999137,1742248481.447155
0.48,-0.025000000000000022,0.11499999999999999,0.0014600000000000168,-0.0014600000000000168,-0.00012000000000000899,0.42999999999999994,-0.21999999999999997,0.09499999999999997,0.0012199999999999989,-0.00036000000000002697,-0.00048000000000003595,1742248481.561262
0.4849999999999999,-0.025000000000000022,0.11499999999999999,0.0009799999999999809,0.00048000000000003595,0.0006200000000000649,0.43500000000000005,-0.22499999999999998,0.10000000000000009,0.00011999999999989797,-0.0007399999999999629,-0.0013400000000000079,1742248481.674356
0.4849999999999999,-0.025000000000000022,0.11499999999999999,-0.00012000000000000899,0.00011999999999989797,0.0007399999999999629,0.42999999999999994,-0.22499999999999998,0.09499999999999997,0.00048000000000003595,0.00035999999999991594,-0.0023200000000000998,1742248481.788266
0.4849999999999999,-0.020000000000000018,0.11499999999999999,0.0008600000000000829,0.00011999999999989797,0.00024000000000001798,0.42999999999999994,-0.22499999999999998,0.10000000000000009,0.001100000000000101,-0.00024000000000001798,0.0,1742248481.902271
0.4849999999999999,-0.025000000000000022,0.11499999999999999,0.0006200000000000649,0.00011999999999989797,-0.0010999999999999899,0.43500000000000005,-0.21999999999999997,0.10000000000000009,0.001100000000000101,0.0,-0.0010999999999999899,1742248482.019437
0.4849999999999999,-0.020000000000000018,0.11499999999999999,-0.0007399999999999629,0.0014600000000000168,0.00024000000000001798,0.43500000000000005,-0.22999999999999998,0.09499999999999997,-0.0010999999999999899,0.00035999999999991594,0.00011999999999989797,1742248482.130177
0.4849999999999999,-0.025000000000000022,0.1200000000000001,0.0013400000000001189,-0.00036000000000002697,-0.0037800000000000056,0.42999999999999994,-0.21999999999999997,0.09499999999999997,-0.00036000000000002697,-0.00024000000000001798,0.0023200000000000998,1742248482.2432792
0.4849999999999999,-0.025000000000000022,0.1100000000000001,0.0024399999999999977,-0.00048000000000003595,0.0008600000000000829,0.43500000000000005,-0.22499999999999998,0.10000000000000009,0.001100000000000101,-0.0013400000000000079,-0.00024000000000001798,1742248482.3585448
0.49,-0.025000000000000022,0.1100000000000001,-0.00048000000000003595,-0.0013400000000000079,-0.0008599999999999719,0.42999999999999994,-0.22499999999999998,0.10499999999999998,-0.0009799999999999809,0.0030599999999998406,0.0009799999999999809,1742248482.471172
0.4849999999999999,-0.030000000000000027,0.1200000000000001,0.00011999999999989797,-0.0042799999999999505,-0.0023200000000000998,0.43999999999999995,-0.22499999999999998,0.10000000000000009,-0.0030599999999999516,0.0008600000000000829,0.002080000000000082,1742248482.585204
0.4950000000000001,-0.030000000000000027,0.1200000000000001,-0.0024400000000001087,-0.010739999999999972,-0.0017000000000000348,0.43999999999999995,-0.22499999999999998,0.10499999999999998,-0.005120000000000013,0.008299999999999974,0.00550000000000006,1742248482.699154
0.4750000000000001,-0.015000000000000013,0.125,-0.010499999999999954,-0.01660000000000006,-0.0026799999999999047,0.43500000000000005,-0.22499999999999998,0.08499999999999996,-0.0008599999999999719,0.017220000000000013,0.006839999999999957,1742248482.81319
0.48,-0.030000000000000027,0.135,-0.012700000000000045,-0.016720000000000068,-0.008919999999999928,0.45999999999999996,-0.20999999999999996,0.09499999999999997,-0.0048799999999999955,0.014780000000000015,0.020140000000000047,1742248482.927197
0.4950000000000001,-0.040000000000000036,0.14500000000000002,-0.005859999999999976,-0.016720000000000068,0.00878000000000001,0.4650000000000001,-0.20999999999999996,0.09000000000000008,-0.008539999999999992,0.014780000000000015,-0.00012000000000000899,1742248483.041394
0.48,-0.010000000000000009,0.1499999999999999,-0.009039999999999937,-0.011600000000000055,0.009519999999999973,0.44500000000000006,-0.22999999999999998,0.08000000000000007,-0.01648000000000005,0.010499999999999954,0.005980000000000096,1742248483.157482
0.45999999999999996,-0.010000000000000009,0.1499999999999999,-0.01085999999999998,-0.0030599999999999516,0.0006200000000000649,0.43999999999999995,-0.19999999999999996,0.08000000000000007,-0.008539999999999992,0.009640000000000093,0.007440000000000113,1742248483.269225
0.4750000000000001,-0.015000000000000013,0.16500000000000004,-0.011099999999999999,-0.012319999999999998,0.0034199999999999786,0.44500000000000006,-0.19999999999999996,0.07499999999999996,-0.006720000000000059,-0.01208000000000009,-0.010140000000000038,1742248483.3833652
0.48,-0.0050000000000000044,0.15999999999999992,0.0007399999999999629,-0.028679999999999928,0.0030599999999998406,0.44500000000000006,-0.21999999999999997,0.08000000000000007,-0.0009799999999999809,0.0007399999999999629,-0.011960000000000082,1742248483.498517
0.44500000000000006,0.004999999999999893,0.19500000000000006,-0.005499999999999949,-0.016840000000000077,0.01635999999999993,0.44999999999999996,-0.22999999999999998,0.09000000000000008,-0.007200000000000095,-0.018919999999999937,-0.016120000000000023,1742248483.611347
0.45500000000000007,-0.0050000000000000044,0.18999999999999995,-0.010499999999999954,0.0045200000000000795,0.026859999999999884,0.43500000000000005,-0.21499999999999997,0.07499999999999996,-0.037839999999999985,0.009879999999999889,0.0043999999999999595,1742248483.725204
0.4650000000000001,0.02499999999999991,0.18500000000000005,-0.0022000000000000908,0.007319999999999993,-0.0026799999999999047,0.41999999999999993,-0.22499999999999998,0.125,-0.006720000000000059,-0.0009799999999999809,-0.023320000000000007,1742248483.839356
0.47,0.020000000000000018,0.17500000000000004,0.0035399999999998766,-0.008919999999999928,0.018059999999999965,0.43999999999999995,-0.22499999999999998,0.08499999999999996,0.0036599999999999966,0.04296000000000011,-0.02734000000000003,1742248483.953203
0.44999999999999996,0.040000000000000036,0.18999999999999995,0.009279999999999955,-0.0075599999999999,-0.007200000000000095,0.41500000000000004,-0.22999999999999998,0.06000000000000005,0.005619999999999958,0.011600000000000055,0.006099999999999994,1742248484.0672488
0.45999999999999996,0.020000000000000018,0.18500000000000005,0.00878000000000001,-0.005739999999999967,-0.01097999999999999,0.43500000000000005,-0.235,0.06499999999999995,0.0006200000000000649,-0.0012199999999999989,0.005239999999999911,1742248484.181205
0.45500000000000007,0.020000000000000018,0.19500000000000006,0.00550000000000006,-0.0006199999999999539,-0.007320000000000104,0.43500000000000005,-0.22499999999999998,0.07499999999999996,0.0009799999999999809,0.0006200000000000649,0.006960000000000077,1742248484.29845
0.45999999999999996,0.0,0.19500000000000006,0.0039000000000000146,0.0019599999999999618,-0.011840000000000073,0.43500000000000005,-0.21499999999999997,0.06499999999999995,-0.008419999999999983,0.0032999999999998586,0.00878000000000001,1742248484.409289
0.45999999999999996,-0.0050000000000000044,0.18999999999999995,0.0014600000000000168,-0.00660000000000005,-0.0048799999999999955,0.43999999999999995,-0.20999999999999996,0.07499999999999996,-0.0050000000000000044,0.0035399999999998766,0.00537999999999994,1742248484.523293
0.45500000000000007,0.0,0.18999999999999995,0.0046399999999999775,-0.0040200000000000236,-0.0015800000000000258,0.44500000000000006,-0.21499999999999997,0.07000000000000006,0.0024399999999999977,0.0007399999999999629,0.0021999999999999797,1742248484.638538
0.45999999999999996,-0.0050000000000000044,0.18500000000000005,0.013419999999999987,-0.012700000000000045,-0.011720000000000064,0.41999999999999993,-0.20999999999999996,0.07499999999999996,0.012700000000000156,0.02293999999999996,0.012820000000000054,1742248484.750071
0.45500000000000007,-0.0050000000000000044,0.20500000000000007,0.008920000000000039,-0.030159999999999965,-0.009159999999999946,0.4650000000000001,-0.21499999999999997,0.030000000000000027,0.028079999999999883,0.04455999999999993,0.016720000000000068,1742248484.863179
0.44999999999999996,-0.015000000000000013,0.2250000000000001,-0.0009799999999999809,-0.0031799999999999606,-0.009159999999999946,0.4750000000000001,-0.20499999999999996,0.030000000000000027,0.00035999999999991594,0.001100000000000101,0.00782000000000016,1742248484.978272
0.44999999999999996,-0.015000000000000013,0.20999999999999996,-0.0015800000000000258,0.0018400000000000638,-0.005979999999999985,0.44999999999999996,-0.19500000000000006,0.040000000000000036,-0.0017000000000000348,-0.00024000000000001798,0.0046399999999999775,1742248485.0901692
0.43999999999999995,-0.015000000000000013,0.19999999999999996,-0.005619999999999958,-0.008299999999999974,-0.0041599999999999415,0.42999999999999994,-0.18500000000000005,0.040000000000000036,0.005859999999999976,0.018799999999999928,0.007200000000000095,1742248485.204012
0.44500000000000006,-0.020000000000000018,0.22999999999999998,-0.0006199999999999539,-0.02198,-0.008919999999999928,0.44999999999999996,-0.19999999999999996,0.010000000000000009,0.00770000000000004,0.02844000000000002,0.016599999999999948,1742248485.318738
0.45500000000000007,-0.020000000000000018,0.22999999999999998,-0.010000000000000009,-0.018440000000000012,-0.009159999999999946,0.4849999999999999,-0.18999999999999995,0.0,0.010620000000000074,0.03601999999999994,0.01648000000000005,1742248485.430215
0.43999999999999995,-0.025000000000000022,0.2450000000000001,-0.0015800000000000258,-0.00036000000000002697,-0.0032999999999999696,0.4650000000000001,-0.17500000000000004,-0.020000000000000018,0.0029200000000000337,0.00865999999999989,0.0032999999999998586,1742248485.544065
0.43999999999999995,-0.020000000000000018,0.22999999999999998,0.001100000000000101,0.0037799999999998946,0.001100000000000101,0.45999999999999996,-0.17999999999999994,-0.010000000000000009,0.0026800000000000157,0.005120000000000013,-0.0007399999999999629,1742248485.6586812
0.44500000000000006,-0.015000000000000013,0.21999999999999997,0.0006200000000000649,-0.008919999999999928,-0.0027999999999999137,0.45500000000000007,-0.17000000000000004,-0.0050000000000000044,0.023679999999999923,0.03308,0.006720000000000059,1742248485.772141
0.42999999999999994,-0.010000000000000009,0.25,-0.008059999999999956,-0.01537999999999995,0.011840000000000073,0.47,-0.17999999999999994,-0.06499999999999995,0.03222000000000014,0.04235999999999995,-0.009639999999999982,1742248485.886297
0.43999999999999995,0.004999999999999893,0.25,-0.0018400000000000638,-0.0026799999999999047,0.007319999999999993,0.45500000000000007,-0.17999999999999994,-0.06499999999999995,0.010380000000000056,0.011360000000000037,-0.0034199999999999786,1742248486.000206
0.43999999999999995,0.0,0.24,0.0021999999999999797,0.012320000000000109,-0.00537999999999994,0.45500000000000007,-0.17999999999999994,-0.07999999999999996,0.013679999999999914,0.013419999999999987,0.0030599999999998406,1742248486.114131
0.43999999999999995,-0.015000000000000013,0.24,0.0008600000000000829,0.015139999999999931,-0.01085999999999998,0.45999999999999996,-0.16000000000000003,-0.07000000000000006,-0.012319999999999998,-0.014519999999999977,0.0045200000000000795,1742248486.228265
0.44500000000000006,-0.0050000000000000044,0.21500000000000008,-0.00537999999999994,0.015619999999999967,0.0019599999999999618,0.44500000000000006,-0.16000000000000003,-0.04500000000000004,-0.010000000000000009,-0.018179999999999974,-0.008919999999999928,1742248486.342349
0.44999999999999996,-0.0050000000000000044,0.2250000000000001,-0.0039000000000000146,0.006839999999999957,0.0013400000000001189,0.45999999999999996,-0.17500000000000004,-0.04500000000000004,-0.0037800000000000056,-0.0040200000000000236,-0.0027999999999999137,1742248486.4579809
0.44999999999999996,-0.015000000000000013,0.2250000000000001,0.0008600000000000829,-0.005499999999999949,0.0021999999999999797,0.45500000000000007,-0.17999999999999994,-0.050000000000000044,0.006099999999999994,0.010860000000000092,-0.0008599999999999719,1742248486.5701818
0.43999999999999995,-0.015000000000000013,0.22999999999999998,-0.0027999999999999137,-0.025880000000000014,0.0040199999999999125,0.45999999999999996,-0.17500000000000004,-0.06499999999999995,0.01415999999999995,0.031500000000000083,0.0045200000000000795,1742248486.684222
0.43500000000000005,-0.010000000000000009,0.2450000000000001,-0.0025599999999998957,-0.01525999999999994,0.009400000000000075,0.47,-0.17999999999999994,-0.08499999999999996,-0.00024000000000001798,0.012939999999999952,-0.006099999999999994,1742248486.7989252
0.43500000000000005,-0.0050000000000000044,0.2450000000000001,-0.0010999999999999899,-0.0013400000000000079,0.0043999999999999595,0.45999999999999996,-0.17999999999999994,-0.08499999999999996,-0.001960000000000073,-0.0007399999999999629,-0.0036599999999999966,1742248486.912389
0.43500000000000005,0.0,0.23499999999999988,-0.0014600000000000168,0.0030599999999998406,0.00035999999999991594,0.44999999999999996,-0.17999999999999994,-0.07499999999999996,0.00035999999999991594,0.0006200000000000649,-0.0006199999999999539,1742248487.026212
0.42500000000000004,0.0,0.24,0.0017000000000000348,-0.0037800000000000056,-0.00024000000000001798,0.44500000000000006,-0.17500000000000004,-0.07999999999999996,0.01208000000000009,0.011360000000000037,0.0009799999999999809,1742248487.1401322
0.43999999999999995,-0.0050000000000000044,0.25,-0.001960000000000073,-0.0025599999999998957,0.0015800000000001369,0.45999999999999996,-0.16500000000000004,-0.08499999999999996,0.0014600000000000168,-0.0013400000000000079,-0.0026799999999999047,1742248487.254308
0.43500000000000005,-0.0050000000000000044,0.24,-0.011480000000000046,0.016240000000000032,0.01990000000000003,0.44500000000000006,-0.17500000000000004,-0.05500000000000005,-0.034540000000000015,-0.03724000000000005,-0.029899999999999927,1742248487.368365
0.43500000000000005,0.0,0.24,0.009879999999999889,-0.007320000000000104,0.016240000000000032,0.43999999999999995,-0.20499999999999996,-0.040000000000000036,-0.02061999999999997,-0.023559999999999914,-0.019279999999999964,1742248487.482377
0.42999999999999994,0.014999999999999902,0.2549999999999999,0.00770000000000004,-0.015499999999999958,0.015740000000000087,0.4650000000000001,-0.19999999999999996,-0.06000000000000005,0.013919999999999932,0.005980000000000096,-0.008179999999999965,1742248487.598241
0.42999999999999994,0.02499999999999991,0.25,-0.001960000000000073,0.0031799999999999606,0.012320000000000109,0.44500000000000006,-0.20499999999999996,-0.04500000000000004,0.00011999999999989797,-0.009159999999999946,-0.009519999999999973,1742248487.710222
0.41500000000000004,0.02499999999999991,0.25,0.005619999999999958,-0.0027999999999999137,0.005619999999999958,0.44500000000000006,-0.20499999999999996,-0.05500000000000005,0.0009799999999999809,-0.02185999999999999,-0.005499999999999949,1742248487.824167
0.41999999999999993,0.010000000000000009,0.25,0.010380000000000056,-0.0008599999999999719,0.006960000000000077,0.44999999999999996,-0.21499999999999997,-0.03500000000000003,0.0048799999999999955,-0.014399999999999968,-0.013299999999999979,1742248487.9384902
0.44500000000000006,0.030000000000000027,0.2749999999999999,0.018320000000000114,0.010860000000000092,-0.00024000000000001798,0.4750000000000001,-0.22999999999999998,-0.04500000000000004,-0.012460000000000027,-0.03820000000000001,-0.010000000000000009,1742248488.0522828
0.44999999999999996,0.020000000000000018,0.25,0.031239999999999934,0.020999999999999908,0.006340000000000012,0.44500000000000006,-0.22499999999999998,0.004999999999999893,-0.02061999999999997,-0.05786000000000002,-0.021720000000000073,1742248488.16618
0.44999999999999996,0.004999999999999893,0.24,0.035760000000000014,0.0037799999999998946,0.007560000000000011,0.44500000000000006,-0.24,0.030000000000000027,-0.011099999999999999,-0.039919999999999956,-0.006099999999999994,1742248488.280202
0.43999999999999995,0.014999999999999902,0.24,0.0046399999999999775,0.0018400000000000638,0.007200000000000095,0.43999999999999995,-0.22999999999999998,0.040000000000000036,-0.011840000000000073,-0.0232,-0.008059999999999956,1742248488.394186
0.43999999999999995,0.0,0.22999999999999998,0.0030599999999998406,0.008299999999999974,0.0021999999999999797,0.42500000000000004,-0.235,0.05499999999999994,-0.02501999999999993,-0.02307999999999999,-0.00988,1742248488.508181
0.45500000000000007,0.004999999999999893,0.23499999999999988,0.006099999999999994,0.009039999999999937,-0.007320000000000104,0.44999999999999996,-0.235,0.08000000000000007,-0.00770000000000004,-0.04479999999999995,0.0039000000000000146,1742248488.6220732
0.4650000000000001,-0.010000000000000009,0.2250000000000001,0.016240000000000032,0.0023200000000000998,-0.012319999999999998,0.42500000000000004,-0.22499999999999998,0.10000000000000009,-0.0075599999999999,-0.023799999999999932,0.019160000000000066,1742248488.738524
0.45500000000000007,-0.015000000000000013,0.21500000000000008,-0.0023200000000000998,0.0030599999999998406,-0.006220000000000003,0.41500000000000004,-0.22499999999999998,0.09499999999999997,-0.00878000000000001,-0.0006199999999999539,-0.0015800000000000258,1742248488.850226
0.43999999999999995,-0.0050000000000000044,0.21500000000000008,0.00865999999999989,0.008920000000000039,-0.011480000000000046,0.41999999999999993,-0.22499999999999998,0.10499999999999998,-0.007440000000000002,-0.019399999999999973,0.015139999999999931,1742248488.964019
0.44500000000000006,-0.030000000000000027,0.21999999999999997,0.009279999999999955,0.017819999999999947,0.00035999999999991594,0.41999999999999993,-0.21499999999999997,0.125,-0.007200000000000095,-0.04161999999999999,0.0012199999999999989,1742248489.078056
0.4650000000000001,-0.020000000000000018,0.19999999999999996,0.011479999999999935,0.0042800000000000615,-0.0029199999999999227,0.405,-0.21999999999999997,0.14000000000000012,-0.008539999999999992,-0.017340000000000022,0.00011999999999989797,1742248489.1920571
0.45999999999999996,-0.015000000000000013,0.19999999999999996,-0.0012199999999999989,-0.0075599999999999,-0.0026799999999999047,0.4099999999999999,-0.21499999999999997,0.14500000000000002,-0.0010999999999999899,-0.005240000000000022,0.0013400000000001189,1742248489.3060858
0.44999999999999996,-0.020000000000000018,0.19999999999999996,-0.0013400000000000079,-0.0015800000000000258,-0.0046399999999999775,0.41500000000000004,-0.20499999999999996,0.15999999999999992,0.0009799999999999809,-0.0024400000000001087,0.0027999999999999137,1742248489.41998
0.45999999999999996,-0.025000000000000022,0.20999999999999996,-0.0025599999999998957,-0.0027999999999999137,0.0018400000000000638,0.42500000000000004,-0.20499999999999996,0.16500000000000004,0.0025599999999998957,-0.0027999999999999137,-0.0010999999999999899,1742248489.534086
0.4650000000000001,-0.015000000000000013,0.20500000000000007,-0.0034199999999999786,-0.005979999999999985,0.005740000000000078,0.41500000000000004,-0.21999999999999997,0.16999999999999993,0.0041599999999999415,-0.0010999999999999899,-0.0046399999999999775,1742248489.6480708
0.44500000000000006,0.0,0.21999999999999997,-0.0034199999999999786,-0.0027999999999999137,-0.001960000000000073,0.41999999999999993,-0.21999999999999997,0.15999999999999992,-0.0045199999999999685,-0.013299999999999979,-0.001960000000000073,1742248489.7622
0.44999999999999996,-0.010000000000000009,0.21500000000000008,-0.0006199999999999539,0.004999999999999893,-0.0027999999999999137,0.4099999999999999,-0.21499999999999997,0.17999999999999994,-0.00782000000000005,-0.03465999999999991,-0.0013400000000000079,1742248489.878494
0.45500000000000007,-0.0050000000000000044,0.20999999999999996,0.0013400000000001189,-0.00036000000000002697,-0.0030599999999999516,0.3999999999999999,-0.21999999999999997,0.17999999999999994,-0.005499999999999949,-0.008299999999999974,0.00048000000000003595,1742248489.9900868
0.45500000000000007,-0.0050000000000000044,0.21500000000000008,0.0040199999999999125,-0.00660000000000005,0.005740000000000078,0.3999999999999999,-0.20999999999999996,0.18999999999999995,0.0037799999999998946,-0.007440000000000002,0.0006200000000000649,1742248490.103999
0.45500000000000007,0.0,0.21500000000000008,0.007319999999999993,-0.005499999999999949,0.00770000000000004,0.3999999999999999,-0.21999999999999997,0.19500000000000006,-0.0022000000000000908,-0.011600000000000055,-0.0023200000000000998,1742248490.218851
0.44999999999999996,-0.0050000000000000044,0.21999999999999997,0.0008600000000000829,-0.006099999999999994,-0.0029199999999999227,0.3999999999999999,-0.20999999999999996,0.19500000000000006,-0.0031799999999999606,-0.005240000000000022,0.0032999999999998586,1742248490.332018
0.44500000000000006,-0.010000000000000009,0.2250000000000001,0.0008600000000000829,0.0006200000000000649,-0.00024000000000001798,0.3999999999999999,-0.20499999999999996,0.19500000000000006,-0.0030599999999999516,-0.0022000000000000908,-0.0036599999999999966,1742248490.446216
0.44999999999999996,0.0,0.21999999999999997,-0.0030599999999999516,-0.0014600000000000168,0.00537999999999994,0.3999999999999999,-0.21999999999999997,0.19999999999999996,-0.0007399999999999629,-0.0035399999999999876,-0.0045199999999999685,1742248490.561708
0.45500000000000007,0.004999999999999893,0.21999999999999997,-0.0014600000000000168,0.00011999999999989797,0.0006200000000000649,0.395,-0.22499999999999998,0.20500000000000007,0.0025599999999998957,-0.00036000000000002697,-0.0027999999999999137,1742248490.674019
0.44999999999999996,0.0,0.22999999999999998,0.009640000000000093,-0.0040200000000000236,-0.008660000000000001,0.3999999999999999,-0.21999999999999997,0.20999999999999996,-0.008919999999999928,-0.009519999999999973,0.0,1742248490.7879732
0.44999999999999996,-0.015000000000000013,0.2250000000000001,0.005239999999999911,-0.0032999999999999696,-0.0046399999999999775,0.3999999999999999,-0.21999999999999997,0.20999999999999996,-0.01758000000000004,-0.007940000000000058,0.0034199999999999786,1742248490.901978
0.43999999999999995,-0.010000000000000009,0.22999999999999998,0.0017000000000000348,-0.0045199999999999685,-0.0050000000000000044,0.3999999999999999,-0.21499999999999997,0.21999999999999997,-0.01415999999999995,-0.014399999999999968,0.0025599999999998957,1742248491.015976
0.43999999999999995,-0.020000000000000018,0.21999999999999997,-0.005739999999999967,0.006720000000000059,-0.0007399999999999629,0.3900000000000001,-0.20999999999999996,0.2250000000000001,-0.013419999999999987,-0.021600000000000064,-0.00024000000000001798,1742248491.130121
0.44999999999999996,-0.015000000000000013,0.21999999999999997,-0.005499999999999949,0.005239999999999911,0.0,0.385,-0.20499999999999996,0.23499999999999988,0.0027999999999999137,-0.00770000000000004,0.0035399999999998766,1742248491.243878
0.44500000000000006,-0.0050000000000000044,0.21999999999999997,-0.00988,0.004999999999999893,0.006720000000000059,0.385,-0.20499999999999996,0.22999999999999998,-0.0026799999999999047,-0.006720000000000059,-0.0047599999999999865,1742248491.3592708
0.44999999999999996,0.0,0.21500000000000008,-0.00048000000000003595,0.010860000000000092,0.0014600000000000168,0.385,-0.20999999999999996,0.24,0.0012199999999999989,-0.007080000000000086,0.0,1742248491.4718888
0.45500000000000007,-0.010000000000000009,0.20999999999999996,0.0034199999999999786,0.018059999999999965,-0.008919999999999928,0.385,-0.20499999999999996,0.25,-0.0046399999999999775,-0.010000000000000009,0.0009799999999999809,1742248491.586126
0.45500000000000007,-0.015000000000000013,0.19500000000000006,-0.0008599999999999719,0.010140000000000038,-0.0014600000000000168,0.375,-0.19999999999999996,0.25,-0.0034199999999999786,-0.013419999999999987,-0.0022000000000000908,1742248491.700043
0.43999999999999995,-0.010000000000000009,0.19500000000000006,0.0019599999999999618,-0.0023200000000000998,0.0039000000000000146,0.3599999999999999,-0.20499999999999996,0.2549999999999999,-0.007440000000000002,-0.026120000000000032,-0.0037800000000000056,1742248491.814202
0.45500000000000007,-0.015000000000000013,0.19500000000000006,-0.00036000000000002697,-0.009279999999999955,0.009039999999999937,0.3700000000000001,-0.20999999999999996,0.2749999999999999,-0.0018400000000000638,-0.023320000000000007,-0.0032999999999999696,1742248491.9280782
0.4750000000000001,-0.0050000000000000044,0.20999999999999996,0.005239999999999911,0.00011999999999989797,-0.0018400000000000638,0.375,-0.20999999999999996,0.28,0.0046399999999999775,-0.0017000000000000348,0.005120000000000013,1742248492.0417962
0.4650000000000001,0.0,0.19999999999999996,0.0026800000000000157,0.00865999999999989,-0.0035399999999999876,0.365,-0.20499999999999996,0.26,0.011479999999999935,0.028200000000000003,0.010380000000000056,1742248492.158978
0.45500000000000007,-0.015000000000000013,0.18500000000000005,0.00048000000000003595,0.023800000000000043,-0.009639999999999982,0.385,-0.20499999999999996,0.26,0.006099999999999994,0.01977999999999991,0.0007399999999999629,1742248492.269711
0.4650000000000001,-0.020000000000000018,0.18500000000000005,0.006839999999999957,0.01990000000000003,-0.00878000000000001,0.3799999999999999,-0.20499999999999996,0.2650000000000001,-0.0017000000000000348,0.0007399999999999629,-0.0013400000000000079,1742248492.38287
0.48,-0.025000000000000022,0.17500000000000004,0.008920000000000039,-0.0018400000000000638,-0.0034199999999999786,0.3799999999999999,-0.20499999999999996,0.2650000000000001,-0.00660000000000005,0.006220000000000114,-0.0006199999999999539,1742248492.499635
0.44500000000000006,-0.020000000000000018,0.17999999999999994,0.019279999999999964,0.01110000000000011,-0.01097999999999999,0.375,-0.20499999999999996,0.24,-0.009519999999999973,0.00011999999999989797,0.0031799999999999606,1742248492.610832
0.47,-0.03500000000000003,0.17999999999999994,0.015020000000000033,0.012580000000000036,-0.012319999999999998,0.3900000000000001,-0.18500000000000005,0.2549999999999999,-0.0007399999999999629,0.0048799999999999955,0.0024399999999999977,1742248492.724757
0.45999999999999996,-0.03500000000000003,0.16500000000000004,0.0006200000000000649,-0.00782000000000005,-0.010619999999999963,0.3900000000000001,-0.19500000000000006,0.25,-0.005499999999999949,0.0018400000000000638,0.0012199999999999989,1742248492.8400562
0.4650000000000001,-0.03500000000000003,0.17500000000000004,0.0007399999999999629,0.0006200000000000649,-0.010000000000000009,0.385,-0.18999999999999995,0.2450000000000001,-0.0024400000000001087,-0.00024000000000001798,0.0036599999999999966,1742248492.952887
0.47,-0.040000000000000036,0.16999999999999993,0.0008600000000000829,0.00878000000000001,-0.005739999999999967,0.3799999999999999,-0.18500000000000005,0.2549999999999999,-0.0048799999999999955,-0.0046399999999999775,-0.0027999999999999137,1742248493.066954
0.4750000000000001,-0.04500000000000004,0.15999999999999992,0.00035999999999991594,0.006460000000000132,-0.0035399999999999876,0.3799999999999999,-0.19500000000000006,0.26,-0.0025599999999998957,-0.0010999999999999899,-0.0010999999999999899,1742248493.180931
0.47,-0.050000000000000044,0.15999999999999992,-0.0034199999999999786,0.007440000000000113,-0.0007399999999999629,0.3799999999999999,-0.18999999999999995,0.2549999999999999,-0.0025599999999998957,-0.0026799999999999047,-0.0045199999999999685,1742248493.2956831
0.47,-0.050000000000000044,0.15999999999999992,-0.0031799999999999606,0.0036599999999999966,0.004999999999999893,0.375,-0.19500000000000006,0.26,-0.0007399999999999629,-0.005240000000000022,-0.007200000000000095,1742248493.4090922
0.48,-0.03500000000000003,0.15500000000000003,-0.0014600000000000168,0.00048000000000003595,0.0015800000000001369,0.3799999999999999,-0.19999999999999996,0.2650000000000001,0.0021999999999999797,-0.0006199999999999539,-0.0015800000000000258,1742248493.5228522
0.4650000000000001,-0.040000000000000036,0.15999999999999992,0.002080000000000082,0.00024000000000001798,-0.0026799999999999047,0.375,-0.19500000000000006,0.2549999999999999,0.0027999999999999137,0.0013400000000001189,0.0032999999999998586,1742248493.638089
0.47,-0.050000000000000044,0.15999999999999992,0.0027999999999999137,0.0017000000000000348,-0.00036000000000002697,0.3799999999999999,-0.19500000000000006,0.26,0.0024399999999999977,-0.0012199999999999989,-0.0007399999999999629,1742248493.7498791
0.47,-0.050000000000000044,0.15500000000000003,0.0,0.00024000000000001798,0.00048000000000003595,0.375,-0.18999999999999995,0.26,-0.00048000000000003595,-0.0023200000000000998,-0.0026799999999999047,1742248493.86402
0.5,-0.0050000000000000044,0.10000000000000009,0.0009799999999999809,0.0018400000000000638,0.005740000000000078,0.41500000000000004,-0.21999999999999997,0.16999999999999993,-0.01208000000000009,0.021120000000000028,0.0039000000000000146,1742249749.373142
0.4849999999999999,-0.025000000000000022,0.11499999999999999,0.014399999999999968,-0.02088000000000001,0.0014600000000000168,0.42500000000000004,-0.22999999999999998,0.14500000000000002,0.005619999999999958,0.005740000000000078,0.0037799999999998946,1742249749.4860742
0.49,-0.015000000000000013,0.1200000000000001,0.01746000000000003,-0.006340000000000012,-0.0014600000000000168,0.41999999999999993,-0.22499999999999998,0.1499999999999999,-0.0032999999999999696,0.01110000000000011,0.005120000000000013,1742249749.6000562
0.4849999999999999,-0.025000000000000022,0.135,0.01317999999999997,-0.0042799999999999505,-0.00770000000000004,0.41999999999999993,-0.21999999999999997,0.14000000000000012,0.0025599999999998957,0.011840000000000073,0.0009799999999999809,1742249749.713048
0.4750000000000001,-0.010000000000000009,0.1299999999999999,0.018920000000000048,0.001100000000000101,-0.00988,0.41500000000000004,-0.22499999999999998,0.135,0.0046399999999999775,0.01097999999999999,0.0043999999999999595,1742249749.825981
0.47,-0.015000000000000013,0.135,-0.005979999999999985,0.012700000000000156,-0.008539999999999992,0.42500000000000004,-0.20999999999999996,0.125,0.0047600000000000975,-0.0031799999999999606,0.012820000000000054,1742249749.944562
0.4849999999999999,-0.020000000000000018,0.135,0.009279999999999955,0.0035399999999998766,-0.018320000000000003,0.41999999999999993,-0.21999999999999997,0.1499999999999999,-0.006099999999999994,0.006460000000000132,0.03320000000000012,1742249750.053102
0.49,-0.040000000000000036,0.1299999999999999,0.019039999999999946,-0.011600000000000055,-0.010499999999999954,0.43999999999999995,-0.17999999999999994,0.1299999999999999,0.0031799999999999606,-0.0007399999999999629,0.00865999999999989,1742249750.167556
0.47,-0.03500000000000003,0.125,0.009039999999999937,0.005740000000000078,0.0039000000000000146,0.42999999999999994,-0.19500000000000006,0.125,0.0012199999999999989,0.0034199999999999786,0.011479999999999935,1742249750.285454
0.48,-0.04500000000000004,0.125,0.01317999999999997,0.0042800000000000615,-0.017220000000000013,0.44500000000000006,-0.18500000000000005,0.135,-0.0048799999999999955,0.0006200000000000649,0.018920000000000048,1742249750.394164
0.4950000000000001,-0.06000000000000005,0.1200000000000001,0.009640000000000093,-0.006720000000000059,-0.006340000000000012,0.44999999999999996,-0.17500000000000004,0.135,0.0043999999999999595,0.010739999999999972,0.0045200000000000795,1742249750.508013
0.47,-0.05500000000000005,0.135,0.0025599999999998957,-0.006960000000000077,0.0017000000000000348,0.43999999999999995,-0.17999999999999994,0.1200000000000001,0.001100000000000101,0.007200000000000095,-0.0036599999999999966,1742249750.626274
0.4750000000000001,-0.050000000000000044,0.1299999999999999,-0.0010999999999999899,0.005120000000000013,0.0007399999999999629,0.43999999999999995,-0.17999999999999994,0.1299999999999999,-0.0048799999999999955,-0.0024400000000001087,-0.0046399999999999775,1742249750.735348
0.4849999999999999,-0.05500000000000005,0.1299999999999999,-0.0017000000000000348,0.00537999999999994,0.0030599999999998406,0.44500000000000006,-0.18500000000000005,0.135,-0.005739999999999967,-0.0009799999999999809,-0.005979999999999985,1742249750.849393
0.48,-0.040000000000000036,0.1299999999999999,-0.0030599999999999516,-0.005979999999999985,-0.0015800000000000258,0.44999999999999996,-0.18999999999999995,0.14000000000000012,0.0018400000000000638,0.0034199999999999786,0.008299999999999974,1742249750.965709
0.48,-0.05500000000000005,0.135,0.001100000000000101,-0.005979999999999985,-0.0009799999999999809,0.45500000000000007,-0.17500000000000004,0.135,0.0029200000000000337,0.0009799999999999809,-0.0048799999999999955,1742249751.076132
0.4849999999999999,-0.04500000000000004,0.125,-0.012460000000000027,-0.01636000000000004,0.015260000000000051,0.43999999999999995,-0.18999999999999995,0.1100000000000001,0.011239999999999917,0.005619999999999958,-0.01085999999999998,1742249751.190166
0.4750000000000001,-0.025000000000000022,0.14500000000000002,-0.00036000000000002697,-0.02185999999999999,0.007079999999999975,0.43500000000000005,-0.18999999999999995,0.11499999999999999,0.0048799999999999955,0.006839999999999957,-0.008539999999999992,1742249751.305774
0.47,-0.03500000000000003,0.16500000000000004,0.009519999999999973,-0.009759999999999991,0.01208000000000009,0.44500000000000006,-0.19500000000000006,0.11499999999999999,0.015260000000000051,-0.005859999999999976,-0.015020000000000033,1742249751.418138
0.4750000000000001,-0.025000000000000022,0.15500000000000003,0.01305999999999985,-0.0041599999999999415,0.03064,0.43999999999999995,-0.20999999999999996,0.1200000000000001,0.0047600000000000975,-0.008919999999999928,-0.017080000000000095,1742249751.5322409
0.48,-0.015000000000000013,0.15999999999999992,0.009400000000000075,-0.0035399999999999876,0.02198000000000011,0.42999999999999994,-0.22499999999999998,0.125,0.0015800000000001369,-0.008919999999999928,-0.008059999999999956,1742249751.646968
0.4849999999999999,-0.010000000000000009,0.15999999999999992,-0.010499999999999954,-0.013419999999999987,0.005120000000000013,0.43999999999999995,-0.20499999999999996,0.125,-0.006720000000000059,-0.0018400000000000638,-0.007940000000000058,1742249751.7656431
0.45999999999999996,-0.0050000000000000044,0.16500000000000004,-0.01317999999999997,-0.0017000000000000348,0.011719999999999953,0.42999999999999994,-0.19999999999999996,0.125,0.0026800000000000157,-0.015859999999999985,-0.006720000000000059,1742249751.874271
0.48,-0.0050000000000000044,0.15500000000000003,0.009039999999999937,0.01195999999999997,0.02416000000000018,0.41999999999999993,-0.21999999999999997,0.1299999999999999,-0.005619999999999958,-0.0022000000000000908,-0.01208000000000009,1742249751.98825
0.4849999999999999,0.004999999999999893,0.15999999999999992,-0.016120000000000023,-0.017820000000000058,0.02171999999999996,0.42999999999999994,-0.22499999999999998,0.14000000000000012,-0.002080000000000082,0.007440000000000113,-0.01305999999999996,1742249752.10513
0.4750000000000001,0.030000000000000027,0.16999999999999993,-0.0022000000000000908,-0.02844000000000002,0.01855999999999991,0.41999999999999993,-0.245,0.1299999999999999,-0.0010999999999999899,0.019400000000000084,-0.0037800000000000056,1742249752.216171
0.4849999999999999,0.04499999999999993,0.17999999999999994,0.0007399999999999629,-0.02624000000000004,-0.014399999999999968,0.43999999999999995,-0.21499999999999997,0.135,-0.00036000000000002697,0.02171999999999996,0.029059999999999864,1742249752.3299892
0.45500000000000007,0.010000000000000009,0.18500000000000005,0.01305999999999985,0.0014600000000000168,-0.029899999999999927,0.42999999999999994,-0.19500000000000006,0.1100000000000001,0.0009799999999999809,0.006720000000000059,0.02635999999999994,1742249752.445536
0.44500000000000006,-0.0050000000000000044,0.18999999999999995,0.0037799999999998946,0.013299999999999867,-0.022340000000000027,0.42999999999999994,-0.18500000000000005,0.10499999999999998,-0.011720000000000064,-0.006220000000000003,0.010000000000000009,1742249752.557128
0.45999999999999996,-0.015000000000000013,0.16999999999999993,-0.0045199999999999685,0.05152000000000001,-0.029899999999999927,0.43500000000000005,-0.18999999999999995,0.1299999999999999,-0.016840000000000077,-0.014039999999999941,0.011600000000000055,1742249752.671152
0.5,-0.020000000000000018,0.15500000000000003,0.00537999999999994,0.038819999999999855,-0.021240000000000037,0.45500000000000007,-0.19500000000000006,0.1299999999999999,0.0021999999999999797,-0.011360000000000037,0.004999999999999893,1742249752.78501
0.49,-0.025000000000000022,0.14000000000000012,0.006460000000000132,0.09620000000000006,-0.012940000000000063,0.45500000000000007,-0.19500000000000006,0.1200000000000001,0.028799999999999937,-0.04637999999999998,-0.01317999999999997,1742249752.898171
0.5350000000000001,-0.07000000000000006,0.07000000000000006,-0.031120000000000037,0.09155999999999986,0.024540000000000006,0.43999999999999995,-0.20999999999999996,0.16500000000000004,-0.047719999999999985,-0.006720000000000059,-0.006960000000000077,1742249753.012246
0.4950000000000001,-0.030000000000000027,0.030000000000000027,0.009039999999999937,-0.016240000000000032,-0.005240000000000022,0.395,-0.20999999999999996,0.17999999999999994,-0.0042799999999999505,0.004999999999999893,0.007940000000000058,1742249753.126323
0.48,-0.030000000000000027,0.08000000000000007,-0.01097999999999999,-0.030159999999999965,-0.010739999999999972,0.43999999999999995,-0.17500000000000004,0.14500000000000002,0.0046399999999999775,0.027099999999999902,0.005859999999999976,1742249753.245107
0.47,-0.040000000000000036,0.08499999999999996,-0.012940000000000063,0.005859999999999976,0.02746000000000004,0.41500000000000004,-0.17999999999999994,0.135,0.020499999999999963,0.01305999999999985,-0.030279999999999974,1742249753.353024
0.48,0.010000000000000009,0.07499999999999996,-0.022580000000000044,0.02320000000000011,0.056640000000000024,0.42999999999999994,-0.235,0.125,0.012460000000000138,0.005120000000000013,-0.02513999999999994,1742249753.4670532
0.5249999999999999,-0.015000000000000013,0.08499999999999996,0.0,-0.007200000000000095,0.014040000000000052,0.43500000000000005,-0.21999999999999997,0.125,0.029179999999999984,0.028079999999999883,0.0006200000000000649,1742249753.5846028
0.4849999999999999,0.004999999999999893,0.08000000000000007,-0.0018400000000000638,-0.08960000000000001,-0.0039000000000000146,0.3900000000000001,-0.21999999999999997,0.09499999999999997,0.009039999999999937,0.06285999999999992,0.010739999999999972,1742249753.694824
0.47,0.004999999999999893,0.1499999999999999,-0.025639999999999996,-0.05152000000000001,-0.00048000000000003595,0.45500000000000007,-0.20499999999999996,0.07499999999999996,-0.006340000000000012,0.02942,0.001100000000000101,1742249753.8078668
0.44500000000000006,0.014999999999999902,0.16500000000000004,-0.0025599999999998957,-0.01648000000000005,0.0048799999999999955,0.43500000000000005,-0.20999999999999996,0.050000000000000044,0.01415999999999995,0.008920000000000039,0.0021999999999999797,1742249753.9251451
0.48,0.014999999999999902,0.15500000000000003,0.0019599999999999618,0.0046399999999999775,0.0014600000000000168,0.44500000000000006,-0.21499999999999997,0.06499999999999995,-0.005739999999999967,-0.0025599999999998957,-0.00024000000000001798,1742249754.034153
0.4750000000000001,0.010000000000000009,0.15500000000000003,-0.00036000000000002697,0.0023200000000000998,0.0032999999999998586,0.43500000000000005,-0.21999999999999997,0.06000000000000005,-0.0040200000000000236,-0.0022000000000000908,-0.0045199999999999685,1742249754.148135
0.47,0.014999999999999902,0.1499999999999999,0.0008600000000000829,0.0009799999999999809,-0.0050000000000000044,0.43999999999999995,-0.21999999999999997,0.07000000000000006,-0.0042799999999999505,0.00024000000000001798,0.00048000000000003595,1742249754.265402
0.4849999999999999,0.010000000000000009,0.1499999999999999,0.0031799999999999606,0.005859999999999976,0.0025599999999998957,0.43999999999999995,-0.21999999999999997,0.07499999999999996,-0.0014600000000000168,-0.0008599999999999719,-0.006340000000000012,1742249754.376076
0.4849999999999999,0.020000000000000018,0.14500000000000002,0.0018400000000000638,-0.0023200000000000998,0.005859999999999976,0.43999999999999995,-0.22499999999999998,0.07000000000000006,0.0017000000000000348,0.005120000000000013,-0.0014600000000000168,1742249754.489912
0.4750000000000001,0.020000000000000018,0.15500000000000003,0.0029200000000000337,-0.0037800000000000056,-0.0013400000000000079,0.43999999999999995,-0.21999999999999997,0.07499999999999996,0.0021999999999999797,-0.0007399999999999629,0.0009799999999999809,1742249754.605228
0.47,0.020000000000000018,0.1499999999999999,0.002080000000000082,-0.0048799999999999955,0.0013400000000001189,0.44500000000000006,-0.22499999999999998,0.06499999999999995,0.0008600000000000829,-0.00012000000000000899,0.0036599999999999966,1742249754.716921
0.4750000000000001,0.014999999999999902,0.15999999999999992,-0.0036599999999999966,0.0018400000000000638,-0.0032999999999999696,0.44500000000000006,-0.21499999999999997,0.06499999999999995,-0.007080000000000086,-0.0050000000000000044,0.0042800000000000615,1742249754.831004
0.48,0.010000000000000009,0.1499999999999999,-0.005499999999999949,0.00048000000000003595,-0.005240000000000022,0.43999999999999995,-0.21999999999999997,0.08000000000000007,-0.0122000000000001,0.0037799999999998946,0.006599999999999939,1742249754.944895
0.4650000000000001,0.010000000000000009,0.1499999999999999,-0.0010999999999999899,0.0026800000000000157,-0.0026799999999999047,0.43999999999999995,-0.20999999999999996,0.07499999999999996,0.0013400000000001189,-0.005619999999999958,-0.0010999999999999899,1742249755.0650182
0.49,0.010000000000000009,0.1499999999999999,0.014520000000000088,-0.018179999999999974,-0.020379999999999954,0.44999999999999996,-0.21499999999999997,0.08000000000000007,-0.010739999999999972,0.01537999999999995,0.027959999999999985,1742249755.172926
0.47,-0.0050000000000000044,0.16500000000000004,-0.00012000000000000899,-0.03613999999999995,-0.0047599999999999865,0.43999999999999995,-0.20999999999999996,0.07499999999999996,-0.010000000000000009,0.008059999999999956,0.006340000000000012,1742249755.286904
0.42999999999999994,0.010000000000000009,0.17500000000000004,-0.0035399999999999876,-0.009519999999999973,0.0032999999999998586,0.43500000000000005,-0.18999999999999995,0.08000000000000007,-0.034420000000000006,-0.03979999999999995,-0.005120000000000013,1742249755.405322
0.44999999999999996,-0.020000000000000018,0.20500000000000007,-0.010259999999999936,-0.01305999999999996,0.011840000000000073,0.45999999999999996,-0.16500000000000004,0.10499999999999998,-0.029059999999999975,-0.028200000000000003,-0.018440000000000012,1742249755.51512
0.4650000000000001,0.030000000000000027,0.18500000000000005,0.0009799999999999809,0.008920000000000039,0.036619999999999875,0.42500000000000004,-0.24,0.1200000000000001,-0.007940000000000058,-0.012820000000000054,-0.015499999999999958,1742249755.629125
0.47,0.040000000000000036,0.18500000000000005,-0.017220000000000013,-0.0022000000000000908,-0.013299999999999979,0.42999999999999994,-0.20999999999999996,0.11499999999999999,-0.0045199999999999685,0.015740000000000087,0.017819999999999947,1742249755.7447722
0.45999999999999996,0.020000000000000018,0.18999999999999995,0.0006200000000000649,-0.0036599999999999966,-0.01525999999999994,0.44500000000000006,-0.18999999999999995,0.1100000000000001,0.0027999999999999137,0.0032999999999998586,0.008179999999999854,1742249755.856868
0.44500000000000006,0.030000000000000027,0.18500000000000005,0.0045200000000000795,0.010499999999999954,0.0035399999999998766,0.44500000000000006,-0.20499999999999996,0.11499999999999999,0.018920000000000048,-0.01085999999999998,0.0018400000000000638,1742249755.969815
0.4750000000000001,-0.015000000000000013,0.19500000000000006,-0.00537999999999994,0.02404000000000006,0.01953999999999989,0.44500000000000006,-0.19500000000000006,0.1100000000000001,0.010259999999999936,-0.010619999999999963,-0.027220000000000022,1742249756.084367
0.45999999999999996,0.03499999999999992,0.16999999999999993,-0.0048799999999999955,0.006099999999999994,0.026619999999999866,0.41500000000000004,-0.22999999999999998,0.11499999999999999,-0.00024000000000001798,-0.001960000000000073,-0.00988,1742249756.197084
0.47,0.050000000000000044,0.17500000000000004,0.0017000000000000348,-0.0030599999999999516,0.00550000000000006,0.43500000000000005,-0.22499999999999998,0.1200000000000001,0.010380000000000056,-0.01305999999999996,0.010499999999999954,1742249756.3110452
0.4650000000000001,0.04499999999999993,0.17500000000000004,0.01317999999999997,0.010000000000000009,0.016119999999999912,0.43500000000000005,-0.20999999999999996,0.1200000000000001,0.017940000000000067,-0.01208000000000009,0.002080000000000082,1742249756.424874
0.4650000000000001,0.03499999999999992,0.17999999999999994,0.011360000000000037,0.006099999999999994,0.025760000000000005,0.42500000000000004,-0.22499999999999998,0.1200000000000001,0.0007399999999999629,-0.012460000000000027,-0.0013400000000000079,1742249756.544029
0.47,0.03499999999999992,0.16999999999999993,-0.001960000000000073,0.0021999999999999797,0.0047600000000000975,0.41999999999999993,-0.21999999999999997,0.1299999999999999,0.0012199999999999989,0.0014600000000000168,-0.00012000000000000899,1742249756.653012
0.4650000000000001,0.06000000000000005,0.16500000000000004,-0.009279999999999955,-0.009399999999999964,-0.005979999999999985,0.42999999999999994,-0.21499999999999997,0.125,-0.021120000000000028,0.01195999999999997,0.014780000000000015,1742249756.766822
0.45999999999999996,0.04499999999999993,0.16999999999999993,-0.025399999999999978,0.00782000000000016,0.027700000000000058,0.41999999999999993,-0.20999999999999996,0.125,-0.010259999999999936,-0.005979999999999985,-0.015859999999999985,1742249756.8851268
0.4650000000000001,0.08499999999999996,0.15500000000000003,-0.014519999999999977,0.0,0.014639999999999986,0.41999999999999993,-0.21999999999999997,0.135,-0.0045199999999999685,0.0031799999999999606,0.00537999999999994,1742249756.994882
0.4750000000000001,0.06499999999999995,0.15999999999999992,-0.0036599999999999966,0.0019599999999999618,-0.0047599999999999865,0.43999999999999995,-0.19999999999999996,0.1299999999999999,-0.006340000000000012,0.007940000000000058,0.005120000000000013,1742249757.108803
0.4650000000000001,0.07000000000000006,0.16999999999999993,-0.0008599999999999719,-0.0037800000000000056,0.0032999999999998586,0.43500000000000005,-0.20499999999999996,0.125,-0.0042799999999999505,0.0025599999999998957,0.0017000000000000348,1742249757.223871
0.4650000000000001,0.07499999999999996,0.16500000000000004,-0.0048799999999999955,-0.0015800000000000258,-0.0022000000000000908,0.41999999999999993,-0.21499999999999997,0.125,-0.011480000000000046,0.008920000000000039,0.0009799999999999809,1742249757.3370109
0.45999999999999996,0.07000000000000006,0.16500000000000004,0.017340000000000133,-0.0031799999999999606,-0.03076000000000001,0.43999999999999995,-0.18999999999999995,0.1299999999999999,0.0017000000000000348,0.0042800000000000615,0.022340000000000027,1742249757.450769
0.4650000000000001,0.040000000000000036,0.16500000000000004,0.027579999999999938,-0.011099999999999999,-0.02758000000000005,0.44999999999999996,-0.21499999999999997,0.14500000000000002,0.02404000000000006,0.009519999999999973,0.02198000000000011,1742249757.563773
0.4750000000000001,0.020000000000000018,0.16500000000000004,0.048579999999999846,-0.006960000000000077,-0.06005999999999989,0.43999999999999995,-0.19500000000000006,0.14000000000000012,-0.0022000000000000908,0.020140000000000047,0.04699999999999993,1742249757.676857
0.45999999999999996,-0.010000000000000009,0.16999999999999993,0.017079999999999984,-0.02734000000000003,-0.06286000000000003,0.4750000000000001,-0.16500000000000004,0.07000000000000006,0.03210000000000002,0.06690000000000018,0.030999999999999917,1742249757.790748
0.43999999999999995,-0.040000000000000036,0.21999999999999997,-0.0010999999999999899,-0.021240000000000037,-0.012319999999999998,0.47,-0.13,0.05499999999999994,-0.0029199999999999227,0.0047600000000000975,-0.0025599999999998957,1742249757.904765
0.43999999999999995,-0.015000000000000013,0.19500000000000006,-0.021360000000000046,0.09411999999999998,0.025020000000000042,0.45999999999999996,-0.17000000000000004,0.07499999999999996,0.02185999999999999,0.029059999999999864,-0.03394000000000008,1742249758.0178912
0.48,-0.0050000000000000044,0.15999999999999992,-0.03625999999999996,-0.013419999999999987,0.028079999999999883,0.4849999999999999,-0.17999999999999994,0.010000000000000009,0.009759999999999991,0.031239999999999934,-0.018320000000000003,1742249758.1319768
0.48,0.010000000000000009,0.15999999999999992,-0.011240000000000028,-0.02076,0.008539999999999992,0.45500000000000007,-0.17999999999999994,0.03499999999999992,0.0,0.00878000000000001,-0.006720000000000059,1742249758.245824
0.45999999999999996,0.014999999999999902,0.17500000000000004,-0.011360000000000037,-0.009519999999999973,0.007319999999999993,0.44999999999999996,-0.18500000000000005,0.030000000000000027,0.006599999999999939,0.027839999999999865,-0.009039999999999937,1742249758.364084
0.45500000000000007,0.04499999999999993,0.19999999999999996,-0.04515999999999998,-0.008539999999999992,0.03381999999999996,0.47,-0.17999999999999994,0.004999999999999893,0.0014600000000000168,0.016839999999999966,-0.0017000000000000348,1742249758.473854
0.45500000000000007,0.03499999999999992,0.19500000000000006,-0.014780000000000015,-0.010379999999999945,0.004999999999999893,0.45999999999999996,-0.17999999999999994,-0.0050000000000000044,0.0006200000000000649,0.008419999999999872,-0.0034199999999999786,1742249758.588088
0.44999999999999996,0.04499999999999993,0.19500000000000006,-0.0041599999999999415,-0.011240000000000028,0.001100000000000101,0.45999999999999996,-0.18500000000000005,0.0,-0.0024400000000001087,0.0025599999999998957,-0.00036000000000002697,1742249758.701928
0.44999999999999996,0.04499999999999993,0.19500000000000006,0.001100000000000101,-0.002080000000000082,0.0026800000000000157,0.45999999999999996,-0.17999999999999994,-0.0050000000000000044,-0.0014600000000000168,0.0014600000000000168,-0.0022000000000000908,1742249758.815941
0.45500000000000007,0.04499999999999993,0.19500000000000006,0.0015800000000001369,0.00048000000000003595,-0.00048000000000003595,0.45999999999999996,-0.17999999999999994,-0.010000000000000009,-0.00048000000000003595,0.0012199999999999989,-0.002080000000000082,1742249758.929992
0.44999999999999996,0.040000000000000036,0.19500000000000006,-0.0009799999999999809,0.01317999999999997,0.0019599999999999618,0.45999999999999996,-0.18500000000000005,-0.0050000000000000044,-0.001960000000000073,-0.0010999999999999899,-0.0048799999999999955,1742249759.044199
0.45999999999999996,0.04499999999999993,0.18999999999999995,0.0036599999999999966,-0.0009799999999999809,0.0037799999999998946,0.45999999999999996,-0.18500000000000005,-0.010000000000000009,-0.005979999999999985,0.0009799999999999809,0.0041599999999999415,1742249759.157856
0.45500000000000007,0.040000000000000036,0.19500000000000006,0.02942,-0.0232,-0.023799999999999932,0.45999999999999996,-0.17500000000000004,-0.015000000000000013,-0.005120000000000013,0.0009799999999999809,0.007079999999999975,1742249759.271858
0.45999999999999996,0.030000000000000027,0.19999999999999996,0.008299999999999974,-0.0015800000000000258,0.0034199999999999786,0.47,-0.18500000000000005,0.0,-0.00878000000000001,-0.007320000000000104,-0.0017000000000000348,1742249759.386016
0.45500000000000007,0.030000000000000027,0.19500000000000006,0.012580000000000036,0.013800000000000034,-0.0023200000000000998,0.45999999999999996,-0.17999999999999994,-0.0050000000000000044,-0.012580000000000036,-0.01317999999999997,-0.0010999999999999899,1742249759.5038002
0.45500000000000007,0.020000000000000018,0.17999999999999994,0.010000000000000009,0.03259999999999996,0.004999999999999893,0.45500000000000007,-0.18500000000000005,0.010000000000000009,-0.01537999999999995,-0.006340000000000012,-0.0048799999999999955,1742249759.613918
0.4650000000000001,0.030000000000000027,0.17999999999999994,0.016720000000000068,0.019039999999999946,0.0041599999999999415,0.45999999999999996,-0.18500000000000005,0.014999999999999902,-0.02513999999999994,-0.0039000000000000146,-0.0031799999999999606,1742249759.727929
0.47,0.030000000000000027,0.16999999999999993,0.018059999999999965,0.012700000000000156,0.010739999999999972,0.45999999999999996,-0.18999999999999995,0.02499999999999991,-0.025760000000000005,-0.008059999999999956,-0.007200000000000095,1742249759.843816
0.48,0.04499999999999993,0.15999999999999992,0.011600000000000055,0.0046399999999999775,0.011479999999999935,0.45500000000000007,-0.19500000000000006,0.030000000000000027,-0.01085999999999998,0.0021999999999999797,0.0021999999999999797,1742249759.955681
0.4750000000000001,0.040000000000000036,0.15999999999999992,0.007319999999999993,-0.0014600000000000168,-0.0029199999999999227,0.45500000000000007,-0.18500000000000005,0.030000000000000027,-0.007080000000000086,0.005239999999999911,0.011239999999999917,1742249760.069761
0.47,0.02499999999999991,0.16500000000000004,0.0037799999999998946,0.0006200000000000649,-0.006460000000000021,0.45999999999999996,-0.17000000000000004,0.02499999999999991,-0.009279999999999955,0.0006200000000000649,0.004999999999999893,1742249760.18703
0.47,0.02499999999999991,0.16500000000000004,0.004999999999999893,0.0008600000000000829,0.007440000000000113,0.45999999999999996,-0.17999999999999994,0.02499999999999991,-0.005499999999999949,-0.0030599999999999516,-0.0034199999999999786,1742249760.30284
0.47,0.03499999999999992,0.16500000000000004,0.007079999999999975,0.00035999999999991594,0.007200000000000095,0.45999999999999996,-0.18999999999999995,0.02499999999999991,-0.008539999999999992,-0.0035399999999999876,0.0021999999999999797,1742249760.411958
0.4750000000000001,0.030000000000000027,0.16500000000000004,0.006960000000000077,0.00048000000000003595,0.0024399999999999977,0.45999999999999996,-0.17999999999999994,0.04499999999999993,-0.020019999999999927,-0.009639999999999982,-0.00024000000000001798,1742249760.52592
0.4750000000000001,0.03499999999999992,0.15500000000000003,0.007079999999999975,-0.0007399999999999629,0.00770000000000004,0.45500000000000007,-0.18500000000000005,0.04499999999999993,-0.010739999999999972,-0.002080000000000082,-0.005120000000000013,1742249760.6398451
0.48,0.04499999999999993,0.16999999999999993,0.006720000000000059,-0.0010999999999999899,-0.002080000000000082,0.45999999999999996,-0.18500000000000005,0.04499999999999993,-0.016240000000000032,0.0015800000000001369,-0.0009799999999999809,1742249760.753872
0.4650000000000001,0.030000000000000027,0.15999999999999992,0.015260000000000051,0.0019599999999999618,0.00035999999999991594,0.45500000000000007,-0.18500000000000005,0.050000000000000044,-0.00012000000000000899,-0.0047599999999999865,-0.008919999999999928,1742249760.867903
0.47,0.03499999999999992,0.16500000000000004,0.0030599999999998406,0.0015800000000001369,0.009519999999999973,0.45500000000000007,-0.18500000000000005,0.050000000000000044,-0.0041599999999999415,-0.0029199999999999227,-0.0026799999999999047,1742249760.982688
0.4750000000000001,0.040000000000000036,0.16500000000000004,-0.0014600000000000168,0.0025599999999998957,0.010000000000000009,0.45500000000000007,-0.18999999999999995,0.050000000000000044,-0.0041599999999999415,-0.0026799999999999047,-0.0014600000000000168,1742249761.095923
0.4750000000000001,0.040000000000000036,0.16500000000000004,0.0013400000000001189,0.0017000000000000348,0.0012199999999999989,0.45999999999999996,-0.18500000000000005,0.06000000000000005,-0.0042799999999999505,-0.0040200000000000236,0.0015800000000001369,1742249761.209862
0.47,0.040000000000000036,0.15999999999999992,0.0007399999999999629,0.0031799999999999606,-0.0009799999999999809,0.45500000000000007,-0.18500000000000005,0.06000000000000005,0.0019599999999999618,-0.0006199999999999539,0.00024000000000001798,1742249761.323749
0.4750000000000001,0.04499999999999993,0.15500000000000003,-0.0009799999999999809,-0.013679999999999914,-0.0012199999999999989,0.45999999999999996,-0.18500000000000005,0.050000000000000044,0.02307999999999999,0.0019599999999999618,-0.0008599999999999719,1742249761.437712
0.4650000000000001,0.04499999999999993,0.15999999999999992,-0.05944000000000005,-0.006099999999999994,0.03308,0.45500000000000007,-0.18500000000000005,0.04499999999999993,0.040159999999999973,-0.017220000000000013,-0.0040200000000000236,1742249761.551684
0.4650000000000001,0.06000000000000005,0.17500000000000004,-0.02513999999999994,-0.014519999999999977,0.0018400000000000638,0.45500000000000007,-0.19500000000000006,0.05499999999999994,0.030019999999999936,-0.008059999999999956,-0.0017000000000000348,1742249761.6675122
0.45999999999999996,0.06499999999999995,0.17500000000000004,-0.007320000000000104,-0.0031799999999999606,-0.005979999999999985,0.45999999999999996,-0.19500000000000006,0.04499999999999993,0.010739999999999972,-0.00036000000000002697,0.0036599999999999966,1742249761.783417
0.45500000000000007,0.06000000000000005,0.17500000000000004,-0.0012199999999999989,0.0023200000000000998,-0.006460000000000021,0.45500000000000007,-0.18999999999999995,0.04499999999999993,-0.0006199999999999539,0.0007399999999999629,0.005619999999999958,1742249761.8936331
0.4650000000000001,0.05499999999999994,0.17500000000000004,0.0015800000000001369,0.0019599999999999618,-0.006220000000000003,0.45500000000000007,-0.18999999999999995,0.04499999999999993,-0.005979999999999985,-0.00048000000000003595,0.006099999999999994,1742249762.007803
0.45999999999999996,0.05499999999999994,0.17500000000000004,0.0009799999999999809,0.0048799999999999955,-0.005619999999999958,0.45999999999999996,-0.18999999999999995,0.050000000000000044,-0.005739999999999967,-0.006460000000000021,0.0036599999999999966,1742249762.1241589
0.47,0.050000000000000044,0.17500000000000004,-0.010379999999999945,0.016240000000000032,-0.01415999999999995,0.45999999999999996,-0.18500000000000005,0.06000000000000005,-0.014639999999999986,-0.011240000000000028,0.010860000000000092,1742249762.235735
0.4650000000000001,0.03499999999999992,0.1499999999999999,-0.03710000000000002,0.02855999999999992,-0.03870000000000007,0.4650000000000001,-0.16000000000000003,0.06000000000000005,-0.01097999999999999,-0.0024400000000001087,0.01317999999999997,1742249762.3497431
0.4750000000000001,0.014999999999999902,0.14000000000000012,-0.035760000000000014,0.031500000000000083,-0.03882000000000008,0.44999999999999996,-0.15000000000000002,0.06499999999999995,-0.01085999999999998,-0.00782000000000005,-0.010259999999999936,1742249762.4638238
0.4849999999999999,0.014999999999999902,0.11499999999999999,-0.020259999999999945,0.014399999999999968,-0.006460000000000021,0.45999999999999996,-0.17500000000000004,0.05499999999999994,-0.008660000000000001,-0.0075599999999999,0.0,1742249762.577721
0.4950000000000001,0.040000000000000036,0.1100000000000001,0.02210000000000001,-0.0024400000000001087,-0.03417999999999999,0.4650000000000001,-0.19500000000000006,0.07499999999999996,0.002080000000000082,0.00878000000000001,0.027700000000000058,1742249762.691484
0.4950000000000001,0.030000000000000027,0.10499999999999998,0.04614000000000007,-0.016720000000000068,-0.04601999999999995,0.4650000000000001,-0.17000000000000004,0.08000000000000007,0.03283999999999998,-0.01855999999999991,0.04590000000000005,1742249762.80465
0.44999999999999996,-0.015000000000000013,0.125,0.06054000000000004,-0.007440000000000002,-0.05479999999999996,0.45999999999999996,-0.13,0.08499999999999996,0.02222000000000013,-0.04271999999999998,0.024780000000000024,1742249762.918612
0.44999999999999996,-0.050000000000000044,0.1299999999999999,0.03222000000000014,0.022580000000000044,-0.0022000000000000908,0.44500000000000006,-0.10999999999999999,0.09000000000000008,0.02526000000000006,-0.07775999999999994,-0.00048000000000003595,1742249763.032686
0.45500000000000007,-0.10999999999999999,0.11499999999999999,0.09814000000000012,0.0039000000000000146,-0.02415999999999996,0.43999999999999995,-0.12,0.17500000000000004,0.012460000000000138,-0.08326,-0.019279999999999964,1742249763.146681
0.4849999999999999,-0.09999999999999998,0.10499999999999998,0.006340000000000012,0.017819999999999947,0.009279999999999955,0.43500000000000005,-0.15000000000000002,0.19999999999999996,0.03210000000000002,-0.016000000000000014,-0.03308,1742249763.2629151
0.4950000000000001,-0.07499999999999996,0.10000000000000009,-0.00660000000000005,0.017819999999999947,0.04527999999999999,0.41999999999999993,-0.17000000000000004,0.15500000000000003,0.015740000000000087,-0.012820000000000054,-0.04418,1742249763.374719
0.4950000000000001,-0.025000000000000022,0.07000000000000006,-0.00537999999999994,0.00770000000000004,0.06909999999999994,0.41999999999999993,-0.22999999999999998,0.17500000000000004,0.007200000000000095,-0.005120000000000013,-0.03967999999999994,1742249763.4887328
0.52,0.030000000000000027,0.09000000000000008,-0.00770000000000004,0.03222000000000014,0.036739999999999995,0.41999999999999993,-0.26,0.22999999999999998,0.02635999999999994,0.005980000000000096,-0.031379999999999963,1742249763.6031392
0.52,0.02499999999999991,0.06000000000000005,-0.015139999999999931,-0.025399999999999978,0.007440000000000113,0.42500000000000004,-0.245,0.17500000000000004,0.00011999999999989797,0.010499999999999954,0.010380000000000056,1742249763.716531
0.5,0.004999999999999893,0.04499999999999993,-0.005120000000000013,-0.006840000000000068,-0.009279999999999955,0.42500000000000004,-0.21499999999999997,0.15999999999999992,-0.0032999999999999696,0.011600000000000055,0.007079999999999975,1742249763.829654
0.48,-0.010000000000000009,0.05499999999999994,-0.0023200000000000998,-0.010000000000000009,-0.0031799999999999606,0.41999999999999993,-0.21999999999999997,0.14500000000000002,0.006099999999999994,0.014520000000000088,0.00048000000000003595,1742249763.9434571
0.4950000000000001,0.010000000000000009,0.06499999999999995,0.0048799999999999955,-0.0013400000000000079,-0.0030599999999999516,0.41999999999999993,-0.21999999999999997,0.14000000000000012,0.0015800000000001369,0.00770000000000004,0.010499999999999954,1742249764.056559
0.4950000000000001,-0.010000000000000009,0.07000000000000006,0.0030599999999998406,-0.0050000000000000044,-0.014639999999999986,0.42500000000000004,-0.20499999999999996,0.14500000000000002,0.0021999999999999797,0.006099999999999994,0.015859999999999985,1742249764.169528
0.49,-0.025000000000000022,0.07000000000000006,0.0027999999999999137,0.0037799999999998946,-0.016000000000000014,0.42500000000000004,-0.19500000000000006,0.1299999999999999,0.0008600000000000829,0.012700000000000156,0.011239999999999917,1742249764.283766
0.48,-0.03500000000000003,0.08000000000000007,-0.0036599999999999966,0.0026800000000000157,-0.005979999999999985,0.44999999999999996,-0.19999999999999996,0.1200000000000001,-0.01648000000000005,0.0042800000000000615,0.0037799999999998946,1742249764.395627
0.4950000000000001,-0.04500000000000004,0.08000000000000007,-0.04027999999999998,0.031119999999999814,-0.006220000000000003,0.41999999999999993,-0.21499999999999997,0.14000000000000012,-0.08068000000000008,0.021479999999999944,-0.006099999999999994,1742249764.5096252
0.51,-0.015000000000000013,0.02499999999999991,-0.13672000000000006,0.03394000000000008,0.0024399999999999977,0.43500000000000005,-0.18999999999999995,0.15500000000000003,-0.10631999999999997,0.07347999999999999,-0.02648000000000006,1742249764.625033
0.5049999999999999,0.0,0.030000000000000027,-0.12890000000000001,0.0017000000000000348,0.03222000000000014,0.44999999999999996,-0.16000000000000003,0.1299999999999999,-0.02307999999999999,0.02210000000000001,0.0018400000000000638,1742249764.7375228
0.5049999999999999,-0.0050000000000000044,0.050000000000000044,-0.017220000000000013,0.0,0.0047600000000000975,0.44999999999999996,-0.17999999999999994,0.1200000000000001,-0.02942,0.018440000000000012,-0.00036000000000002697,1742249764.851613
0.4849999999999999,0.004999999999999893,0.050000000000000044,-0.05565999999999993,0.006099999999999994,-0.010000000000000009,0.43999999999999995,-0.19500000000000006,0.125,-0.048820000000000086,0.012939999999999952,-0.00024000000000001798,1742249764.9656162
0.5,-0.010000000000000009,0.04499999999999993,-0.09777999999999998,0.016119999999999912,-0.01317999999999997,0.45999999999999996,-0.17000000000000004,0.1200000000000001,-0.11803999999999992,0.035760000000000014,-0.031000000000000028,1742249765.083245
0.5,0.004999999999999893,0.03499999999999992,-0.10997999999999997,0.022340000000000027,0.02222000000000013,0.4750000000000001,-0.14500000000000002,0.135,-0.040039999999999965,0.006220000000000114,-0.01317999999999997,1742249765.193603
0.51,-0.0050000000000000044,0.014999999999999902,-0.011840000000000073,0.016839999999999966,0.012580000000000036,0.45500000000000007,-0.17500000000000004,0.1299999999999999,-0.017820000000000058,0.01648000000000005,-0.005859999999999976,1742249765.307648
0.4950000000000001,0.020000000000000018,0.02499999999999991,-0.008919999999999928,-0.0006199999999999539,0.00035999999999991594,0.43999999999999995,-0.17500000000000004,0.125,-0.028200000000000003,0.012939999999999952,0.012580000000000036,1742249765.422637
0.49,0.010000000000000009,0.030000000000000027,-0.026980000000000004,-0.0027999999999999137,-0.01415999999999995,0.44500000000000006,-0.17000000000000004,0.125,-0.05065999999999993,-0.0027999999999999137,0.011840000000000073,1742249765.535604
0.5,0.004999999999999893,0.030000000000000027,-0.06237999999999999,0.012580000000000036,-0.013539999999999996,0.4650000000000001,-0.14,0.125,-0.08165999999999995,-0.0027999999999999137,-0.00048000000000003595,1742249765.649704
0.4950000000000001,0.014999999999999902,0.014999999999999902,-0.0549400000000001,0.04064000000000001,-0.021720000000000073,0.45999999999999996,-0.10999999999999999,0.15500000000000003,-0.035519999999999996,-0.04137999999999997,0.0035399999999998766,1742249765.763693
0.5,-0.015000000000000013,-0.0050000000000000044,0.020499999999999963,0.02942,-0.019039999999999946,0.44500000000000006,-0.13,0.18999999999999995,-0.033320000000000016,-0.039919999999999956,0.0006200000000000649,1742249765.877614
0.4950000000000001,-0.015000000000000013,-0.020000000000000018,-0.0017000000000000348,0.024660000000000126,-0.01525999999999994,0.42999999999999994,-0.125,0.19999999999999996,-0.021720000000000073,-0.04822000000000004,-0.0042799999999999505,1742249765.991623
0.49,-0.025000000000000022,-0.03500000000000003,0.006839999999999957,0.041380000000000194,-0.012820000000000054,0.41999999999999993,-0.11499999999999999,0.23499999999999988,-0.009279999999999955,-0.0650599999999999,-0.011720000000000064,1742249766.105797
0.5,-0.025000000000000022,-0.06000000000000005,-0.0023200000000000998,0.035519999999999996,-0.0037800000000000056,0.42500000000000004,-0.09999999999999998,0.2650000000000001,0.03625999999999996,-0.09277999999999997,-0.011240000000000028,1742249766.222445
0.4849999999999999,-0.010000000000000009,-0.08499999999999996,0.0650599999999999,0.04908000000000001,-0.009399999999999964,0.375,-0.14500000000000002,0.29000000000000004,0.14561999999999986,-0.11036000000000001,0.03807999999999989,1742249766.33342
0.45500000000000007,-0.025000000000000022,-0.12,0.17003999999999997,0.04516000000000009,-0.048820000000000086,0.3400000000000001,-0.19500000000000006,0.29499999999999993,0.1177999999999999,-0.08240000000000003,0.02868000000000004,1742249766.447387
0.48,-0.03500000000000003,-0.13,0.10046,0.01855999999999991,0.0036599999999999966,0.33499999999999996,-0.19999999999999996,0.31000000000000005,0.036739999999999995,-0.028200000000000003,0.008539999999999992,1742249766.563201
0.48,-0.020000000000000018,-0.13,0.012820000000000054,0.009879999999999889,0.005120000000000013,0.3400000000000001,-0.19500000000000006,0.30000000000000004,0.040159999999999973,-0.010499999999999954,-0.011840000000000073,1742249766.674538
0.48,-0.0050000000000000044,-0.135,0.02185999999999999,0.009640000000000093,0.011479999999999935,0.33499999999999996,-0.20999999999999996,0.30499999999999994,-0.0007399999999999629,0.00011999999999989797,-0.00782000000000005,1742249766.788516
0.49,0.010000000000000009,-0.135,0.0043999999999999595,0.0024399999999999977,0.0008600000000000829,0.33499999999999996,-0.20499999999999996,0.31000000000000005,0.0031799999999999606,0.00011999999999989797,-0.0022000000000000908,1742249766.903734
0.4849999999999999,0.004999999999999893,-0.135,0.006220000000000114,-0.008660000000000001,0.0015800000000001369,0.33000000000000007,-0.20999999999999996,0.30000000000000004,0.0021999999999999797,0.005980000000000096,-0.0015800000000000258,1742249767.016385
0.48,0.010000000000000009,-0.125,0.00865999999999989,-0.019399999999999973,0.002080000000000082,0.3400000000000001,-0.20499999999999996,0.30000000000000004,0.01195999999999997,0.010739999999999972,0.005239999999999911,1742249767.130335
0.4849999999999999,0.010000000000000009,-0.12,0.019160000000000066,-0.018919999999999937,-0.0012199999999999989,0.345,-0.20999999999999996,0.29000000000000004,0.006220000000000114,0.011239999999999917,-0.002080000000000082,1742249767.243387
0.49,0.014999999999999902,-0.09999999999999998,0.008419999999999872,-0.019540000000000002,0.006599999999999939,0.345,-0.20999999999999996,0.2849999999999999,0.0018400000000000638,0.0030599999999998406,0.0025599999999998957,1742249767.357328
0.4849999999999999,0.014999999999999902,-0.09999999999999998,0.0043999999999999595,-0.005739999999999967,-0.00024000000000001798,0.345,-0.20999999999999996,0.29000000000000004,0.0008600000000000829,0.008920000000000039,0.0029200000000000337,1742249767.470303
0.4849999999999999,0.014999999999999902,-0.09999999999999998,-0.00024000000000001798,-0.010140000000000038,-0.0006199999999999539,0.3500000000000001,-0.20999999999999996,0.2849999999999999,0.006099999999999994,0.010000000000000009,0.007440000000000113,1742249767.5833118
0.5049999999999999,0.02499999999999991,-0.10499999999999998,0.02929999999999988,-0.02844000000000002,-0.016240000000000032,0.3599999999999999,-0.20999999999999996,0.2749999999999999,0.06800000000000006,0.04272000000000009,0.05090000000000017,1742249767.696279
0.5,-0.015000000000000013,-0.07000000000000006,0.04039999999999999,-0.06286000000000003,-0.013419999999999987,0.395,-0.20499999999999996,0.24,0.029059999999999864,0.02222000000000013,0.016839999999999966,1742249767.809358
0.49,0.0,-0.030000000000000027,0.014040000000000052,-0.029059999999999975,-0.0043999999999999595,0.3799999999999999,-0.19999999999999996,0.23499999999999988,0.010860000000000092,0.0036599999999999966,0.008179999999999854,1742249767.9231849
0.4950000000000001,0.0,-0.03500000000000003,0.01208000000000009,-0.01966000000000001,-0.005979999999999985,0.385,-0.20499999999999996,0.22999999999999998,0.01758000000000015,0.01415999999999995,0.012700000000000156,1742249768.035363
0.4950000000000001,-0.0050000000000000044,-0.015000000000000013,0.024660000000000126,-0.03173999999999999,-0.010379999999999945,0.3999999999999999,-0.19500000000000006,0.21500000000000008,0.022340000000000027,0.018179999999999863,0.025640000000000107,1742249768.1483011
0.51,-0.0050000000000000044,-0.0050000000000000044,0.047719999999999985,-0.05737999999999999,-0.02088000000000001,0.41500000000000004,-0.18500000000000005,0.17999999999999994,0.07678000000000007,0.05371999999999999,0.05274000000000001,1742249768.2624068
0.5,-0.025000000000000022,0.030000000000000027,0.06884000000000001,-0.08911999999999998,-0.03394000000000008,0.4849999999999999,-0.21499999999999997,0.15500000000000003,0.046640000000000015,0.020140000000000047,0.038819999999999855,1742249768.375343
0.5049999999999999,-0.03500000000000003,0.08499999999999996,0.011719999999999953,-0.06396000000000002,-0.020259999999999945,0.44999999999999996,-0.18999999999999995,0.1299999999999999,0.0048799999999999955,0.03283999999999998,0.015619999999999967,1742249768.488444
0.48,-0.025000000000000022,0.10000000000000009,0.007079999999999975,-0.02061999999999997,-0.02415999999999996,0.44500000000000006,-0.16500000000000004,0.1299999999999999,0.006220000000000114,-0.00537999999999994,0.010259999999999936,1742249768.6032152
0.47,-0.05500000000000005,0.1100000000000001,0.014639999999999986,-0.020019999999999927,-0.014780000000000015,0.43999999999999995,-0.17000000000000004,0.125,0.0017000000000000348,0.015740000000000087,0.0,1742249768.716307
0.4750000000000001,-0.040000000000000036,0.10499999999999998,-0.0013400000000000079,0.015740000000000087,-0.021720000000000073,0.44999999999999996,-0.17500000000000004,0.11499999999999999,-0.022460000000000035,0.007940000000000058,0.022460000000000147,1742249768.829443
0.4849999999999999,-0.06499999999999995,0.09000000000000008,-0.043340000000000045,0.023560000000000025,-0.04467999999999994,0.4849999999999999,-0.11499999999999999,0.14000000000000012,-0.02294000000000007,-0.0042799999999999505,0.04200000000000004,1742249768.94338
0.49,-0.10999999999999999,0.08499999999999996,0.02635999999999994,0.020259999999999945,-0.04382000000000008,0.45999999999999996,-0.10499999999999998,0.14500000000000002,0.030399999999999983,-0.019399999999999973,0.020620000000000083,1742249769.057312
0.4750000000000001,-0.13,0.07499999999999996,-0.0009799999999999809,-0.01648000000000005,-0.002080000000000082,0.45999999999999996,-0.10499999999999998,0.15500000000000003,0.008539999999999992,0.010000000000000009,0.0043999999999999595,1742249769.171318
0.47,-0.12,0.09000000000000008,0.011600000000000055,-0.0075599999999999,0.016119999999999912,0.4650000000000001,-0.10499999999999998,0.1299999999999999,0.041260000000000074,-0.00048000000000003595,-0.024540000000000006,1742249769.285399
0.48,-0.09499999999999997,0.08000000000000007,0.02624000000000004,-0.010619999999999963,0.03320000000000012,0.44999999999999996,-0.15500000000000003,0.125,0.01537999999999995,0.0015800000000001369,-0.011840000000000073,1742249769.4010649
0.4849999999999999,-0.07499999999999996,0.08499999999999996,-0.0006199999999999539,-0.011360000000000037,0.007440000000000113,0.45500000000000007,-0.15500000000000003,0.125,0.0006200000000000649,0.006960000000000077,-0.0012199999999999989,1742249769.513304
0.4849999999999999,-0.07999999999999996,0.09499999999999997,-0.00036000000000002697,0.005120000000000013,-0.0022000000000000908,0.45999999999999996,-0.135,0.1299999999999999,0.0015800000000001369,-0.0022000000000000908,0.0031799999999999606,1742249769.627337
0.48,-0.08999999999999997,0.09000000000000008,-0.0010999999999999899,-0.007940000000000058,0.0040199999999999125,0.45500000000000007,-0.14,0.1200000000000001,-0.0006199999999999539,0.0042800000000000615,-0.0008599999999999719,1742249769.7429602
0.48,-0.07499999999999996,0.09000000000000008,-0.0041599999999999415,0.0047600000000000975,-0.0036599999999999966,0.45500000000000007,-0.14500000000000002,0.1200000000000001,-0.007200000000000095,0.0030599999999998406,0.004999999999999893,1742249769.8553011
0.4849999999999999,-0.08499999999999996,0.08499999999999996,-0.008179999999999965,0.0036599999999999966,-0.00770000000000004,0.47,-0.13,0.125,-0.0042799999999999505,0.0034199999999999786,0.0035399999999998766,1742249769.969358
0.4849999999999999,-0.09499999999999997,0.09000000000000008,-0.007080000000000086,0.004999999999999893,0.0034199999999999786,0.45999999999999996,-0.135,0.1200000000000001,-0.0042799999999999505,-0.0007399999999999629,-0.012820000000000054,1742249770.08353
0.49,-0.06499999999999995,0.07000000000000006,0.009640000000000093,0.025880000000000125,0.018320000000000114,0.44999999999999996,-0.16000000000000003,0.135,-0.0034199999999999786,-0.001960000000000073,-0.0075599999999999,1742249770.197461
0.5049999999999999,-0.07000000000000006,0.08000000000000007,0.0027999999999999137,-0.03846000000000005,0.010620000000000074,0.4650000000000001,-0.15500000000000003,0.1200000000000001,-0.005859999999999976,0.02210000000000001,-0.0075599999999999,1742249770.311445
0.4849999999999999,-0.06499999999999995,0.10000000000000009,-0.018440000000000012,-0.03320000000000001,0.009879999999999889,0.45999999999999996,-0.135,0.10499999999999998,0.006460000000000132,0.017819999999999947,-0.0022000000000000908,1742249770.42527
0.4650000000000001,-0.06000000000000005,0.125,-0.0031799999999999606,-0.030019999999999936,0.020140000000000047,0.45500000000000007,-0.15500000000000003,0.08000000000000007,0.009039999999999937,0.009519999999999973,-0.006840000000000068,1742249770.54291
0.47,-0.04500000000000004,0.135,0.00035999999999991594,0.0041599999999999415,0.010140000000000038,0.45999999999999996,-0.16500000000000004,0.09499999999999997,-0.0036599999999999966,-0.010739999999999972,-0.0045199999999999685,1742249770.6534872
0.49,-0.040000000000000036,0.10499999999999998,0.0006200000000000649,0.016599999999999948,-0.0041599999999999415,0.44999999999999996,-0.16500000000000004,0.11499999999999999,-0.0024400000000001087,-0.0039000000000000146,0.006220000000000114,1742249770.767354
0.4849999999999999,-0.06000000000000005,0.10499999999999998,0.005740000000000078,-0.0075599999999999,-0.008539999999999992,0.45500000000000007,-0.14,0.10000000000000009,0.00024000000000001798,0.005859999999999976,0.0014600000000000168,1742249770.883876
0.48,-0.06000000000000005,0.1200000000000001,0.0023200000000000998,-0.010499999999999954,0.010000000000000009,0.47,-0.15500000000000003,0.10000000000000009,0.00782000000000016,0.0037799999999998946,-0.005979999999999985,1742249770.994387
0.4849999999999999,-0.04500000000000004,0.125,0.004999999999999893,-0.0014600000000000168,0.006960000000000077,0.45999999999999996,-0.16000000000000003,0.10000000000000009,0.0026800000000000157,0.0006200000000000649,0.0014600000000000168,1742249771.1080818
0.48,-0.04500000000000004,0.11499999999999999,-0.0012199999999999989,0.0012199999999999989,0.0017000000000000348,0.45500000000000007,-0.15000000000000002,0.10499999999999998,0.006099999999999994,0.001100000000000101,0.0008600000000000829,1742249771.222356
0.4750000000000001,-0.050000000000000044,0.1200000000000001,0.0029200000000000337,-0.008660000000000001,0.008179999999999854,0.45999999999999996,-0.15500000000000003,0.08499999999999996,0.006340000000000012,-0.00537999999999994,-0.009399999999999964,1742249771.334364
0.48,-0.040000000000000036,0.1299999999999999,0.007200000000000095,0.0025599999999998957,0.013539999999999885,0.45999999999999996,-0.16000000000000003,0.1100000000000001,0.006220000000000114,-0.010499999999999954,-0.00782000000000005,1742249771.448413
0.49,-0.040000000000000036,0.11499999999999999,0.007440000000000113,0.0039000000000000146,0.011719999999999953,0.45999999999999996,-0.17000000000000004,0.10499999999999998,0.009279999999999955,-0.0048799999999999955,-0.0040200000000000236,1742249771.5637062
0.48,-0.030000000000000027,0.1100000000000001,0.007079999999999975,0.010140000000000038,0.006599999999999939,0.44999999999999996,-0.17000000000000004,0.1100000000000001,0.0030599999999998406,-0.008179999999999965,-0.0024400000000001087,1742249771.676339
0.49,-0.030000000000000027,0.10000000000000009,0.0029200000000000337,0.006340000000000012,0.0018400000000000638,0.45999999999999996,-0.17000000000000004,0.1100000000000001,0.0014600000000000168,0.0018400000000000638,-0.0008599999999999719,1742249771.7902458
0.4849999999999999,-0.040000000000000036,0.1200000000000001,-0.010499999999999954,-0.0025599999999998957,0.007940000000000058,0.45500000000000007,-0.16000000000000003,0.10499999999999998,-0.018440000000000012,-0.00024000000000001798,-0.008919999999999928,1742249771.904382
0.49,-0.025000000000000022,0.10000000000000009,-0.0025599999999998957,0.0043999999999999595,0.019039999999999946,0.45500000000000007,-0.17500000000000004,0.11499999999999999,-0.0047599999999999865,-0.0031799999999999606,-0.010619999999999963,1742249772.018412
