L-AccX,L-AccY,L-AccZ,L-GyrX,L-GyrY,L-GyrZ,R-AccX,R-AccY,R-AccZ,R-GyrX,R-GyrY,R-GyrZ,timestamp,user
0.025,0.01125,0.08,-0.0013575,-0.019897498,0.0038299998,0.02375,0.0025,0.12375,0.0001975,0.0042425,0.0039375,1742110719.199669,user_1
-0.0075,0.00875,0.16125,-0.0065925,0.00029,-0.003235,0.03125,0.00125,0.1175,0.000275,0.004195,0.0030675002,1742110719.315876,user_1
0.03625,0.0025,0.1025,0.00174,0.03981,-0.002135,0.03375,0.0025,0.11875,7.75e-05,0.0009925,0.0030975002,1742110719.427662,user_1
0.0475,0.01,0.0675,0.0066075,-0.0410775,0.0104975,0.03375,0.00125,0.12625,-0.00052,0.0033875,0.0034475,1742110719.541554,user_1
-0.02375,0.0175,0.18875,0.0006725,0.033919998,-0.007385,0.03875,0.0075,0.11375,-0.0006875,0.0032950002,0.0019675,1742110719.655684,user_1
0.04625,-0.00125,0.07875,-0.002395,0.023909999,-0.0016175,0.03875,0.00375,0.115,-0.00079250004,-0.0022725,-0.00055,1742110719.769852,user_1
0.025,0.0075,0.1,0.0063475,-0.0623625,0.0079499995,0.0375,0.0025,0.125,0.00029,0.000945,0.0007625,1742110719.883609,user_1
0.015,0.005,0.155,-0.0005025,0.037657503,-0.0047150003,0.0375,0.0075,0.11625,0.000365,0.00061,0.00029,1742110719.997804,user_1
0.05125,0.0025,0.06875,0.0007625,-0.0043025,0.0021975,0.0375,0.0,0.1225,4.5e-05,-0.000855,0.00059500005,1742110720.115673,user_1
-0.0325,0.0125,0.1675,0.006715,-0.0493,0.0051574996,0.04,0.00625,0.11875,0.0005025,0.00171,0.00064,1742110720.225725,user_1
0.03,0.00375,0.11875,-0.003235,0.0508725,-0.00917,0.04,0.005,0.11375,0.0009,-0.000625,-0.0004725,1742110720.339623,user_1
0.055,0.00375,0.06,0.0013875001,-0.02539,0.00708,0.0375,0.00125,0.12625,0.0003975,-0.0008075,0.00058,1742110720.455371,user_1
-0.04875,0.03375,0.195,0.0003825,0.0066525,-0.0051125004,0.04,0.005,0.1175,-0.00045750002,0.0007475,0.00048750002,1742110720.566574,user_1
0.04875,0.0025,0.1,-0.00415,0.044907503,-0.0101025,0.04,0.00125,0.11375,0.00091500004,-0.002,-0.0001975,1742110720.680612,user_1
0.05375,0.0075,0.075,0.0013725,-0.0383,0.009385,0.035,0.00125,0.1275,0.00033500002,0.00035,0.001435,1742110720.795701,user_1
-0.05375,0.02875,0.19125,0.00354,0.026,-0.00763,0.0375,0.005,0.11625,-4.5e-05,0.00087,0.0007475,1742110720.907607,user_1
0.0475,-0.0025,0.09875,0.00177,0.05809,-0.0107425,0.04,0.00125,0.115,0.0007775,-0.001435,-0.00035,1742110721.021788,user_1
0.06125,0.00875,0.06625,0.0025475,-0.057724997,0.0123149995,0.035,0.00125,0.1275,-0.000107500004,0.00093,0.00055,1742110721.136111,user_1
-0.02625,0.0225,0.19875,0.0016325001,0.046325002,-0.0061025,0.0375,0.0025,0.11625,-0.00052,0.0007025,0.0004725,1742110721.2486348,user_1
0.06375,-0.0025,0.0625,-0.0022425,0.02481,-0.0012825,0.04,0.00125,0.1175,0.0001825,-0.0015575,-0.0002125,1742110721.362713,user_1
0.01125,0.00875,0.09375,0.009582501,-0.094695,0.0148775,0.03625,0.00375,0.12375,-0.0001225,0.0018925001,0.00016750001,1742110721.476901,user_1
-0.01625,0.01375,0.17375,-0.0042875,0.051909998,-0.006775,0.03625,0.00625,0.11625,-0.00029,0.0007025,-3e-05,1742110721.5897238,user_1
0.0675,-0.00625,0.055,0.0046375,0.02777,-0.0018625,0.03875,0.00125,0.12375,-0.0005025,-0.0010075001,0.0001375,1742110721.703694,user_1
0.02,0.0125,0.07875,0.0054775,-0.100889996,0.017959999,0.04,0.00375,0.1175,-0.0002125,0.00154,0.0004725,1742110721.817493,user_1
-0.02875,0.01375,0.19,-0.0018775001,0.036330003,-0.00821,0.03625,0.00625,0.1175,-0.00045750002,-1.5e-05,0.0,1742110721.935748,user_1
0.055,0.0025,0.07125,0.0048975,0.0293875,-0.001725,0.04,0.0025,0.12125,-0.00048750002,-0.00154,-0.00033500002,1742110722.0446029,user_1
0.02625,0.005,0.075,0.0013725,-0.089645,0.01799,0.04,0.0075,0.1175,-9.25e-05,0.0016625,0.00023,1742110722.158493,user_1
-0.00375,0.0025,0.18,0.00177,0.062485002,-0.006805,0.03625,0.00625,0.1175,-0.00035,9.25e-05,9.25e-05,1742110722.276559,user_1
0.0575,0.00875,0.05875,-0.002655,-0.0040749996,0.0030825,0.04,0.00375,0.1225,-0.00087,-0.0024875,0.0,1742110722.38551,user_1
-0.02625,0.01375,0.13875,-0.0018925001,-0.0615225,0.00534,0.04,0.00875,0.11875,-3e-05,0.001465,0.0001375,1742110722.498664,user_1
0.01125,0.005,0.14125,-0.000625,0.0733025,-0.010452501,0.03875,0.0075,0.11375,0.0008075,0.000275,-0.0001975,1742110722.616805,user_1
0.06,0.01,0.05875,0.0027474998,-0.0140525,0.0032950002,0.03625,0.005,0.1275,-3e-05,-0.0005025,0.0006875,1742110722.726484,user_1
-0.01875,0.03,0.155,-0.007735,-0.02803,-0.0019525,0.04,0.00625,0.11625,-0.0001375,0.001145,0.0,1742110722.839712,user_1
0.02875,-0.0,0.13375,0.00319,0.0608675,-0.0110025,0.03875,0.00625,0.11625,0.000885,-0.00079250004,4.5e-05,1742110722.956577,user_1
0.06125,0.00375,0.05625,0.0016775,-0.0225375,0.0072625,0.0375,0.005,0.12625,-0.0003975,7.75e-05,0.0002125,1742110723.067431,user_1
-0.05375,0.02875,0.175,0.0018775001,-0.042115003,0.0031275,0.04125,0.00625,0.115,-0.00023,0.000825,0.0002125,1742110723.1805289,user_1
0.0175,0.00125,0.12625,-0.001525,0.066787496,-0.012635,0.03875,0.0075,0.11625,0.0007025,-0.000655,-0.00033500002,1742110723.297164,user_1
0.0575,0.005,0.06625,0.0016175,-0.0178375,0.0045475,0.03625,0.005,0.1275,0.0,-0.000245,0.00061,1742110723.408663,user_1
-0.04375,0.02125,0.1725,0.0027625,-0.0367425,0.00293,0.04,0.00625,0.11625,-0.00023,0.00084,-0.0001225,1742110723.522539,user_1
0.0075,0.01,0.14,-0.002075,0.08017,-0.015855,0.04,0.0075,0.1125,0.001115,-0.00029,-4.5e-05,1742110723.637451,user_1
0.06625,0.00125,0.055,0.00016750001,-0.0149375,0.0038,0.03625,0.005,0.12875,-0.000565,-0.00029,0.0004725,1742110723.749673,user_1
-0.045,0.0275,0.17625,0.00328,-0.0202625,9.25e-05,0.04,0.0075,0.115,-0.0007025,0.0010225,-0.000107500004,1742110723.86355,user_1
0.04375,0.00125,0.1025,-0.011735,0.0508575,-0.013595,0.04,0.00875,0.1125,0.0013575,-0.000655,-0.000305,1742110723.97834,user_1
0.045,-0.00375,0.06625,0.00299,-0.054535,0.0116275,0.035,0.005,0.13,-0.0004275,-0.000565,0.0007025,1742110724.097437,user_1
-0.0775,0.04375,0.1875,0.0057825,0.0072625,-0.0052024997,0.03875,0.0075,0.11625,-0.00045750002,0.0007325,-1.5e-05,1742110724.20557,user_1
0.03375,0.00125,0.08875,-0.0012675,0.063445,-0.0148475,0.04125,0.0075,0.11375,0.0012050001,-0.0013425,-0.0001375,1742110724.319552,user_1
0.05875,0.00125,0.07,0.000625,-0.03415,0.0081625,0.035,0.00625,0.1275,0.0,0.0010675,0.0007325,1742110724.4370198,user_1
-0.0225,0.03,0.185,0.00059500005,0.01973,-0.0076,0.03875,0.0075,0.11625,-0.00055,0.0001975,-0.000107500004,1742110724.546551,user_1
0.0525,-0.00125,0.08,-0.0018,0.022385,-0.0019075,0.04,0.00625,0.11625,0.000825,-0.0010525,-0.0001825,1742110724.660668,user_1
0.02625,0.00125,0.08875,0.00502,-0.07409751,0.015197501,0.03625,0.00875,0.12375,0.00029,0.001405,0.000107500004,1742110724.7781498,user_1
-0.00625,0.00625,0.1725,0.003005,0.036225,-0.0036475,0.03625,0.00875,0.1175,-0.0001225,1.5e-05,-0.000107500004,1742110724.8875551,user_1
0.0575,-0.00875,0.06875,-0.0021525,0.0154425,-0.00232,0.04,0.005,0.12125,-6e-05,-0.0016925,-0.00023,1742110725.001771,user_1
0.005,0.01,0.11375,0.0039975,-0.081177495,0.0169525,0.0375,0.01,0.12125,-0.00033500002,0.0016325001,-1.5e-05,1742110725.118253,user_1
0.0025,0.00125,0.16875,-0.0024425,0.053404998,-0.0056149997,0.03625,0.00875,0.11625,0.0002125,-0.0001225,4.5e-05,1742110725.229481,user_1
0.055,-0.0,0.06125,-0.002365,0.0003825,-0.0008075,0.03875,0.00375,0.12375,-0.00032,-0.0018475,0.00023,1742110725.343745,user_1
-0.01625,0.01,0.14625,0.0016925,-0.05513,0.00969,0.03875,0.01,0.11875,-4.5e-05,0.0016175,-6e-05,1742110725.458378,user_1
0.02625,-0.00625,0.13375,-0.005585,0.0511775,-0.0093525,0.0375,0.00875,0.11375,0.0005025,-1.5e-05,-0.00026,1742110725.577726,user_1
0.05875,-0.00875,0.0625,0.00496,-0.0060125,0.0003825,0.035,0.005,0.1275,6e-05,-0.000655,0.00052,1742110725.685558,user_1
-0.01625,-0.0025,0.13875,0.0033875,-0.0478825,0.0075375,0.03875,0.00875,0.1175,1.5e-05,0.0004125,-0.000275,1742110725.7996778,user_1
0.025,-0.0075,0.1275,-0.006775,0.026,-0.0025175,0.0375,0.0075,0.115,0.0009,-6e-05,-0.000305,1742110725.91821,user_1
0.03375,-0.005,0.0875,3e-05,-0.0275875,0.0024100002,0.035,0.005,0.1275,-0.000107500004,-0.0004425,0.00029,1742110726.027592,user_1
-0.04375,0.01375,0.1675,0.0057525,-0.01181,0.00296,0.03875,0.00875,0.11625,-0.0001525,0.00029,-0.00023,1742110726.141616,user_1
0.0275,-0.0025,0.10625,-0.0021975,0.0475625,-0.006455,0.0375,0.0075,0.1175,0.000825,-0.0001975,-0.0001375,1742110726.259021,user_1
0.03875,-0.005,0.07875,0.0024575,-0.0378575,0.0063024997,0.035,0.00625,0.12625,0.00026,0.0003975,0.0003825,1742110726.369592,user_1
-0.0475,0.03625,0.18125,-0.00319,0.009902501,-0.0051275003,0.0375,0.0075,0.1175,-0.0001975,-7.75e-05,-0.0001975,1742110726.483688,user_1
0.04375,-0.00375,0.08875,4.5e-05,0.0364075,-0.005065,0.04125,0.005,0.115,0.0001525,-0.0007775,-0.0002125,1742110726.598967,user_1
0.03,-0.00875,0.06625,-0.0007475,-0.0673225,0.0117025,0.035,0.0075,0.12375,-0.00026,0.001145,0.0004425,1742110726.7191,user_1
-0.02375,0.005,0.1875,0.0068825004,0.042357497,-0.0018925001,0.03625,0.00625,0.11875,-0.0010075001,0.000275,-0.0003825,1742110726.8256052,user_1
0.05625,-0.005,0.07375,0.0046075,0.0292675,-0.0045175,0.04125,0.005,0.1175,-0.000107500004,-0.001115,-1.5e-05,1742110726.939571,user_1
0.01875,-0.005,0.0725,-0.001175,-0.077775,0.017409999,0.0375,0.01,0.12125,-0.0002125,0.0012975,0.0001825,1742110727.053597,user_1
-0.04375,0.00875,0.19375,0.0028525,0.043275002,-0.00554,0.035,0.0075,0.11875,-0.000855,0.00016750001,1.5e-05,1742110727.167567,user_1
0.055,-0.01125,0.0675,0.002685,0.0322275,-0.00293,0.0425,0.0075,0.11625,-4.5e-05,-0.001785,-0.0002125,1742110727.281522,user_1
-0.00875,-0.0,0.08375,-0.007675,-0.1018525,0.012925,0.0375,0.01,0.12125,-7.75e-05,0.0010375,9.25e-05,1742110727.399276,user_1
-0.0325,-0.0,0.1775,0.0036624998,0.0685425,-0.00537,0.035,0.00875,0.11875,-0.000245,0.00048750002,-0.0001825,1742110727.509616,user_1
0.05625,0.0,0.07,0.0065300004,0.0272675,-0.0019525,0.04125,0.005,0.11875,-0.0001975,-0.001785,3e-05,1742110727.623483,user_1
0.01375,-0.00375,0.08125,-0.003585,-0.089797504,0.0137625,0.03875,0.01,0.12,1.5e-05,0.0010225,-3e-05,1742110727.739935,user_1
-0.03125,0.00625,0.1825,0.0057825,0.050950002,-0.00113,0.035,0.005,0.12,-0.00045750002,0.000305,9.25e-05,1742110727.859497,user_1
0.06125,-0.005,0.06,0.0018775001,0.0172425,-0.0003975,0.04,0.0075,0.1175,0.0001825,-0.0016625,-0.0001225,1742110727.9645498,user_1
0.0075,0.00875,0.0875,0.0005025,-0.093872495,0.008255,0.0375,0.00875,0.12,0.0001225,0.0012975,-3e-05,1742110728.079176,user_1
-0.0225,0.00125,0.18,0.0021675,0.0550375,-0.008909999,0.035,0.00875,0.11875,4.5e-05,6e-05,-6e-05,1742110728.199892,user_1
0.0575,-0.00625,0.06375,0.0049274997,0.013625,0.0022725,0.03875,0.005,0.12125,-0.00045750002,-0.0015725,-3e-05,1742110728.305386,user_1
0.015,0.01375,0.10125,0.00798,-0.072555,0.008880001,0.03875,0.01125,0.11625,6e-05,0.001525,-0.000245,1742110728.4197912,user_1
-0.0075,0.00125,0.17375,-0.0068975003,0.0632025,-0.014085,0.03625,0.00625,0.11875,-1.5e-05,0.0001975,0.00059500005,1742110728.5325592,user_1
0.06125,-0.01125,0.0675,0.005065,0.016602501,-0.0018300001,0.04,0.00875,0.11875,-6e-05,-0.0012050001,0.000107500004,1742110728.6466198,user_1
0.02875,0.0025,0.09,0.0041199997,-0.07225,0.0183575,0.03875,0.00875,0.1175,-4.5e-05,0.0012050001,-0.0004275,1742110728.760471,user_1
-0.02875,0.0225,0.18875,-0.0012675,0.049087502,-0.0133525,0.035,0.00625,0.12125,9.25e-05,-7.75e-05,0.0004725,1742110728.879463,user_1
0.0625,-0.0075,0.06125,-0.0048525,0.02008,-0.00415,0.04125,0.00875,0.115,0.0004725,-0.0005025,-0.0003975,1742110728.98761,user_1
0.01125,0.005,0.095,0.0077675,-0.08928,0.02176,0.03625,0.00875,0.1225,0.0001375,0.00125,0.0001825,1742110729.101284,user_1
-0.00625,0.005,0.17875,-0.00032,0.0590525,-0.007035,0.0375,0.01,0.11875,0.000107500004,0.0001225,-0.000305,1742110729.220198,user_1
0.06,-0.0075,0.07125,0.010545,0.0166625,-0.0001525,0.0425,0.0025,0.12,0.0001525,-0.0007475,-0.0001375,1742110729.328485,user_1
0.005,0.01125,0.1025,0.001755,-0.085725,0.010375,0.0375,0.01,0.11625,0.0001375,0.0015725,0.0001825,1742110729.4422889,user_1
-0.0075,0.0075,0.17375,0.00125,0.062255003,-0.0076599997,0.03625,0.0075,0.12,-0.000107500004,3e-05,-0.0004275,1742110729.564393,user_1
0.06125,-0.00125,0.0625,-0.001405,0.012085,0.0025175,0.0425,0.00375,0.12125,-0.00033500002,-0.00091500004,-3e-05,1742110729.668443,user_1
0.0,0.015,0.09875,0.0072025,-0.0935375,0.018082501,0.04,0.00875,0.11625,3e-05,0.0013275,4.5e-05,1742110729.782272,user_1
-0.0075,0.005,0.17375,-0.010085,0.065597504,-0.0122825,0.03625,0.00875,0.11875,4.5e-05,3e-05,3e-05,1742110729.900425,user_1
0.065,-0.00125,0.0525,0.0042575,0.010832501,0.001115,0.04125,0.00375,0.1225,-0.000565,-0.0013875001,0.00033500002,1742110730.009332,user_1
-0.01625,0.01625,0.11875,0.00731,-0.08464,0.00763,0.03875,0.01125,0.11625,-0.000107500004,0.0013275,0.00035,1742110730.1224551,user_1
-0.0,0.005,0.15625,-0.015045,0.072037496,-0.017975,0.03625,0.00875,0.11875,-0.00016750001,1.5e-05,-0.000365,1742110730.2410398,user_1
0.065,-0.0,0.06125,0.00792,0.0078275,0.0025175,0.04125,0.00375,0.1225,-0.000945,-0.0010975,-7.75e-05,1742110730.36061,user_1
0.00375,0.0175,0.1,0.009125,-0.0930325,0.014085,0.04125,0.01125,0.11375,-0.00026,0.0016325001,0.0001975,1742110730.4632928,user_1
0.0125,0.0,0.15625,-0.008805,0.07367,-0.0119025,0.03625,0.01,0.11875,-4.5e-05,0.0001525,0.000275,1742110730.579923,user_1
0.065,0.00375,0.05125,0.0013125,-0.01509,0.005295,0.0425,0.00625,0.1225,-0.00035,-0.002045,0.0001375,1742110730.700845,user_1
-0.04,0.0225,0.17375,0.002135,-0.0652475,0.0054175,0.04125,0.01125,0.11625,7.75e-05,0.001235,-0.000365,1742110730.80347,user_1
0.015,0.00125,0.125,-0.00302,0.079835,-0.01326,0.03875,0.01,0.115,0.000945,-0.00045750002,-0.000275,1742110730.920735,user_1
0.06125,0.005,0.0525,0.0022274998,-0.015655,0.0051574996,0.0375,0.0075,0.1275,-4.5e-05,-0.0010675,0.000855,1742110731.031292,user_1
-0.02625,0.01625,0.14625,-0.0021825,-0.07112,0.0062725,0.0425,0.01,0.115,-0.00023,-4.5e-05,7.75e-05,1742110731.144567,user_1
-0.00125,0.0075,0.14625,-0.0027,0.0724325,-0.0133825,0.03625,0.01,0.11875,0.00058,-0.0004275,0.00016750001,1742110731.261219,user_1
0.06125,-0.0,0.055,-0.001145,-0.011535,0.0036175,0.03875,0.00625,0.12375,-0.0001225,-0.000625,0.00016750001,1742110731.3811998,user_1
-0.0575,0.03,0.18125,0.0046225,-0.0367125,0.000885,0.04,0.00875,0.1175,-0.0001525,0.0007325,0.0002125,1742110731.486491,user_1
0.0275,-0.0,0.10875,-0.00612,0.036255002,-0.005355,0.03875,0.01,0.115,0.00064,0.0003825,-0.0001375,1742110731.601154,user_1
0.02,-0.0025,0.0775,0.00415,-0.0493325,0.0089724995,0.0375,0.0075,0.12625,-0.0001975,-0.0001225,0.00087,1742110731.720588,user_1
-0.05625,0.0075,0.18875,0.004135,0.0514375,-0.0115975,0.04125,0.01125,0.12,-0.00064,0.00058,0.0010375,1742110731.828448,user_1
0.05125,-0.0025,0.07,0.0021525,0.0295575,-0.00435,0.0425,0.00875,0.11375,0.00029,0.00059500005,9.25e-05,1742110731.942444,user_1
0.01375,-0.0,0.07875,0.0024725,-0.08616751,0.018889999,0.03875,0.01,0.12125,0.00059500005,0.0008075,0.0009775,1742110732.0649118,user_1
-0.06875,0.01375,0.19125,-0.0024575,0.04422,-0.0148325,0.0425,0.01,0.11625,-0.0001825,0.0001375,-0.00029,1742110732.1810298,user_1
0.04625,-0.0075,0.06125,0.005235,0.044555,-0.00328,0.04625,0.00875,0.11375,0.0001975,-0.00087,-0.0003825,1742110732.284462,user_1
0.01625,0.005,0.0675,0.00647,-0.0874325,0.018432502,0.04,0.01125,0.11875,0.000275,0.0013275,0.00026,1742110732.4010298,user_1
-0.0775,0.025,0.21125,-0.0047,0.032057498,-0.020385,0.0425,0.00875,0.11625,-0.0004125,-0.0005025,-0.00064,1742110732.511457,user_1
0.04,-0.005,0.07125,0.0075675,0.04541,-0.0010375,0.04625,0.0075,0.11625,7.75e-05,-0.0013725,0.0,1742110732.625343,user_1
0.0375,0.01375,0.065,0.0012050001,-0.0581825,0.0113975,0.03875,0.0125,0.11875,0.000275,0.002,0.0001825,1742110732.740836,user_1
-0.045,0.01625,0.18625,-0.0090475,-0.03444,-0.00055,0.04375,0.0075,0.115,-0.000245,-0.0003975,-0.00059500005,1742110732.861045,user_1
0.015,-0.00875,0.10875,0.0084525,0.0671225,-0.00229,0.04375,0.00875,0.11875,0.0001525,-0.0009625,1.5e-05,1742110732.967468,user_1
0.04,0.00125,0.045,0.0034475,-0.04808,0.011565,0.04125,0.00875,0.12,-0.000305,0.0010375,0.000107500004,1742110733.0813272,user_1
-0.065,0.02375,0.2175,-0.0016475001,0.007675,-0.010345,0.04375,0.00875,0.1125,-7.75e-05,-0.0001225,-0.0005025,1742110733.201119,user_1
0.02875,-0.01,0.08625,0.0066675,0.041275002,-0.0056775,0.04375,0.00875,0.1175,0.00026,-0.0009625,-0.00033500002,1742110733.308324,user_1
0.035,0.0025,0.0775,-0.0016325001,-0.03212,0.0078425,0.04,0.01125,0.12,-1.5e-05,0.0020150002,-7.75e-05,1742110733.422348,user_1
-0.0525,0.0175,0.20375,-0.0001975,0.02089,-0.0105275,0.0425,0.00875,0.115,-0.0001825,-0.00045750002,-0.000305,1742110733.543722,user_1
0.0375,-0.00875,0.08375,0.0072775004,0.041825,-0.0034949998,0.045,0.00875,0.1175,0.0004275,-0.0009625,-0.0003975,1742110733.660693,user_1
0.03625,-0.0025,0.07125,-0.000245,-0.0504925,0.010605,0.04125,0.01,0.12,7.75e-05,0.0021525,-0.00023,1742110733.76448,user_1
-0.03,0.0125,0.2025,-0.0040749996,0.0081325,-0.0072475,0.04125,0.00875,0.115,-0.0001525,-0.000625,-0.00045750002,1742110733.880803,user_1
0.035,-0.00875,0.09125,0.0065300004,0.0499575,-0.0086375,0.04375,0.00625,0.12,0.0,-0.0012050001,-0.000305,1742110734.001853,user_1
0.06125,-0.0175,0.04625,-0.0022574998,-0.025772499,0.00673,0.0425,0.01,0.1175,7.75e-05,0.0019225,6e-05,1742110734.10647,user_1
-0.06375,0.02125,0.19625,-0.00331,-0.0599225,0.0016925,0.04375,0.0075,0.115,-0.00032,-0.000107500004,-0.00033500002,1742110734.221185,user_1
0.01625,-0.01125,0.115,0.0047150003,0.064972505,-0.0081025,0.04375,0.01125,0.11625,0.0001525,-0.0002125,-0.00048750002,1742110734.340312,user_1
0.04875,-0.01,0.0525,-0.0001375,-0.0287775,0.009965,0.04125,0.00625,0.12375,-0.00035,0.000855,0.0003975,1742110734.448504,user_1
-0.065,0.02375,0.18,-0.00052,-0.043564998,0.005355,0.04375,0.01125,0.1125,-0.000275,0.0001975,-0.000565,1742110734.564471,user_1
-0.01625,0.00625,0.14375,0.00229,0.073897496,-0.0163875,0.045,0.01,0.115,0.0006875,-0.0004725,-0.00093,1742110734.680672,user_1
0.0475,-0.01875,0.045,-0.0040125,-0.004165,0.0013125,0.04,0.00375,0.12625,9.25e-05,0.0006725,0.000855,1742110734.800682,user_1
-0.0525,0.02375,0.18125,0.0064850003,-0.036605,0.0061350004,0.04375,0.01125,0.11125,-0.0001525,-0.00016750001,-0.00026,1742110734.904386,user_1
0.0325,-0.0075,0.1125,-0.00978,0.0588075,-0.0143275,0.0425,0.0075,0.1175,0.0003825,-0.0007325,-0.0007325,1742110735.02307,user_1
0.045,-0.01125,0.03125,-0.013215,-0.0673075,0.015365,0.0425,0.0025,0.12,0.0001825,9.25e-05,-0.000245,1742110735.1413708,user_1
-0.09125,0.04375,0.2075,0.010832501,0.0175325,-0.0054175,0.0425,0.00875,0.11625,0.0,-0.00048750002,-0.0001975,1742110735.246494,user_1
0.01625,-0.0,0.09875,0.0093225,0.05841,-0.0084375,0.045,0.00375,0.1175,0.0004125,-0.00048750002,-0.0009625,1742110735.3612428,user_1
0.04875,-0.0,0.05875,-0.015395001,-0.0348675,0.0043800003,0.04,0.005,0.12,0.000365,0.0013425,0.0008075,1742110735.4810932,user_1
-0.075,0.05,0.19875,0.00711,-0.057862498,0.0128925,0.045,0.00875,0.11625,-0.000625,-9.25e-05,-0.00142,1742110735.588552,user_1
0.01,0.0125,0.11875,0.0069425,0.0782775,-0.011657501,0.04,0.005,0.11875,-0.00026,-0.0001225,-0.00026,1742110735.7022688,user_1
0.065,-0.0075,0.03875,-0.0022425,-0.008407501,0.0046550003,0.0425,0.00375,0.11875,-0.0001375,0.0010525,0.000655,1742110735.821272,user_1
-0.05625,0.0275,0.16125,0.0034949998,-0.091277495,0.018845,0.045,0.00625,0.115,-0.00048750002,0.0007175,-0.0001375,1742110735.940467,user_1
-0.02625,0.0175,0.1525,0.0015875,0.092345,-0.0181125,0.04125,0.00875,0.11875,-0.00026,0.00033500002,-0.0001525,1742110736.044415,user_1
0.06125,-0.005,0.04875,0.0027325,0.00917,-0.0008075,0.0475,0.00375,0.11625,0.000107500004,0.0001825,-0.0001375,1742110736.16111,user_1
-0.01875,0.00625,0.1,-0.0001375,-0.1060175,0.021514999,0.045,0.00875,0.1175,-0.000245,0.00084,-0.000275,1742110736.281473,user_1
-0.02875,0.01375,0.1675,0.0009925,0.064574994,-0.0110625,0.045,0.005,0.115,-0.00061,9.25e-05,0.000107500004,1742110736.3862798,user_1
0.05875,-0.0025,0.06,0.0021825,0.021455,-0.0045475,0.04875,0.00625,0.11375,6e-05,-0.00048750002,0.000107500004,1742110736.50236,user_1
0.0225,-0.005,0.065,-0.002045,-0.09143,0.0204625,0.0425,0.00875,0.12,-6e-05,0.000565,-0.000245,1742110736.621164,user_1
-0.075,0.0175,0.2025,0.001495,0.03946,-0.010255001,0.0475,0.00625,0.115,-0.0001825,-0.000107500004,0.0001225,1742110736.7283142,user_1
0.03875,-0.01125,0.07125,0.0027,0.0509025,-0.00612,0.04875,0.00875,0.11375,0.00026,-0.0005025,0.000107500004,1742110736.842287,user_1
0.02125,0.00125,0.06625,0.0020299999,-0.07116751,0.0151225,0.0425,0.0075,0.12,0.0001975,-0.00023,0.0007625,1742110736.9605272,user_1
-0.05125,0.01375,0.19625,0.00534,0.04985,-0.008805,0.04875,0.00625,0.115,-0.00029,0.000107500004,-0.00055,1742110737.0693178,user_1
0.04375,-0.00125,0.07625,0.0048975,0.037185002,-0.0031125,0.0475,0.00875,0.11375,0.00048750002,-0.0007025,0.00023,1742110737.18333,user_1
0.02,-0.00125,0.0675,3e-05,-0.0853275,0.0158375,0.0425,0.0075,0.12125,0.00035,-0.0001375,0.00052,1742110737.301111,user_1
-0.065,0.01125,0.1975,0.0030825,0.04634,-0.0098425,0.04625,0.005,0.115,-0.0004125,-0.00023,-0.00026,1742110737.420741,user_1
0.0475,-0.005,0.075,0.00389,0.0541075,-0.008850001,0.04625,0.0075,0.11625,0.000305,1.5e-05,-0.00016750001,1742110737.525326,user_1
0.05,-0.00125,0.06375,-0.001435,-0.06285,0.0151525,0.0425,0.00875,0.12,0.00026,-0.00033500002,0.000535,1742110737.641717,user_1
-0.0325,0.0025,0.19625,0.0056925,0.0313275,-0.0053875,0.04625,0.005,0.115,-3e-05,0.0002125,4.5e-05,1742110737.760491,user_1
0.05125,-0.005,0.06875,0.00055,0.0234975,-0.002305,0.04625,0.00875,0.11625,0.00032,0.000107500004,7.75e-05,1742110737.8672051,user_1
0.015,-0.005,0.075,-0.00122,-0.086655,0.0162975,0.0425,0.01,0.12125,-6e-05,0.0001225,0.0009,1742110737.981781,user_1
-0.0475,0.0075,0.19375,0.0068200002,0.039505,-0.005875,0.04625,0.005,0.115,-0.000565,0.000535,-0.00058,1742110738.1011992,user_1
0.04375,-0.00375,0.07,0.0022574998,0.044677503,-0.008957501,0.0475,0.0075,0.11375,-0.0002125,0.0001375,0.000245,1742110738.208231,user_1
0.045,-0.00125,0.09375,0.0001375,-0.04155,0.0078724995,0.0425,0.01125,0.1225,-0.0007175,-3e-05,0.00035,1742110738.3223171,user_1
0.0,-0.00375,0.1775,0.00319,0.018737499,-0.002045,0.0475,0.00625,0.1125,-0.00052,0.0007625,0.000365,1742110738.440651,user_1
0.0475,-0.00625,0.09625,0.0092775,0.0325775,-0.0033425,0.04625,0.01,0.11625,-0.0001375,7.75e-05,0.000107500004,1742110738.5492291,user_1
0.03625,-0.005,0.075,-0.0020299999,-0.047607496,0.0083325,0.04625,0.01125,0.1175,0.000107500004,0.00035,0.000275,1742110738.663459,user_1
-0.0275,0.00625,0.19625,0.0007475,0.0411825,-0.00792,0.04625,0.00875,0.11625,-0.00029,0.000365,-0.000365,1742110738.781043,user_1
0.05375,-0.0125,0.06875,0.0051875,0.02336,-0.003585,0.05,0.01,0.115,0.0,0.00079250004,-0.0001225,1742110738.900867,user_1
0.0125,0.00375,0.10625,0.00534,-0.069275,0.0095525,0.045,0.01,0.1175,0.00016750001,-3e-05,0.0006725,1742110739.0052328,user_1
-0.01,0.0,0.17625,-0.00566,0.0555275,-0.0090475,0.0475,0.00875,0.115,-0.00033500002,-0.0001225,-0.000365,1742110739.1215749,user_1
0.06125,-0.01,0.055,-0.0001225,0.0107725,-0.0019675,0.04875,0.00875,0.115,-7.75e-05,0.00055,1.5e-05,1742110739.2414331,user_1
-0.00125,0.0025,0.125,0.007065,-0.0727075,0.01085,0.04625,0.01125,0.115,-7.75e-05,-0.0002125,0.00032,1742110739.347401,user_1
0.00375,-0.00375,0.15,-0.001175,0.055465,-0.0066825,0.0475,0.01,0.11625,0.0001525,-0.0001825,0.00032,1742110739.461356,user_1
0.0575,-0.01125,0.06,0.00061,-0.0010525,0.0009775,0.05,0.00875,0.115,0.00026,0.0006875,-0.0002125,1742110739.5803452,user_1
-0.01125,0.00375,0.1375,0.0036624998,-0.070205,0.0102225,0.04625,0.0125,0.11625,1.5e-05,-0.00016750001,0.0004425,1742110739.6893098,user_1
0.00875,-0.00125,0.13875,-0.0018300001,0.0564125,-0.0075675,0.04875,0.0075,0.115,-0.000275,-0.0004275,-3e-05,1742110739.8033311,user_1
0.06125,-0.01,0.05875,-0.00091500004,-0.0071725002,0.0045775,0.05,0.0075,0.115,0.000107500004,0.00029,0.0002125,1742110739.920691,user_1
-0.03625,0.00875,0.16625,-0.001405,-0.0714425,0.00734,0.0475,0.0125,0.11625,-0.000305,0.0003825,-0.0001375,1742110740.031371,user_1
0.0125,0.0,0.13375,-0.0031424998,0.0709225,-0.01349,0.0475,0.01,0.115,-0.0002125,-0.0001225,-9.25e-05,1742110740.145254,user_1
0.0625,-0.00875,0.055,-0.000275,-0.00937,0.0002125,0.05,0.0075,0.1125,7.75e-05,-0.0002125,-0.00033500002,1742110740.261493,user_1
-0.03625,0.01375,0.17375,-0.0032950002,-0.0341025,-0.0027,0.04875,0.01125,0.115,-0.000107500004,0.0013575,-0.00055,1742110740.381052,user_1
0.0375,-0.00125,0.115,0.0025625,0.05368,-0.006745,0.04625,0.01,0.115,-0.0004425,-0.00122,-0.0001225,1742110740.487262,user_1
0.04875,-0.0075,0.0525,-0.010575,-0.053772498,0.0101775,0.04875,0.00625,0.115,-7.75e-05,-0.0007025,0.00045750002,1742110740.601376,user_1
-0.06875,0.0275,0.20375,0.010375,0.02681,-0.0033725,0.0475,0.01125,0.11625,-0.0001975,0.00064,-0.000825,1742110740.721345,user_1
0.04875,-0.0075,0.07875,0.0058449996,0.06256,-0.0083775,0.04875,0.01125,0.11625,0.0001975,-0.0003975,0.0001225,1742110740.829304,user_1
0.0425,-0.00875,0.0525,-0.00415,-0.076995,0.0136875,0.04625,0.01,0.1175,0.0003975,-0.000885,0.0010675,1742110740.943373,user_1
-0.0675,0.02375,0.20875,0.005645,0.0358575,-0.0066825,0.04875,0.00875,0.11375,-0.00026,0.000535,-0.0009925,1742110741.065124,user_1
0.06125,-0.0075,0.065,0.00525,0.04245,-0.0041799997,0.04625,0.01125,0.11625,6e-05,-0.00052,-0.00052,1742110741.1812491,user_1
0.05125,-0.0025,0.05625,-0.0016925,-0.073470004,0.0142825,0.045,0.00875,0.12,0.0001825,-0.00064,0.0013275,1742110741.285363,user_1
-0.0825,0.01625,0.21,-0.0043025,0.0063475,-0.00966,0.04875,0.00875,0.1125,-0.000535,0.000535,-0.0007025,1742110741.401268,user_1
0.035,-0.01125,0.09125,0.01059,0.066955,-0.0060125,0.04625,0.0125,0.11625,0.00032,-0.0001825,-0.00026,1742110741.523531,user_1
0.05125,0.00875,0.06375,-0.003175,-0.041625,0.0066975,0.04375,0.00875,0.11875,0.00033500002,-0.00174,0.00093,1742110741.627303,user_1
-0.06875,0.03,0.205,-0.00679,0.0311125,-0.0154275,0.04625,0.0075,0.11625,7.75e-05,0.0008075,-0.000945,1742110741.741536,user_1
0.055,-0.005,0.0775,0.0051725,0.045715,-0.0019824998,0.04375,0.01125,0.1175,0.00032,-0.000825,0.0001525,1742110741.861351,user_1
0.00875,-0.00125,0.0675,0.0024875,-0.10426249,0.011367501,0.045,0.00625,0.11875,6e-05,-0.0013125,0.00055,1742110741.9693718,user_1
-0.03875,0.005,0.1875,0.0027,0.055494998,-0.002685,0.04625,0.00875,0.115,-0.0001975,0.0007025,-0.0005025,1742110742.0833158,user_1
0.055,0.00125,0.07875,0.0028675,0.039794996,-0.0061950004,0.0475,0.00875,0.11625,0.000275,1.5e-05,-0.00032,1742110742.201333,user_1
0.0375,-0.00125,0.06875,0.0004275,-0.06761251,0.012635,0.0425,0.0125,0.12125,4.5e-05,-0.0004425,0.0010975,1742110742.310323,user_1
-0.06125,0.02,0.19625,0.0010225,0.023559999,-0.003555,0.04625,0.00625,0.11375,-0.000365,0.00059500005,-0.00023,1742110742.424408,user_1
0.0425,0.00125,0.085,0.0042275,0.0485675,-0.0096275,0.04375,0.01125,0.11875,-0.0001525,1.5e-05,-1.5e-05,1742110742.54402,user_1
0.06625,-0.00625,0.0725,-0.000885,-0.0246425,0.003205,0.04375,0.00875,0.1175,0.0,-0.0004425,0.0006725,1742110742.6617658,user_1
-0.055,0.01625,0.195,-0.004485,-0.063857496,0.0033875,0.04625,0.00875,0.115,-0.00035,0.00059500005,-0.00079250004,1742110742.766314,user_1
0.01875,0.00625,0.125,0.0004275,0.078675,-0.01146,0.04375,0.01,0.1175,-6e-05,-0.00045750002,0.0002125,1742110742.881641,user_1
0.0675,-0.00125,0.045,-0.0051725,-0.036805,0.0086675,0.0475,0.005,0.115,1.5e-05,-0.0009775,-0.0001825,1742110743.00244,user_1
-0.0725,0.025,0.19875,0.0010225,-0.011825,0.00035,0.0425,0.0125,0.12,0.0001375,0.0001375,0.000107500004,1742110743.107232,user_1
0.025,-0.00125,0.1075,0.00059500005,0.063125,-0.0060125,0.04375,0.0075,0.11625,-0.00045750002,-0.00016750001,-0.00045750002,1742110743.221578,user_1
0.055,0.005,0.0725,0.00033500002,-0.026702499,0.00644,0.045,0.0075,0.115,9.25e-05,-0.001115,0.0005025,1742110743.341086,user_1
-0.06,0.0175,0.19625,-0.0001525,-0.0075825,-0.008880001,0.04375,0.01,0.1175,-0.0001225,0.0010075001,-0.00084,1742110743.448534,user_1
0.0325,0.00125,0.10875,6e-05,0.06305,-0.010545,0.04125,0.00875,0.12,-6e-05,-0.00084,0.000275,1742110743.5653691,user_1
0.0475,-0.00125,0.06625,0.0020150002,-0.040345002,0.007905,0.045,0.00625,0.11625,-4.5e-05,-0.000655,0.000107500004,1742110743.681443,user_1
-0.05625,0.02125,0.18875,-0.0007775,0.0045175,-0.00711,0.0425,0.01,0.11875,-0.00026,0.0009,-0.000885,1742110743.789355,user_1
0.035,-0.005,0.09875,0.00537,0.049087502,-0.00351,0.04375,0.00875,0.1175,-0.0001975,-0.00048750002,-7.75e-05,1742110743.903251,user_1
0.0375,0.00375,0.07875,0.0030825,-0.0514225,0.01126,0.04125,0.0075,0.11875,0.00026,-0.000625,0.0010375,1742110744.023459,user_1
-0.0825,0.025,0.19,-0.0033275,-0.002595,-0.0124675,0.045,0.0075,0.115,-0.0003825,0.0007475,-0.0010375,1742110744.130455,user_1
0.01625,-0.00125,0.11,0.0041799997,0.08082499,-0.0140675,0.0425,0.0125,0.11875,-0.000245,-0.0012050001,-0.00052,1742110744.244245,user_1
0.06375,-0.0025,0.05625,-0.0018925001,-0.029845,0.008529999,0.04125,0.005,0.11875,0.000305,-0.00048750002,-0.0010675,1742110744.361223,user_1
-0.08,0.03375,0.19625,-0.002395,-0.0266875,-0.006255,0.0425,0.00875,0.11875,0.0001525,0.00023,-0.0001975,1742110744.481756,user_1
0.0225,0.0025,0.1125,0.0001225,0.0615075,-0.0075075002,0.04,0.00875,0.11875,-6e-05,-0.0001375,1.5e-05,1742110744.5861151,user_1
0.05125,0.0075,0.07625,0.000625,-0.0347125,0.007645,0.04375,0.005,0.11625,0.0004275,-0.0010825,0.0007475,1742110744.7011578,user_1
-0.04,0.0175,0.18125,-0.0018475,0.00496,-0.0075375,0.0425,0.00875,0.1175,6e-05,0.0006725,-0.000655,1742110744.8214169,user_1
0.03875,-0.0025,0.08625,0.0033575,0.0249475,-0.00079250004,0.04125,0.00875,0.11875,1.5e-05,-0.0012825,-0.00048750002,1742110744.927257,user_1
-0.00875,0.0075,0.1125,-0.0048975,-0.0729675,0.012802499,0.04,0.0075,0.11875,7.75e-05,-0.0010975,-1.5e-05,1742110745.04445,user_1
0.005,0.0075,0.18875,0.0001975,0.0006875,0.0006875,0.03625,-0.01125,0.10625,-0.00079250004,0.0037075,0.0022574998,1742110874.348948,user_2
0.01875,0.02375,0.07625,0.0029449998,0.0084375,0.0004125,0.03,-0.0075,0.125,-0.001755,-0.000365,0.003875,1742110874.462968,user_2
-0.0025,-0.01375,0.10125,-0.0059975,-0.0375675,-0.0021675,0.03625,0.0,0.11875,-0.0013875001,0.0036925,0.0029749998,1742110874.577264,user_2
-0.0075,0.00375,0.17375,0.002365,0.03737,0.0036175,0.03625,0.00125,0.1125,-0.0003975,-0.00023,-0.00033500002,1742110874.6908212,user_2
0.02625,0.0025,0.05375,0.001465,-0.0196225,-0.0014500001,0.0325,-0.01,0.13,-0.00093,-0.00142,0.000625,1742110874.804124,user_2
-0.0575,0.005,0.21125,0.00229,0.01422,-0.0047600004,0.03625,-0.00125,0.1175,-0.0007475,0.0027925,0.000825,1742110874.917923,user_2
0.02,0.00875,0.08625,-0.006255,0.03,0.0018775001,0.0375,-0.00375,0.11375,-0.0001525,-0.002395,-0.0004425,1742110875.032024,user_2
0.015,-0.005,0.0725,0.0022574998,-0.063325,0.0101325,0.03375,-0.0025,0.1275,0.00023,-0.00023,0.00064,1742110875.145944,user_2
-0.04125,0.0125,0.1975,0.0008075,0.05127,-0.0066374997,0.03125,0.00125,0.11875,-0.000245,-0.0002125,0.00016750001,1742110875.259992,user_2
0.03125,0.00625,0.055,4.5e-05,0.006805,0.0010375,0.035,-0.0025,0.1225,-0.0004125,-0.001755,-0.0004275,1742110875.376749,user_2
-0.03375,-0.0,0.12125,-0.00035,-0.0394125,-0.0060425,0.03375,-0.00125,0.12,-0.0001225,0.0014500001,0.0003975,1742110875.487233,user_2
-0.005,0.005,0.15625,-0.0036324998,0.0488275,-0.0037075,0.03375,-0.00125,0.11875,0.0001225,-0.0015575,-0.0005025,1742110875.601098,user_2
0.035,0.0175,0.05875,0.002685,-0.034255,0.0027625,0.0325,-0.00375,0.12875,-0.0006875,-0.000535,-0.0001225,1742110875.717528,user_2
-0.0275,-0.01,0.195,0.002395,0.0123149995,-0.0084675,0.03125,0.00125,0.11625,-0.00026,0.0018625,0.000305,1742110875.828107,user_2
0.02625,0.00375,0.10625,0.00357,0.0464325,-0.0024725,0.03375,-0.00375,0.12,-0.00032,-0.0018150001,-0.0001975,1742110875.941838,user_2
0.02875,-0.0025,0.07125,0.005325,-0.04808,0.0075075002,0.03125,0.0,0.1275,-0.0005025,0.002305,0.0007175,1742110876.054955,user_2
-0.02875,0.0025,0.19625,-0.0013275,0.018692499,-0.0009925,0.03375,0.0025,0.11375,-0.0004725,0.0015575,-0.00029,1742110876.169066,user_2
0.03125,0.0,0.075,-0.003175,0.021514999,0.0027774998,0.03375,-0.0025,0.1225,-0.00084,-0.0024100002,-0.0007775,1742110876.282884,user_2
0.0075,-0.00375,0.07125,0.0059825,-0.077377506,0.0125725,0.03375,0.00125,0.1225,-0.00032,0.002395,0.0001225,1742110876.398011,user_2
-0.0475,0.00125,0.2025,-0.0034025,0.0425875,-0.0045775,0.03375,0.0025,0.11625,0.0001375,0.0002125,-0.00023,1742110876.5100648,user_2
0.0375,-0.00125,0.05,-0.0056775,0.0119475005,0.00029,0.035,-0.0,0.12625,-0.0005025,-0.0016475001,-0.0001975,1742110876.6241548,user_2
-0.03625,0.00375,0.105,0.0065625,-0.088395,0.00737,0.035,0.0025,0.11875,-0.0001825,0.0016475001,-6e-05,1742110876.7383628,user_2
-0.025,0.00125,0.17375,-0.006775,0.0623175,-0.0045775,0.03625,0.00125,0.11625,-0.0002125,-0.00052,-0.0005025,1742110876.8520892,user_2
0.03375,0.00625,0.04875,-0.00079250004,-0.0296475,0.0036,0.03375,-0.0,0.12625,-0.0004125,0.00048750002,0.0007775,1742110876.966003,user_2
-0.0875,0.03125,0.2125,0.002685,-0.00583,-0.005905,0.035,0.00375,0.1175,-4.5e-05,0.0007625,0.00033500002,1742110877.081912,user_2
0.02,0.0025,0.08375,-0.0084224995,0.0399475,0.0020599999,0.03625,-0.00125,0.12,-0.0002125,-0.0010375,-0.0004275,1742110877.1984808,user_2
-0.00875,-0.0025,0.09,0.0077675,-0.0767525,0.010085,0.03625,0.005,0.12125,6e-05,0.0015575,0.00084,1742110877.308095,user_2
-0.045,-0.00125,0.1875,-0.00415,0.0546275,-0.0013125,0.03625,0.00375,0.115,4.5e-05,-0.0003825,-0.000365,1742110877.422179,user_2
0.0375,0.0025,0.055,3e-05,0.0119325,-0.0001225,0.03375,-0.0,0.1275,-0.00033500002,-0.0001825,0.000305,1742110877.541208,user_2
-0.055,-0.02125,0.13625,0.0069875,-0.07158,-0.0022425,0.03875,0.00375,0.11375,0.0001225,0.001435,6e-05,1742110877.649184,user_2
-0.00875,-0.00375,0.13875,0.0022125002,0.049775,0.002305,0.0375,0.0025,0.11875,0.0008075,-0.00059500005,0.000107500004,1742110877.763053,user_2
0.0325,0.00375,0.06875,0.00557,-0.0258025,0.0036624998,0.035,0.00125,0.12625,-0.000885,0.000825,0.000275,1742110877.878568,user_2
-0.0775,0.01,0.19,0.00122,0.0181125,-0.0092775,0.035,0.005,0.11875,-0.0013275,0.00023,-0.000107500004,1742110877.9910882,user_2
0.015,0.00125,0.0975,-0.00331,0.0435175,0.0001975,0.03875,0.00375,0.11625,-0.000305,-0.0007475,-0.0007625,1742110878.105042,user_2
0.01375,-0.00875,0.085,0.0064850003,-0.08194,0.0077525,0.03625,0.005,0.12375,-0.000565,0.0006725,0.0004425,1742110878.219429,user_2
-0.04625,0.0025,0.18875,0.00351,0.064942494,-0.0036925,0.035,0.00625,0.1175,-4.5e-05,0.00091500004,0.000107500004,1742110878.3330612,user_2
0.0375,0.00875,0.05,-0.0012675,0.0046375,-0.0024575,0.04,0.00375,0.11875,-0.00052,-0.0016175,0.0,1742110878.446849,user_2
-0.0775,-0.00125,0.175,-0.0048525,-0.04576,0.0022125002,0.0375,0.0075,0.11875,-0.00055,0.000625,-0.00016750001,1742110878.5627,user_2
0.015,-0.0025,0.10625,0.0001375,0.0558475,-0.0010675,0.03875,0.00625,0.1175,0.00023,-0.0001825,3e-05,1742110878.679959,user_2
0.035,-0.00375,0.0775,0.0060725003,-0.050065,0.0047150003,0.0375,0.005,0.1225,-0.00032,-0.00016750001,0.000625,1742110878.7889311,user_2
-0.065,0.0075,0.195,-0.0007325,0.0237425,-0.0086525,0.035,0.0075,0.12,-0.000245,-0.000305,0.000245,1742110878.903004,user_2
0.02625,0.00375,0.07625,0.0031575,0.0331875,0.0001375,0.03875,0.00375,0.11875,0.000365,-0.00059500005,-0.0004125,1742110879.021294,user_2
-0.01625,0.00125,0.09625,0.0078724995,-0.0895075,0.0087575,0.0375,0.0075,0.12,-0.0004125,0.00048750002,0.0004275,1742110879.1299589,user_2
-0.035,-0.00125,0.145,0.0008075,0.065932505,-0.0066075,0.03625,0.00875,0.1175,0.00064,-0.0001975,0.0003825,1742110879.244146,user_2
0.04875,0.00125,0.05,0.0022425,-0.026137501,0.00389,0.03625,0.005,0.12375,0.0001225,-0.0019075,0.00026,1742110879.360301,user_2
-0.05125,0.005,0.145,-0.0048225,-0.0243825,-0.01062,0.03625,0.00625,0.11875,0.0003825,0.0018150001,0.0001375,1742110879.471094,user_2
0.01875,-0.00125,0.09125,-0.00319,0.046035,0.0030375,0.03625,0.00625,0.1175,0.0003975,0.00016750001,-0.000825,1742110879.584904,user_2
0.0125,-0.00375,0.08,0.0075375,-0.06961,0.0098875,0.03625,0.00625,0.12375,-6e-05,0.0010225,0.00023,1742110879.700662,user_2
-0.04125,-0.005,0.20375,0.00033500002,0.05928,-0.0039975,0.0375,0.00625,0.115,0.000625,0.000275,0.000245,1742110879.813123,user_2
0.05125,-0.005,0.04,0.008195,-0.01857,0.00299,0.0375,0.00375,0.125,-0.0003825,-0.0013875001,0.0004275,1742110879.926917,user_2
-0.06,0.02375,0.17,-0.0053875,-0.022415001,-0.0078425,0.0375,0.00625,0.11625,0.00029,0.0022574998,0.0001225,1742110880.0428228,user_2
0.01375,0.00375,0.10625,-0.00586,0.036147498,0.0019824998,0.04,0.00375,0.115,9.25e-05,-0.0016175,-0.00023,1742110880.161089,user_2
0.0125,-0.02375,0.05875,0.0063475,-0.0626675,0.008850001,0.035,0.00625,0.12625,4.5e-05,0.0019225,0.0007175,1742110880.268936,user_2
-0.02125,-0.0075,0.18625,-0.01245,0.0791025,-0.0076,0.03625,0.0075,0.115,-0.000535,0.00087,-0.00058,1742110880.383258,user_2
0.03625,-0.03375,0.02625,-7.75e-05,-0.0620575,0.007905,0.03875,-0.00125,0.12375,-0.0004725,-0.00151,4.5e-05,1742110880.501337,user_2
-0.1,0.02375,0.21875,-0.000275,0.0341025,-0.0078125,0.03875,0.00875,0.115,0.00059500005,0.0013425,0.0003975,1742110880.610964,user_2
0.0175,-0.0325,0.07625,0.008850001,0.0299525,0.0039375,0.04125,-0.0,0.1225,-0.0007175,-0.0024425,-0.00045750002,1742110880.724926,user_2
-0.05875,0.00375,0.05625,0.010955,-0.1015625,0.0062100003,0.0375,0.005,0.12125,0.0034475,0.0045175,0.00061,1742110880.841395,user_2
-0.02875,-0.0125,0.14125,-0.0046375,0.070282504,-0.012390001,0.045,0.00375,0.11,0.001755,0.002045,-0.00084,1742110880.960787,user_2
0.04125,-0.01,0.0375,0.002,-0.01355,0.0009925,0.04,-0.0025,0.12625,-0.00055,-0.00122,0.0004425,1742110881.0670238,user_2
-0.12375,0.02,0.2275,0.0006875,-0.050735,0.00409,0.045,0.00125,0.11375,-0.00154,0.0021825,0.0001975,1742110881.1816452,user_2
-0.00625,0.00375,0.095,0.0029749998,0.056075,-0.0036624998,0.05125,-0.00125,0.10625,0.0012050001,-0.0001975,-0.000655,1742110881.301383,user_2
0.02125,-0.00875,0.055,0.0041799997,-0.0522625,0.010085,0.04125,0.0,0.12625,-0.00029,6e-05,0.000655,1742110881.408849,user_2
-0.08875,0.00625,0.21125,-0.0152425,0.05716,-0.015625,0.04375,-0.0,0.115,-0.001145,-0.0004275,-0.00035,1742110881.523005,user_2
0.02625,-0.0175,0.05375,0.006225,0.0130775,-0.001495,0.04375,-0.00375,0.12,-0.00052,-0.0022125002,-0.000275,1742110881.641942,user_2
-0.06,0.0225,0.1375,0.0027474998,-0.06546,0.015275,0.04375,0.0025,0.11625,-0.000107500004,0.0016475001,0.00016750001,1742110881.750824,user_2
-0.02625,0.01375,0.1475,-0.007935,0.071137495,-0.01332,0.0425,0.0025,0.11625,0.00023,-0.00033500002,-0.000305,1742110881.864937,user_2
0.0375,-0.02375,0.035,0.0042575,-0.0357825,0.005295,0.0425,0.00125,0.12375,-0.0003825,0.00016750001,0.00032,1742110881.981626,user_2
-0.10875,0.0225,0.22875,0.0084375,0.0183575,-0.0009625,0.045,0.00375,0.1125,-0.00048750002,0.000305,-9.25e-05,1742110882.0929909,user_2
0.02,-0.005,0.07125,0.0016025,0.021514999,-0.006805,0.0475,0.00125,0.11375,-0.0001225,-0.00174,-0.00059500005,1742110882.20687,user_2
-0.05375,-0.00375,0.10125,-0.02948,-0.0809625,0.019272499,0.04125,0.0025,0.12125,4.5e-05,0.001785,0.00064,1742110882.322249,user_2
-0.05875,0.02875,0.1575,-0.015395001,0.054185003,-0.020782499,0.04125,0.005,0.115,-0.000565,0.000107500004,-0.0003825,1742110882.442275,user_2
0.03125,-0.03,0.0475,0.005235,-0.0019525,-0.0028375,0.0425,-0.0,0.12375,-0.0007325,-0.002395,4.5e-05,1742110882.548963,user_2
-0.095,0.0675,0.1975,0.018265,-0.018035,0.013305,0.0425,0.005,0.1175,-0.00048750002,0.0010225,-9.25e-05,1742110882.6631072,user_2
-0.005,-0.0,0.10625,-0.003905,0.031555,-0.008575,0.04625,0.0025,0.11125,0.0002125,-0.00084,-0.00061,1742110882.782911,user_2
0.01875,-0.025,0.06125,0.00293,-0.03775,0.01477,0.03875,0.00375,0.12375,0.0004275,0.0006875,0.00122,1742110882.890903,user_2
-0.11375,0.025,0.2275,-0.00537,0.044525,-0.016647499,0.04,0.005,0.1175,-0.0007175,0.0004725,-0.00033500002,1742110883.005127,user_2
0.0325,-0.02,0.06,0.0016475001,0.031432502,-0.0022574998,0.0475,0.00125,0.11375,-0.00061,-0.0015725,-0.001175,1742110883.1223109,user_2
-0.0325,-0.00625,0.0525,0.00566,-0.10553,0.00882,0.04125,0.00375,0.12,-3e-05,0.00125,0.000365,1742110883.2330098,user_2
-0.05875,0.01125,0.1675,-0.0181875,0.084487505,-0.01593,0.04125,0.0075,0.11625,0.000275,9.25e-05,-0.00033500002,1742110883.34699,user_2
0.04375,-0.0075,0.0225,0.0059825,-0.019515,0.00325,0.0425,0.0,0.125,-0.0004425,-0.0006875,0.000275,1742110883.4626749,user_2
-0.0975,0.01875,0.19375,0.00946,-0.054442503,0.0112924995,0.04375,0.0075,0.1125,0.00023,0.0018475,0.00023,1742110883.574904,user_2
0.01,-0.0075,0.1,-0.0044699996,0.0715475,-0.0113525,0.04625,0.00375,0.11125,0.00026,-0.000825,-0.001145,1742110883.688882,user_2
0.01875,-0.00625,0.06125,0.008117501,-0.061447497,0.0066525,0.04125,0.0025,0.1275,1.5e-05,0.0001375,0.0009625,1742110883.8034282,user_2
-0.07375,-0.00875,0.2025,-0.008515,0.046447497,-0.0063625,0.04125,0.00625,0.115,-0.0010525,0.00052,-0.00048750002,1742110883.923007,user_2
0.03625,-0.00375,0.0575,-0.00035,0.01654,-0.0016175,0.04625,0.00125,0.11625,-0.0004725,-0.002045,-0.0003825,1742110884.03098,user_2
-0.04625,0.00125,0.11,0.0021525,-0.096635,0.0065,0.04125,0.0075,0.12125,9.25e-05,0.0016325001,0.000655,1742110884.144858,user_2
-0.0175,-0.00625,0.13625,-0.00975,0.06279,-0.0054175,0.04375,0.00625,0.1125,0.0001225,0.0004725,-0.000535,1742110884.263665,user_2
0.03375,-0.00125,0.06125,0.007125,-0.035125,0.0065450002,0.0425,-0.0,0.12375,-0.0004125,-0.0024875,0.0007475,1742110884.372897,user_2
-0.095,0.0175,0.1975,-6e-05,-0.000945,-0.0045625,0.04125,0.00875,0.11875,-0.00032,0.001405,0.00048750002,1742110884.486987,user_2
0.01375,-0.0075,0.0875,-0.0007625,0.0434275,-0.00293,0.04625,0.005,0.11125,0.000305,-0.000245,-0.00045750002,1742110884.6029031,user_2
-0.01375,-0.0075,0.06125,0.012025,-0.080277495,0.00917,0.04,0.005,0.12625,-0.00032,0.0004425,0.000885,1742110884.723855,user_2
-0.075,-0.005,0.19,-0.012055,0.064895,-0.0084224995,0.0425,0.0075,0.115,-0.00059500005,0.0006875,-0.0001825,1742110884.829083,user_2
0.035,-0.00625,0.05,-0.0034325,0.0107275,6e-05,0.045,0.00375,0.11625,-0.0002125,-0.0022574998,-0.0003975,1742110884.943889,user_2
-0.07,0.0075,0.16125,0.0086825,-0.065095,0.006745,0.04125,0.0075,0.12125,0.00023,0.0010825,0.0007175,1742110885.0663989,user_2
-0.02125,0.005,0.1375,-0.01474,0.077544995,-0.011445,0.04125,0.0075,0.115,0.0002125,0.00045750002,-0.000245,1742110885.170897,user_2
0.045,-0.0025,0.0625,0.0019225,-0.0030525,0.0047750003,0.0425,0.0025,0.12375,-7.75e-05,-0.0016175,0.0001825,1742110885.284752,user_2
-0.07375,0.0,0.1675,-0.002595,-0.074082494,0.0015725,0.0425,0.00875,0.1175,-0.0003975,0.0019225,0.00045750002,1742110885.404106,user_2
-0.02,0.005,0.13125,-0.01027,0.075224996,-0.012085,0.0425,0.00875,0.11375,0.00052,0.000275,-0.0002125,1742110885.5129118,user_2
0.03875,-0.01,0.08125,0.00435,0.0042875,0.0045025,0.04375,0.0025,0.1225,-0.00023,-0.0015575,0.0001225,1742110885.626687,user_2
-0.04875,0.01,0.13,0.0098275,-0.071427494,0.0032950002,0.0425,0.00875,0.115,0.0001825,0.0013425,-4.5e-05,1742110885.744316,user_2
0.02125,-0.01375,0.10875,-0.0027325,0.047819998,-0.002685,0.04125,0.0075,0.11625,0.00079250004,0.0003825,-0.00045750002,1742110885.8640351,user_2
0.0025,-0.00625,0.07125,0.0130775,-0.07814,0.008239999,0.045,0.00125,0.12125,-0.0001975,-0.0009925,-0.0001375,1742110885.967808,user_2
0.00375,-0.01375,0.145,0.0041199997,0.0640575,-0.0047750003,0.04,0.01,0.1175,-6e-05,0.00079250004,0.0005025,1742110886.0875032,user_2
0.0375,-0.01375,0.05875,0.0124675,-0.0354775,0.0092325,0.045,0.00125,0.11625,-0.00023,-0.0016475001,-0.001145,1742110886.204243,user_2
-0.09625,0.02,0.20875,-0.0048975,0.011185001,-0.00618,0.0425,0.0075,0.11875,0.0001525,0.00052,0.00064,1742110886.309986,user_2
0.0275,-0.0075,0.085,-0.0038599998,0.04721,-0.0055225003,0.04625,0.00625,0.11125,0.000365,0.00048750002,-0.0013725,1742110886.424546,user_2
0.00875,-0.0075,0.0675,0.0058899997,-0.0814675,0.009155,0.04,0.0025,0.125,-0.0013275,-0.00171,0.0009925,1742110886.5459352,user_2
-0.04,-0.0,0.19625,-0.0117175,0.07756,-0.00763,0.04,0.00875,0.1175,-0.00029,0.001115,-0.0005025,1742110886.6520152,user_2
0.0525,-0.01125,0.05125,0.002625,0.0166325,-0.000245,0.045,0.0025,0.115,0.00029,-0.00064,-0.00116,1742110886.7656908,user_2
-0.05125,-0.005,0.07625,0.01085,-0.128495,0.01764,0.04,0.00625,0.1225,0.00084,0.00142,0.000825,1742110886.8839931,user_2
-0.04125,0.00625,0.16,-0.016465,0.07861251,-0.0102075,0.03875,0.0075,0.1175,-0.0001525,0.0007175,-0.00029,1742110886.993003,user_2
0.0425,-0.015,0.0425,0.0024875,-0.028930001,0.0037075,0.04625,0.0025,0.11875,-0.00023,-0.00229,-0.0004125,1742110887.1067278,user_2
-0.06625,0.0225,0.2125,0.0102375,0.022827499,-0.002655,0.04,0.005,0.12125,-0.0001825,0.001405,0.0008075,1742110887.224247,user_2
0.035,-0.005,0.075,0.0013425,0.03511,-0.0039975,0.0425,0.0075,0.1125,0.0001225,-0.000305,-0.0007325,1742110887.344245,user_2
0.0425,-0.0125,0.06375,0.0065,-0.0611125,0.0101475,0.04125,0.00375,0.12375,-0.000565,0.0013725,0.002075,1742110887.448732,user_2
-0.11125,0.0125,0.225,-0.01625,0.063125,-0.0163875,0.04375,0.01,0.11375,-0.000855,0.00026,4.5e-05,1742110887.566898,user_2
0.03625,-0.01,0.07875,-0.0074775,0.039505,-0.0076599997,0.045,0.00875,0.1125,0.000885,-0.0007325,-0.0010675,1742110887.6845,user_2
0.0075,0.0075,0.08875,0.0087575,-0.0691225,0.0128475,0.04125,0.00375,0.12375,6e-05,0.00045750002,0.0007775,1742110887.7906969,user_2
-0.01,-0.00375,0.1825,-0.0107725,0.057997502,-0.0110025,0.04,0.01,0.1175,-0.000625,0.00016750001,-0.0001825,1742110887.904754,user_2
0.0625,-0.01625,0.03875,0.0029000002,-0.006165,0.003525,0.04625,0.005,0.11625,0.0001825,-0.00045750002,-0.0007775,1742110888.02529,user_2
-0.06625,0.02625,0.21375,0.00064,-0.0240325,-0.0004125,0.04375,0.0075,0.11875,0.00032,0.00084,0.0011900001,1742110888.130841,user_2
0.0525,-0.0175,0.075,-0.0132,0.014085,-6e-05,0.04125,0.0125,0.115,0.0009625,0.00061,-0.0003975,1742110888.244857,user_2
-0.02875,0.01,0.1475,0.0083,-0.072662495,0.0210425,0.0425,0.0025,0.12375,-0.0002125,-0.001235,0.000275,1742110888.36471,user_2
0.0475,-0.0375,0.09125,-0.0040125,0.0425425,-0.00064,0.03875,0.0125,0.11625,0.00048750002,0.001235,0.00048750002,1742110888.4718568,user_2
0.00625,-0.01,0.035,0.0109875,-0.083862506,0.008865,0.04875,-0.0,0.1175,0.000565,-7.75e-05,-0.0007325,1742110888.588212,user_2
-0.07625,0.00375,0.205,-0.015457501,0.0637975,-0.0214225,0.04125,0.005,0.1125,-0.00058,-0.000655,0.0022574998,1742110888.704662,user_2
0.045,-0.01125,0.06125,0.003175,0.037095003,-0.0042425,0.04875,0.00625,0.11375,0.00032,0.0001825,-0.0016625,1742110888.823774,user_2
-0.04375,-0.005,0.1,0.0136575,-0.10318,0.01294,0.0425,0.0025,0.11875,0.0001375,-3e-05,0.0009925,1742110888.927851,user_2
-0.005,0.01,0.14375,0.0054925,0.069885,-0.0057225,0.04125,0.00875,0.12,-0.0008075,0.00048750002,-0.0001375,1742110889.046347,user_2
0.05625,-0.0225,0.0425,0.0037225,-0.035354998,0.000565,0.04875,0.00125,0.115,9.25e-05,-0.000565,-0.00079250004,1742110889.164893,user_2
-0.08,0.01,0.225,0.004195,0.0032950002,-0.0014500001,0.045,0.0075,0.11625,-0.00026,0.0006725,0.0010075001,1742110889.26975,user_2
0.0375,-0.0175,0.08125,-0.0008075,0.0413525,-0.00264,0.04375,0.01,0.11625,0.0001375,0.00059500005,-0.00084,1742110889.3845088,user_2
0.0175,-0.015,0.08625,0.0025775002,-0.0644525,0.01355,0.04375,0.00375,0.12375,-0.00091500004,-0.0010525,0.0007325,1742110889.504409,user_2
-0.0325,-0.00625,0.18125,-0.006775,0.0447225,-0.0012825,0.04375,0.0125,0.115,-0.00029,0.00026,0.0004725,1742110889.611959,user_2
0.055,-0.01375,0.055,0.000565,0.01323,-0.0008075,0.0475,0.0075,0.1125,0.00032,-0.0007175,-0.0007475,1742110889.725755,user_2
-0.06625,-0.00625,0.1475,0.0013575,-0.0797125,0.0013425,0.04375,0.005,0.12,0.00023,-0.000107500004,0.0006875,1742110889.8448992,user_2
-0.0125,-0.00125,0.135,0.0018625,0.082779996,-0.0061025,0.04125,0.01125,0.1175,-0.00016750001,0.00048750002,-6e-05,1742110889.96414,user_2
0.065,-0.00875,0.04375,0.012635,-0.0523825,0.006455,0.0475,0.00375,0.115,-0.0002125,-0.0013575,-0.0007775,1742110890.0678852,user_2
-0.09625,0.00875,0.23375,-0.0166625,0.060927503,-0.0122975,0.04375,0.00875,0.1175,0.0001975,0.0004425,0.0007775,1742110890.184961,user_2
0.05625,0.0,0.06125,-0.005295,0.033615,-0.000365,0.045,0.01125,0.1125,0.0009625,0.0008075,-0.0010975,1742110890.304924,user_2
-0.04,-0.00125,0.09375,0.0056,-0.1125025,0.00441,0.04375,0.00375,0.1225,-0.00035,-0.000945,0.00058,1742110890.408842,user_2
-0.04375,-0.00125,0.165,-0.0073249997,0.0641775,-0.010255001,0.04125,0.01125,0.1175,-0.0006725,1.5e-05,-4.5e-05,1742110890.525603,user_2
0.05875,-0.00875,0.05375,0.005325,0.0069274995,-0.00087,0.04625,0.005,0.11625,0.0004275,-0.000275,-0.0008075,1742110890.6447968,user_2
-0.0575,-0.0075,0.15875,-0.00048750002,-0.0519725,-0.0039675,0.04375,0.0075,0.1175,0.0004725,0.000365,0.0007025,1742110890.75122,user_2
0.05625,0.0075,0.10875,-0.007905,0.05725,-0.003815,0.0375,0.01125,0.12,0.00023,-0.00035,-0.0010225,1742110890.864926,user_2
0.0575,0.0,0.05,0.0101775,-0.080657504,0.0068200002,0.05125,-0.00125,0.1125,0.000305,-0.0010675,-0.00113,1742110890.984082,user_2
-0.1,0.01375,0.21125,-0.0121925,0.05423,-0.011245,0.0425,0.00875,0.12,9.25e-05,-0.00093,0.0015875,1742110891.091794,user_2
0.03125,0.0075,0.08,-0.0057375003,0.044785,-0.0024725,0.04375,0.0075,0.1125,0.0010225,0.0024875,-0.0012675,1742110891.2055922,user_2
0.02875,0.0,0.0675,0.0081025,-0.0850225,0.00502,0.045,0.005,0.12125,-0.00029,-0.0016025,0.00048750002,1742110891.325058,user_2
-0.01875,0.00375,0.18,0.0030675002,0.05571,0.0057375003,0.04375,0.00625,0.12,-0.0006725,0.0007325,-0.0001525,1742110891.431547,user_2
0.05125,0.00625,0.07375,0.0020150002,0.01204,0.0010075001,0.0475,0.0075,0.11,0.00016750001,0.00064,-0.0013425,1742110891.546763,user_2
-0.04625,-0.005,0.10375,0.0139925005,-0.107835,-0.001435,0.04625,0.005,0.11875,9.25e-05,-0.00032,0.000245,1742110891.664808,user_2
0.0,-0.00625,0.14,0.0092475,0.079345,0.004365,0.04125,0.00625,0.1175,-0.00026,3e-05,0.0001975,1742110891.7715762,user_2
0.0575,0.0025,0.0425,0.012069999,-0.037552502,0.000107500004,0.05,0.005,0.11125,-0.000275,-0.0007625,-0.0007475,1742110891.884707,user_2
-0.07875,-0.01375,0.20875,-0.0077825,0.0060125,-0.01416,0.04375,0.00625,0.12,0.00058,0.00045750002,0.0007175,1742110892.0044532,user_2
0.04375,0.005,0.06875,-0.0032950002,0.0478825,0.0013575,0.0425,0.00875,0.11375,0.000245,0.00045750002,-0.00035,1742110892.11156,user_2
-0.01625,-0.0075,0.0925,0.0078125,-0.0997925,-0.0034175,0.04625,0.00375,0.12125,-0.0001975,-0.002135,0.0004425,1742110892.225206,user_2
-0.02,0.005,0.15875,0.0078575,0.0655675,0.0060725003,0.04375,0.00875,0.11625,-0.00032,0.0019075,-0.00055,1742110892.3448682,user_2
0.0575,0.00375,0.04125,0.00084,0.00055,-0.00091500004,0.0475,0.00375,0.1125,-0.00023,0.000305,-0.0010225,1742110892.451537,user_2
-0.08125,-0.01625,0.1675,0.005875,-0.0729375,-0.005065,0.0475,0.0075,0.1175,0.00045750002,-0.000275,0.0004275,1742110892.567465,user_2
-0.005,-0.00125,0.1375,-0.00389,0.0765225,0.0016475001,0.04125,0.0075,0.12,-0.0003825,0.001435,-0.00023,1742110892.684848,user_2
0.04375,-0.0,0.0475,0.009292499,-0.045930002,0.0051125004,0.05,0.0025,0.11375,-0.000625,-0.0018925001,-0.0004725,1742110892.792703,user_2
-0.0625,0.0125,0.205,-0.0104375,0.048217498,-0.0047750003,0.045,0.0075,0.1175,-0.0001225,-0.0001825,0.0004125,1742110892.906804,user_2
0.04625,0.00875,0.0625,0.0018625,0.0280925,-0.003585,0.04625,0.005,0.11375,-6e-05,0.0019525,-0.0007025,1742110893.0257149,user_2
-0.04625,-0.00625,0.09125,0.0105125,-0.10974,0.008545,0.045,0.00625,0.11875,4.5e-05,-0.0010075001,0.0009775,1742110893.144628,user_2
-0.04,0.00625,0.1675,0.0007175,0.092635006,-0.0037850002,0.04125,0.0075,0.12,-0.000855,0.00064,-0.00029,1742110893.247707,user_2
0.055,-0.0,0.0475,0.0027925,0.0042425,-0.002075,0.05125,0.005,0.1075,-0.000275,-0.00084,-0.000945,1742110893.364639,user_2
-0.07375,-0.01125,0.18375,-0.000655,-0.0375225,-0.008315,0.04375,0.00875,0.12125,0.0001375,0.00016750001,0.00061,1742110893.484115,user_2
0.03,0.00625,0.08375,-0.0012675,0.037842497,0.001115,0.04125,0.00875,0.1175,0.0001825,0.0020299999,-0.00035,1742110893.589571,user_2
0.01875,-0.0075,0.0725,0.008895,-0.0782625,0.008712499,0.04875,0.0025,0.11625,-0.00023,-0.001525,1.5e-05,1742110893.705394,user_2
-0.105,0.015,0.20875,-0.0054775,0.05429,-0.0095975,0.0475,0.00875,0.115,7.75e-05,0.0002125,0.00029,1742110893.824862,user_2
0.03625,0.005,0.0725,-0.0021525,0.052552503,-0.0124975005,0.0475,0.00875,0.11125,0.0004725,-1.5e-05,-0.00064,1742110893.93082,user_2
0.03625,-0.00875,0.06125,0.0084525,-0.069045,0.00975,0.045,0.005,0.1225,0.0,-0.000107500004,0.00058,1742110894.046632,user_2
-0.05375,0.01125,0.2,-0.010345,0.056137502,-0.0071725002,0.0475,0.00625,0.115,-0.00033500002,-0.000275,-7.75e-05,1742110894.164852,user_2
0.05375,-0.005,0.05375,-0.001145,0.019667499,0.0001975,0.0475,0.00875,0.10875,0.0010525,-1.5e-05,-0.0004425,1742110894.272694,user_2
-0.055,0.01,0.12125,0.01538,-0.10225,0.011245,0.04375,0.0025,0.1225,0.000245,-0.00113,0.00084,1742110894.386574,user_2
-0.0025,0.0,0.13125,-0.0086825,0.0670775,-0.009582501,0.04,0.01,0.1175,-0.00048750002,-0.0001225,0.0003825,1742110894.5047271,user_2
0.05125,-0.01375,0.05375,0.0013425,-0.0158225,0.00125,0.04875,0.0025,0.11375,-0.0004125,-0.00151,-0.000655,1742110894.623935,user_2
-0.085,-0.0075,0.21625,0.0040425,-0.0366525,-0.0063475,0.04375,0.00875,0.1175,0.0001525,0.00052,0.00064,1742110894.728883,user_2
0.04,0.00375,0.08,-0.004395,0.048995,-0.00566,0.04,0.00875,0.1175,-7.75e-05,0.0010825,-0.000365,1742110894.844782,user_2
0.03,-0.005,0.09,0.00711,-0.060195,0.0076599997,0.0475,0.005,0.1175,-0.00052,-0.0019675,3e-05,1742110894.964061,user_2
0.02625,0.00875,0.08,-0.000825,-0.0488275,0.01175,0.02875,0.01,0.1125,-0.00061,0.000245,-0.0004725,1742110986.316093,user_3
-0.025,0.00125,0.20875,-0.0033575,0.047927503,-0.0015575,0.0275,0.005,0.12375,0.00035,-0.0027925,-0.0016025,1742110986.430105,user_3
0.04625,0.0075,0.0575,-0.00435,0.0048074997,0.0003975,0.0275,0.00625,0.12625,0.000625,0.0042275,0.0005025,1742110986.543904,user_3
-0.06625,0.00625,0.17,0.0172425,-0.0814825,0.00348,0.03,0.00875,0.115,0.0004425,-0.0009775,-0.0001225,1742110986.657071,user_3
0.01875,0.00125,0.10875,0.0056925,0.0477,0.0001525,0.02625,0.0025,0.13125,-0.00079250004,-0.0016475001,0.00023,1742110986.773335,user_3
0.0325,0.00125,0.0725,0.003555,-0.0514975,0.010635001,0.03125,0.0075,0.11625,-0.00026,0.002075,0.0001525,1742110986.884863,user_3
-0.01375,-0.0025,0.1875,-0.005065,0.051392503,-0.0036324998,0.03125,0.005,0.11875,0.0001375,-0.0030675002,0.0001225,1742110986.997903,user_3
0.04375,0.0025,0.0575,-6e-05,0.007415,0.0028525,0.02625,0.00625,0.12875,6e-05,0.0032950002,0.00033500002,1742110987.113618,user_3
-0.05,0.00875,0.16125,-0.0013575,-0.0384375,-0.01535,0.03125,0.00875,0.115,4.5e-05,0.0003825,-0.00029,1742110987.223826,user_3
0.03375,-0.0025,0.12125,-0.0033725,0.039245,-0.0013725,0.03,0.00375,0.12875,-0.0004425,-0.000625,0.0001375,1742110987.3369532,user_3
0.04125,-0.01,0.05,0.0086525,-0.060455002,0.009095,0.03,0.0075,0.1175,-0.000365,0.00059500005,0.0004275,1742110987.449834,user_3
-0.04125,0.00625,0.20875,-0.0039525,0.06639,-0.008895,0.03375,0.005,0.12,-4.5e-05,-0.00079250004,-0.0009,1742110987.563136,user_3
0.04,-0.0025,0.0675,0.00084,0.01271,-0.0010975,0.02875,0.0075,0.125,9.25e-05,0.002335,0.00048750002,1742110987.676733,user_3
-0.06375,0.00125,0.115,0.010865,-0.1027375,0.0059825,0.03,0.00875,0.1175,0.0001525,-0.00059500005,-0.0001825,1742110987.793614,user_3
-0.03375,-0.00375,0.17375,0.00093,0.084565,-1.5e-05,0.0325,0.0025,0.12625,0.0001975,-0.00055,-0.0001975,1742110987.903125,user_3
0.05625,-0.005,0.02375,0.011445,-0.024765,-0.00319,0.03375,0.00875,0.11875,0.0003975,0.0025325,0.000625,1742110988.016744,user_3
-0.0975,0.0125,0.225,-0.00029,0.0113525,-0.0186775,0.03375,0.00625,0.115,0.0013875001,0.0,-0.0005025,1742110988.134318,user_3
0.03875,-0.00625,0.08625,-0.0020299999,0.05011,9.25e-05,0.02875,0.0,0.13375,-0.0010675,-0.0009775,0.0003975,1742110988.24293,user_3
-0.01375,-0.02625,0.075,-0.0024875,-0.0977325,0.018889999,0.0325,0.01,0.11625,-0.0007025,0.0031125,-0.000275,1742110988.3559308,user_3
-0.02375,0.02125,0.16125,0.0030375,0.0679775,-0.000107500004,0.03875,0.00375,0.11625,-0.0009925,-0.00302,-0.00032,1742110988.469101,user_3
0.03875,-0.005,0.065,-0.0032650002,-0.03032,0.00048750002,0.03,0.0075,0.1275,0.0001375,0.0014500001,0.0013875001,1742110988.582792,user_3
-0.02625,-0.005,0.19125,-0.0027774998,0.067412496,-0.0086975,0.0375,0.0075,0.11375,-0.00055,0.0014500001,-0.0007775,1742110988.695876,user_3
0.04625,0.00125,0.05375,-0.0018475,-0.002135,0.003815,0.03375,0.00625,0.1225,-0.0003975,-0.0019675,0.00087,1742110988.808949,user_3
-0.07875,0.02,0.20375,0.0044699996,-0.0285025,0.0014500001,0.03375,0.01125,0.1175,0.000535,0.001175,6e-05,1742110988.922818,user_3
0.01625,0.015,0.11125,-0.00708,0.062545,-0.0113075,0.035,0.00375,0.125,-0.0008075,-0.002625,0.00023,1742110989.036021,user_3
0.04625,0.00375,0.03875,0.0124200005,-0.06044,0.0054325,0.0325,0.01,0.12,0.0,0.00093,0.0008075,1742110989.155118,user_3
-0.065,0.00875,0.22,-0.005875,0.06047,-0.0036925,0.03625,0.0075,0.1125,0.000855,-0.001725,-0.00033500002,1742110989.263006,user_3
0.0475,0.0075,0.0575,-0.001755,0.0263825,-1.5e-05,0.0275,0.00625,0.1325,-9.25e-05,-0.0005025,0.00122,1742110989.376935,user_3
-0.03375,0.02125,0.1075,0.0163875,-0.104462504,0.0139925005,0.03,0.00875,0.1175,-0.0004275,0.0013875001,0.0001525,1742110989.495002,user_3
-0.01625,0.01125,0.1725,-0.0175325,0.063705005,-0.0056149997,0.0325,0.0075,0.12125,3e-05,-0.0038,0.0001225,1742110989.602895,user_3
0.05625,0.00625,0.05125,0.0018150001,-0.0036925,-0.0004425,0.02875,0.00875,0.125,-0.0001375,0.001465,0.000535,1742110989.716042,user_3
-0.05875,0.005,0.19125,-0.0043325,0.00789,-0.0119475005,0.02875,0.01125,0.11625,0.0,0.0004125,-0.00023,1742110989.835258,user_3
0.04875,0.00875,0.07375,-0.003235,0.0378575,0.0009,0.02875,0.00625,0.12875,-0.00087,-0.002715,0.00058,1742110989.9430242,user_3
0.02625,-0.0075,0.06875,0.0083625,-0.09575,0.011565,0.02625,0.01125,0.1225,-0.000625,0.00122,0.00045750002,1742110990.0568051,user_3
-0.0225,0.01,0.16875,-0.003845,0.061645,0.000275,0.03125,0.00875,0.11625,-0.00023,-0.0007775,-0.000245,1742110990.175144,user_3
0.04625,0.0,0.06125,0.002365,-0.0083475,0.001435,0.0275,0.01,0.125,-0.0001525,-0.000565,0.0010825,1742110990.283908,user_3
-0.0675,0.01625,0.2025,-0.008805,0.042724997,-0.01564,0.0275,0.01375,0.11875,0.00122,0.0016475001,-0.0002125,1742110990.3976378,user_3
0.0475,0.005,0.07875,-0.0057375003,0.027405001,-0.0041799997,0.03,0.0075,0.12375,0.000305,-0.0015875,0.000275,1742110990.516149,user_3
-0.01875,-0.00625,0.09,0.0036475,-0.0974875,0.0116875,0.025,0.00875,0.125,4.5e-05,0.00061,0.000365,1742110990.622712,user_3
-0.02125,0.0025,0.165,-0.0042275,0.062545,-0.0090625,0.0325,0.00625,0.1175,0.0007475,-0.0010075001,-0.0008075,1742110990.736533,user_3
0.05125,-0.01,0.03875,0.00566,-0.01677,0.0027325,0.0275,0.005,0.12625,0.00055,0.00087,0.001235,1742110990.8561332,user_3
-0.07875,0.02,0.23,-0.0040275003,0.0499875,-0.010024999,0.03,0.0125,0.1175,0.0004725,0.0007475,0.0002125,1742110990.96269,user_3
0.03125,0.01,0.06625,-0.0199125,-0.0101025,-0.0057075,0.0275,0.00625,0.1275,-0.0009,-0.001495,0.0005025,1742110991.076969,user_3
-0.07625,0.04625,0.1975,0.015335,0.0213475,-0.0083925,0.02625,0.0125,0.12,0.00029,0.001785,0.000365,1742110991.1887228,user_3
0.04625,0.01125,0.08875,-0.0167075,0.037307497,-0.008025,0.03,0.00625,0.12375,-0.00052,-0.0013275,-0.00032,1742110991.301909,user_3
0.01,-0.01375,0.06125,-0.0013425,-0.0706775,0.014785,0.03,0.00875,0.1175,0.000275,0.0019525,0.00048750002,1742110991.418859,user_3
-0.0675,0.0025,0.20125,0.001725,0.056915,-0.00496,0.03125,0.01,0.1175,0.0007175,-0.0018150001,-3e-05,1742110991.528914,user_3
0.0425,0.005,0.0625,-0.0004725,0.033355,-0.0063024997,0.02625,0.00625,0.12875,-0.0001975,-0.0009,0.0005025,1742110991.6429398,user_3
-0.02875,0.01125,0.10125,0.0093375,-0.093155,0.009795,0.0225,0.00875,0.1225,-0.0010825,0.0004275,0.000535,1742110991.756824,user_3
-0.01875,0.0025,0.16375,-0.0098275,0.0679325,-0.0016325001,0.03125,0.00875,0.1175,0.00032,-0.0021675,-0.0005025,1742110991.877544,user_3
0.05375,-0.00625,0.04375,0.0062725,-0.016327498,0.004105,0.02625,0.0075,0.12625,0.00032,0.001435,0.0009775,1742110991.982668,user_3
-0.0925,0.01125,0.17875,0.00045750002,-0.0543375,0.002075,0.02375,0.0125,0.1225,-0.0001525,0.0010525,0.00059500005,1742110992.097604,user_3
-0.015,0.0125,0.1225,-0.003525,0.0859375,-0.014145001,0.03,0.005,0.12125,-1.5e-05,-0.00177,0.000365,1742110992.208987,user_3
0.04625,-0.00125,0.04625,0.0063775,-0.040512502,0.0057975003,0.025,0.01,0.12375,0.000655,0.0009925,0.0010375,1742110992.322763,user_3
-0.08875,0.015,0.22375,-0.010545,0.061035,-0.01451,0.0275,0.01125,0.1175,0.0012675,0.0010075001,-0.00058,1742110992.44047,user_3
0.0425,-0.00125,0.065,-0.0001975,0.018082501,0.000565,0.02625,0.00375,0.1275,0.0005025,-0.0007025,0.0001375,1742110992.548754,user_3
-0.01625,0.0,0.07,0.008909999,-0.112394996,0.017424999,0.02625,0.01,0.12,-0.0018475,0.0001375,-6e-05,1742110992.6618292,user_3
-0.03375,-0.0025,0.1775,-0.00612,0.08377,-0.0125725,0.03125,0.00625,0.11875,0.0002125,-0.0003975,-0.0014500001,1742110992.778152,user_3
0.045,-0.00375,0.0425,0.00531,-0.0007775,0.0020899998,0.025,0.0075,0.1275,0.00087,0.0016175,0.00084,1742110992.8886862,user_3
-0.085,0.0125,0.1425,0.0136875,-0.0925,0.0027925,0.025,0.00875,0.12375,-0.00033500002,0.00048750002,-0.00045750002,1742110993.001843,user_3
0.00125,-0.005,0.12625,-0.0037850002,0.072464995,-0.00612,0.03375,0.00375,0.12,-0.000107500004,-0.00154,-0.00084,1742110993.118562,user_3
0.05625,-0.01375,0.04125,0.0046375,-0.0171975,0.002685,0.0275,0.00625,0.125,0.0006875,0.0010375,0.00061,1742110993.2297,user_3
-0.09875,0.00125,0.21375,0.00714,-0.04959,-0.0058899997,0.02375,0.00875,0.1225,-0.0010825,0.000305,-7.75e-05,1742110993.342844,user_3
0.0025,0.005,0.1175,-0.0061350004,0.0514375,-0.005585,0.03,0.00375,0.125,-0.00079250004,-0.002395,-0.00055,1742110993.461922,user_3
0.005,-0.00875,0.07125,0.0080875,-0.06656,0.011047499,0.0275,0.0075,0.1225,1.5e-05,0.0014500001,0.0006875,1742110993.5789518,user_3
-0.0675,-0.0175,0.19375,-0.0066975,0.090239994,-0.008485,0.03,0.01,0.11625,0.00064,0.00084,-0.0007625,1742110993.683755,user_3
0.04375,0.00125,0.04,-0.000245,0.0030375,0.0039825,0.0275,0.005,0.1275,-0.0001975,-0.0007025,0.00026,1742110993.799053,user_3
-0.085,0.01125,0.19625,0.0041799997,-0.0625775,0.00322,0.025,0.01,0.1225,9.25e-05,0.0014500001,-0.000365,1742110993.91071,user_3
0.015,-0.005,0.1075,-0.00061,0.048065,-0.0057225,0.03375,0.00125,0.12125,-3e-05,-0.0013125,-0.00035,1742110994.0239732,user_3
0.0425,-0.00375,0.05375,0.0072775004,-0.046767503,0.002395,0.02875,0.00875,0.12125,0.000107500004,0.000565,0.0006875,1742110994.139428,user_3
-0.09,0.02,0.2175,-0.01004,0.072037496,-0.01657,0.03,0.00875,0.1175,0.00084,0.001725,-0.00091500004,1742110994.259061,user_3
0.05375,0.0125,0.05,0.00151,0.0374,-0.003235,0.03125,0.00375,0.125,-0.0004425,-0.001435,0.00059500005,1742110994.363917,user_3
-0.0625,-0.0125,0.0775,0.00586,-0.1419975,0.01033,0.02625,0.0075,0.12375,-0.00059500005,0.0013275,0.0002125,1742110994.479226,user_3
-0.03625,-0.00625,0.17125,0.0012050001,0.089522496,0.0019675,0.03625,0.00625,0.11375,-0.00029,-0.00055,-0.00154,1742110994.599189,user_3
0.06,-0.0075,0.0275,0.007125,-0.020860001,0.002075,0.03,0.005,0.1275,0.0001525,0.00032,0.00125,1742110994.704706,user_3
-0.10375,0.015,0.23625,-0.0062399996,-0.0020599999,-0.00142,0.02625,0.01,0.11875,7.75e-05,0.0012975,-0.00029,1742110994.819503,user_3
0.0325,0.00375,0.07875,-0.0054025003,0.0432425,-0.0057675,0.0325,0.00125,0.125,-0.0009925,-0.0036324998,-9.25e-05,1742110994.931909,user_3
0.0025,-0.005,0.065,0.0032950002,-0.08508249,0.012635,0.03,0.01,0.12,0.00045750002,0.0019375,0.00061,1742110995.0458372,user_3
-0.0675,0.005,0.19875,-0.011565,0.0476375,-0.013182499,0.0325,0.00625,0.115,0.000945,-0.0007775,-0.00079250004,1742110995.160089,user_3
0.0325,-0.00125,0.0725,-0.0013275,0.0343775,-0.003525,0.0275,0.005,0.12875,0.0,0.00016750001,0.0008075,1742110995.279776,user_3
0.02875,0.00625,0.07875,0.0057375003,-0.0659625,0.01355,0.03125,0.00625,0.11875,-0.0001375,0.00055,-7.75e-05,1742110995.387778,user_3
-0.0325,0.005,0.17875,-0.0065450002,0.004485,-0.000565,0.0325,0.00625,0.11625,0.0007475,-0.00122,-0.0001525,1742110995.501776,user_3
0.0275,-0.0,0.10125,0.0016025,0.04599,-0.00174,0.02875,0.00375,0.12875,-1.5e-05,0.0007325,0.0004725,1742110995.620136,user_3
0.045,-0.00125,0.0375,0.002,-0.055724997,0.007065,0.0325,0.0075,0.11625,0.0001225,0.001465,0.0004125,1742110995.727602,user_3
-0.07125,-0.00625,0.215,-0.0006875,0.028870001,-0.0042875,0.03,0.00875,0.11875,0.0013425,0.0004125,-0.000535,1742110995.840693,user_3
0.035,0.00625,0.07125,-0.000625,0.0387875,-0.0015725,0.0325,0.0025,0.13,-0.0003825,-0.001405,6e-05,1742110995.963083,user_3
0.0375,0.00125,0.06625,-0.0048975,-0.05954,0.0058449996,0.03375,0.01,0.11625,0.000565,0.0019225,0.000107500004,1742110996.067677,user_3
-0.04625,0.01,0.20875,-0.0029000002,0.050474998,9.25e-05,0.03125,0.00625,0.12,0.00142,0.0013875001,4.5e-05,1742110996.1805792,user_3
0.0475,0.00625,0.0575,-7.75e-05,0.027955,-0.0018625,0.03375,0.00375,0.12625,-0.00059500005,-0.00048750002,0.0001525,1742110996.299915,user_3
-0.00375,-0.00125,0.0625,0.0007475,-0.109772496,0.01538,0.03625,0.00375,0.1175,-0.000365,0.000945,1.5e-05,1742110996.40773,user_3
-0.0725,0.00875,0.205,-0.0119175,0.0614325,-0.01056,0.035,0.0075,0.115,0.0007625,0.00035,-0.0009,1742110996.520689,user_3
0.0425,0.0025,0.0475,0.005005,0.0210725,-0.0010525,0.03375,0.0025,0.12625,-1.5e-05,-0.00016750001,0.000655,1742110996.6402829,user_3
-0.045,0.01,0.10625,0.0131675,-0.0980825,0.0077049998,0.0325,0.00625,0.11875,-0.00029,0.00059500005,7.75e-05,1742110996.747744,user_3
-0.02375,0.00125,0.17625,-0.00154,0.0768125,-0.006775,0.03875,0.00375,0.115,0.0001825,-0.0012825,-0.00113,1742110996.860851,user_3
0.06125,0.00125,0.04375,0.005265,0.0025025,0.00029,0.0325,0.0025,0.1275,0.00026,0.000945,0.0007775,1742110996.97935,user_3
-0.055,0.00375,0.09875,0.0128175,-0.128905,0.0087275,0.03375,0.00375,0.12,-0.00055,0.00035,-3e-05,1742110997.087753,user_3
-0.00625,0.0,0.1325,0.00566,0.0626525,0.0048674997,0.03875,0.005,0.11375,0.00052,-0.0008075,-0.000945,1742110997.2007942,user_3
0.04125,-0.01375,0.05375,0.01036,-0.06749,0.011765,0.0325,0.00125,0.1275,-0.0002125,0.000855,0.00033500002,1742110997.320159,user_3
-0.125,0.03,0.225,0.00087,0.0364675,-0.0057825,0.0325,0.01,0.11625,0.0001525,0.0006725,-0.0004125,1742110997.427603,user_3
0.03,0.00375,0.0725,-0.007965,0.0470125,-0.00972,0.03625,-0.00125,0.12625,-0.000655,-0.0024875,-9.25e-05,1742110997.540926,user_3
0.02,-0.00875,0.06625,0.00389,-0.0818325,0.014785,0.03375,0.0075,0.11875,-9.25e-05,0.0018925001,0.0004125,1742110997.660682,user_3
-0.07875,-0.00125,0.19125,-0.0043325,0.046142504,-0.0101325,0.03625,0.00875,0.11625,-0.0003825,0.001525,-0.00064,1742110997.76768,user_3
0.03625,0.0,0.0625,0.0016325001,0.021514999,0.0010375,0.03625,0.00125,0.12625,-0.000855,-0.0013575,0.000275,1742110997.880704,user_3
-0.03375,0.01875,0.1175,0.014495,-0.073045,-0.0002125,0.035,0.0075,0.11875,-4.5e-05,0.0010825,0.0001225,1742110998.000135,user_3
-0.01625,0.0175,0.1525,-0.011215,0.0611875,-0.0117175,0.03875,0.00375,0.11625,0.0003825,-0.0007175,-0.0007325,1742110998.107705,user_3
0.04625,-0.005,0.06375,0.0016025,0.0004725,-0.0009,0.035,0.00375,0.125,0.0001525,0.000625,0.00061,1742110998.2215,user_3
-0.0675,0.01,0.165,0.0140225,-0.0624075,-0.0007775,0.03375,0.00375,0.12125,-0.0005025,0.00048750002,0.00033500002,1742110998.34012,user_3
0.00625,0.005,0.125,-0.005295,0.050537497,-0.0038299998,0.04125,0.005,0.11375,0.0007025,-0.0011900001,-0.00029,1742110998.447676,user_3
0.03,-0.00375,0.055,0.00499,-0.0572825,0.0092475,0.035,0.00375,0.12625,-0.0001525,0.000535,0.0006725,1742110998.5616472,user_3
-0.0825,0.00125,0.19,-0.0018,0.04193,-0.0054325,0.03375,0.0075,0.1175,0.0001975,0.0010825,-1.5e-05,1742110998.680768,user_3
0.03375,0.0025,0.07625,-0.00052,0.0429225,-0.0061500003,0.0375,0.0025,0.1225,-0.0001375,-0.0021525,0.0001975,1742110998.787692,user_3
0.02125,-0.005,0.0725,0.0045324997,-0.06935,0.0128175,0.03625,0.005,0.11875,-0.0001825,-0.00033500002,0.0010075001,1742110998.901685,user_3
-0.0725,0.01,0.195,-0.010255001,0.051939998,-0.0058449996,0.03125,0.00875,0.12125,0.000275,6e-05,7.75e-05,1742110999.020627,user_3
0.045,-0.00875,0.06125,0.002075,0.0364525,-0.0036925,0.03375,0.0025,0.12625,-0.0006875,-0.00151,-0.0003825,1742110999.128835,user_3
-0.03125,-0.00625,0.075,0.009582501,-0.1101075,0.0122675,0.035,0.0075,0.1175,-0.000107500004,0.0007175,0.0,1742110999.242626,user_3
-0.0275,-0.00125,0.16875,-0.0104975,0.0747525,-0.0029000002,0.0375,0.00625,0.11375,0.0007625,-0.0005025,-0.001235,1742110999.360328,user_3
0.0475,-0.01,0.045,0.002715,-0.010545,0.0034325,0.0325,0.0025,0.12875,0.000245,-0.0008075,0.000855,1742110999.4795468,user_3
-0.07125,-0.00875,0.16625,-0.0010075001,-0.047805,-0.003555,0.03125,0.0075,0.11875,-0.0007475,0.0012675,-0.0001375,1742110999.5827782,user_3
-0.00375,0.00875,0.13625,-0.0069274995,0.073945,-0.00534,0.03875,0.005,0.11375,-0.00016750001,-0.0020899998,-0.0009625,1742110999.7008262,user_3
0.04125,-0.01375,0.06375,-0.0054175,-0.008239999,0.0009775,0.03125,0.005,0.12875,9.25e-05,0.00033500002,0.0007625,1742110999.819985,user_3
-0.06125,0.01625,0.17125,0.007965,-0.06047,-0.0027774998,0.03375,0.00625,0.1175,-0.0006875,0.000535,-6e-05,1742110999.924795,user_3
-0.0,0.01,0.14125,-0.00235,0.061675,-0.0074475002,0.0375,0.005,0.1175,0.0005025,-0.001465,-0.00045750002,1742111000.04095,user_3
0.04375,-0.00375,0.055,0.0039975,-0.015685,0.0013575,0.03,0.00375,0.12625,-3e-05,0.0007325,0.0007325,1742111000.160596,user_3
-0.0675,0.0175,0.1825,0.0016025,-0.0289925,-0.0071725002,0.03,0.00875,0.11875,-0.0004425,0.0007475,-0.0003825,1742111000.2666812,user_3
0.0225,0.00625,0.12125,-0.00055,0.0572825,-0.003585,0.03875,0.00375,0.1175,0.0004275,-0.0019075,-0.00084,1742111000.380755,user_3
0.04125,-0.00875,0.06,0.0052175,-0.0226125,0.0027774998,0.02875,0.005,0.12625,0.0002125,0.0016475001,0.0007025,1742111000.500196,user_3
-0.085,0.0075,0.1825,0.0013875001,-0.0485675,-0.0049125,0.03125,0.00625,0.11875,-0.000535,-0.00091500004,-0.000245,1742111000.605748,user_3
-0.02375,0.00875,0.155,-0.00091500004,0.086075,-0.0077675,0.0375,0.00375,0.11875,0.0001375,-0.001145,-0.00058,1742111000.72099,user_3
0.0575,0.00375,0.03375,0.0081625,-0.02156,0.003845,0.03125,0.00625,0.12375,1.5e-05,0.0015725,0.000535,1742111000.840107,user_3
-0.0325,-0.0075,0.14125,-0.005005,-0.049652502,-0.00264,0.03,0.00625,0.11875,-0.000245,4.5e-05,-0.00016750001,1742111000.947171,user_3
-0.02625,-0.00375,0.16375,-0.0048375,0.0540775,-0.0045324997,0.03375,0.005,0.1225,-0.00016750001,-0.00142,-0.0004275,1742111001.06099,user_3
0.0425,-0.0075,0.06625,0.0013275,0.017212499,0.000107500004,0.0325,0.005,0.12375,-0.00032,0.00091500004,0.00023,1742111001.180685,user_3
-0.0175,0.01,0.12125,0.008195,-0.069732495,0.0047750003,0.0325,0.005,0.1175,-0.0002125,0.0007325,0.00016750001,1742111001.2889018,user_3
0.00125,-0.0075,0.1725,-0.00702,0.0517875,-0.0007175,0.035,0.00625,0.11625,0.00064,-0.000655,-0.0003825,1742111001.4029078,user_3
0.0375,0.0075,0.04875,0.005325,-0.0173025,0.0048525,0.03125,0.005,0.1275,-0.00045750002,0.000535,0.000565,1742111001.520415,user_3
-0.0625,0.0,0.18125,-0.00409,-0.023835,-0.0098575,0.03125,0.0075,0.1175,-0.0001225,0.00116,-0.0001975,1742111001.640397,user_3
0.02,0.00125,0.09375,-0.00079250004,0.027145,0.0010975,0.03625,0.0025,0.12,0.000565,-0.0015575,-0.0004125,1742111001.744797,user_3
-0.0025,-0.0075,0.07125,0.004945,-0.0714425,0.00531,0.0325,0.0075,0.12375,0.0001225,0.0016025,0.00032,1742111001.860276,user_3
-0.0775,0.00875,0.185,-0.006225,0.06488,-0.009505,0.03,0.0075,0.1175,0.0007625,0.0009775,-0.000565,1742111001.979546,user_3
0.03125,0.01,0.07375,0.00116,0.030257499,-0.0031424998,0.035,0.00125,0.125,-7.75e-05,-0.00091500004,-0.00032,1742111002.086678,user_3
-0.00625,0.00375,0.09625,0.000107500004,-0.0647275,0.009262499,0.03375,0.00625,0.11875,0.000365,0.000655,0.0001525,1742111002.200444,user_3
-0.0375,0.00625,0.1775,-0.0056775,0.0414725,-0.0042125,0.0325,0.005,0.12,4.5e-05,0.0001225,-0.0007175,1742111002.32024,user_3
0.02875,-0.00125,0.0775,0.0025325,0.010955,0.0010375,0.035,0.0025,0.125,-0.00045750002,-0.000275,0.00029,1742111002.4276931,user_3
-0.03875,0.00375,0.12375,0.0118875,-0.0679775,0.007995,0.0325,0.00625,0.12,-0.0007325,0.0001825,0.000365,1742111002.540803,user_3
-0.03875,0.00625,0.16,-0.0069875,0.050065,-0.006775,0.0375,0.00625,0.115,0.0005025,-0.0001375,-0.000245,1742111002.6604412,user_3
0.0275,-0.01,0.07875,0.0022274998,0.0004725,0.0011900001,0.03375,0.00125,0.125,0.00045750002,6e-05,0.0007775,1742111002.768702,user_3
-0.0425,-0.0025,0.11625,0.0072175004,-0.073120005,0.0083,0.035,0.0075,0.11875,-0.000655,0.0004275,9.25e-05,1742111002.881921,user_3
-0.0375,0.0025,0.155,-0.0090475,0.0641175,-0.0076149995,0.0375,0.00625,0.115,0.000535,-4.5e-05,-0.0007475,1742111002.9994612,user_3
0.03875,-0.0075,0.06875,0.00148,0.0142675,-0.0019675,0.03375,0.0025,0.12625,-6e-05,-0.0007025,0.000365,1742111003.109824,user_3
-0.01875,-0.0025,0.0975,0.009262499,-0.0927125,0.0115825,0.03625,0.00625,0.11875,-0.0004425,0.0004425,0.0003975,1742111003.2239392,user_3
-0.02,0.005,0.1575,-0.0042875,0.04866,-0.0034025,0.03625,0.00625,0.11375,0.0009,0.000655,-0.000625,1742111003.3398452,user_3
0.035,-0.00625,0.08,0.00125,0.0072775004,-0.0030375,0.03375,0.0025,0.1275,-0.0001225,-0.000305,0.00026,1742111003.451821,user_3
-0.035,0.00125,0.11375,0.001435,-0.082412496,0.01004,0.03625,0.00625,0.1175,-0.00029,0.0004125,-9.25e-05,1742111003.56583,user_3
-0.02,0.0,0.14625,0.0120075,0.048965,0.0033275,0.0375,0.00625,0.11625,0.0010825,0.0003975,-0.0004425,1742111003.6799738,user_3
0.02875,-0.005,0.07,0.0039825,-0.00557,-0.0006725,0.035,0.0025,0.12625,-0.0001375,-0.00035,0.00052,1742111003.799079,user_3
-0.07,-0.01375,0.15125,-0.0066075,-0.041564997,-0.0010525,0.03125,0.00625,0.11875,-0.00171,-0.00035,0.000365,1742111003.908098,user_3
-0.02625,0.00125,0.15625,-0.005905,0.0661325,-0.0066975,0.03875,0.00625,0.1175,-0.0001825,-0.00177,-0.00059500005,1742111004.021906,user_3
0.04,-0.0175,0.05875,0.0018775001,-0.0028074998,-0.001465,0.0325,0.00375,0.12625,-0.00023,0.0010225,0.000565,1742111004.140136,user_3
-0.05875,0.0025,0.16,-0.0038,-0.0334775,-0.0037525,0.0325,0.0075,0.12,-0.0005025,-3e-05,0.0001975,1742111004.259121,user_3
0.00375,0.00375,0.1375,-0.00467,0.063035,-0.0065925,0.03875,0.00625,0.11625,0.000305,-0.0018475,-0.000245,1742111004.363708,user_3
0.045,-0.00875,0.05875,0.0019824998,-0.009095,0.002,0.0325,0.005,0.12625,0.00035,0.0015575,0.000855,1742111004.479449,user_3
-0.06375,0.00375,0.15375,0.00473,-0.066865,0.00235,0.0325,0.0075,0.12,-0.00058,0.00023,0.0001525,1742111004.599882,user_3
-0.005,0.00375,0.14625,-0.00331,0.0756375,-0.009675,0.03625,0.0075,0.11625,0.0001225,-0.00113,-0.0004725,1742111004.705929,user_3
0.04625,-0.005,0.055,0.0045324997,-0.0081625,0.002715,0.0325,0.005,0.1275,-9.25e-05,0.0010825,0.0004275,1742111004.8196638,user_3
-0.07125,-0.00625,0.16,0.0075525,-0.074692495,0.00079250004,0.03375,0.0075,0.1175,-0.0004125,0.00033500002,0.00016750001,1742111004.94217,user_3
-0.01625,-0.00125,0.14625,-0.0010675,0.076905,-0.0094449995,0.03875,0.0075,0.115,0.00079250004,-0.00091500004,-0.00079250004,1742111005.046968,user_3
0.0475,-0.0125,0.04625,0.0010075001,-0.0337975,0.0045775,0.03375,0.0025,0.1275,3e-05,0.00079250004,0.0004425,1742111005.1607628,user_3
-0.04125,0.02625,0.2325,0.002365,0.053099997,-0.00998,0.02875,0.01,0.12,-0.000535,0.00079250004,0.00035,1742111005.279627,user_3
0.0475,-0.025,0.05125,-0.004485,0.0058449996,-0.000107500004,0.03875,0.0025,0.12125,-0.0009925,-0.0015725,-0.0007775,1742111005.388855,user_3
-0.06,0.01625,0.15375,0.00583,-0.0685425,0.0136425,0.03625,0.00625,0.11875,0.000305,0.001495,0.00116,1742111005.502793,user_3
0.00875,0.00875,0.15125,-0.0025775002,0.059462503,-0.01477,0.0375,0.01,0.115,0.00035,-0.000275,-0.0009,1742111005.6197388,user_3
0.0425,-0.0275,0.04875,0.003555,-0.0186,0.0077199996,0.035,0.0025,0.12625,0.00016750001,0.0013275,0.00035,1742111005.7396638,user_3
-0.06625,0.02875,0.18125,0.0110925,-0.03543,0.0092325,0.035,0.00875,0.1175,-0.00052,-4.5e-05,0.00016750001,1742111005.844765,user_3
0.00125,0.00125,0.13,-0.0061350004,0.04164,-0.0110025,0.04,0.00625,0.115,0.000245,-0.0018475,-0.0009775,1742111005.963171,user_3
0.03,-0.0325,0.06625,0.00079250004,-0.0101925,0.0074775,0.035,0.00375,0.125,0.00026,0.00061,0.00064,1742111006.0801432,user_3
-0.0575,0.035,0.185,0.00531,-0.0104825,0.00087,0.03375,0.00875,0.12125,-0.000625,0.00052,0.00058,1742111006.186826,user_3
0.01,0.00125,0.10875,0.000107500004,0.043075,-0.0077675,0.04,0.00625,0.11625,0.00032,-0.000625,-0.00058,1742111006.300632,user_3
0.04375,-0.0175,0.06,0.002625,-0.0193775,0.0078275,0.035,0.00625,0.12375,9.25e-05,0.00033500002,0.0007475,1742111006.421482,user_3
-0.09125,0.02125,0.2225,-0.003875,-0.0036175,-0.008042499,0.0325,0.00875,0.12,-0.0007775,0.0001525,-0.0001225,1742111006.528043,user_3
0.01625,-0.00125,0.09625,-0.0007325,0.049865,-0.0116425,0.04,0.00375,0.11625,0.0001975,-0.0008075,-0.001465,1742111006.641832,user_3
0.04375,-0.02375,0.06375,0.0039975,-0.03421,0.0048674997,0.035,0.00375,0.12375,0.0004725,0.000855,0.00029,1742111006.7593842,user_3
-0.08,0.00125,0.2075,-0.00229,0.008880001,-0.0075825,0.0325,0.00875,0.12,-0.0007175,0.0001375,-0.00045750002,1742111006.879651,user_3
0.0225,-0.0125,0.07875,0.0018300001,0.034819998,-0.0016625,0.0425,0.00375,0.1175,-1.5e-05,-0.001755,-0.0007175,1742111006.983639,user_3
0.03625,0.00375,0.0675,0.0056925,-0.0479425,0.00409,0.035,0.00625,0.1225,0.000535,0.001525,0.000885,1742111007.100158,user_3
-0.075,-0.00375,0.2025,-0.0145725,0.048095003,-0.009185,0.0325,0.0075,0.12125,-0.0007025,3e-05,-0.0005025,1742111007.220382,user_3
0.03,0.01125,0.08375,-0.0018,0.03508,-0.0010675,0.04125,0.0025,0.11875,0.000107500004,-0.0015725,-0.00035,1742111007.325666,user_3
0.01625,0.00125,0.07625,0.0046375,-0.06723,-3e-05,0.03625,0.0075,0.12,0.0002125,0.00122,0.0003975,1742111007.442286,user_3
-0.03125,0.005,0.18375,-0.0065300004,0.06256,0.0012050001,0.03375,0.0075,0.11875,4.5e-05,0.0004125,-0.00058,1742111007.560158,user_3
0.04375,0.0125,0.065,0.0036324998,0.0152275,-0.00079250004,0.04125,0.0,0.12125,-4.5e-05,-0.0018150001,-0.00016750001,1742111007.666621,user_3
-0.0525,-0.00625,0.10375,0.0077975,-0.10994,0.0069125,0.03625,0.0075,0.11875,0.000625,0.0004275,0.0007475,1742111007.780152,user_3
-0.04375,-0.00625,0.1675,-0.002045,0.061462503,0.00061,0.0375,0.00625,0.11625,-7.75e-05,0.00016750001,-0.00064,1742111007.900455,user_3
0.04625,-0.00625,0.055,0.0048674997,0.0114750005,-0.0023800002,0.03625,0.00125,0.12625,-0.0004725,-0.00113,0.00033500002,1742111008.007658,user_3
-0.06375,-0.01125,0.145,0.0078425,-0.0726475,0.0009,0.035,0.00625,0.12,-0.000655,0.0009625,0.0001375,1742111008.12175,user_3
-0.0,-0.00125,0.13875,-0.003235,0.047485,-9.25e-05,0.0375,0.00875,0.11375,0.0007625,1.5e-05,-0.00122,1742111008.24007,user_3
0.03625,0.00125,0.085,0.0010225,-0.00685,-0.0016625,0.03625,0.00125,0.125,0.00052,-0.0006725,0.0001225,1742111008.3592992,user_3
-0.04375,-0.005,0.15875,0.0024725,-0.0308225,-0.0018150001,0.035,0.00625,0.12125,0.00023,-0.0016325001,-9.25e-05,1742111008.46387,user_3
0.015,0.005,0.11,-0.0016025,0.03215,0.00079250004,0.035,0.00625,0.12125,0.000625,0.0016625,-0.001755,1742111008.580332,user_3
0.0375,0.00625,0.08375,0.0030825,-0.0225225,-0.00052,0.0375,-0.0,0.115,0.00035,-0.0005025,-0.0001225,1742111008.699887,user_3
-0.04875,-0.01,0.17625,-0.0098875,0.00798,-0.0089275,0.03125,0.00625,0.12875,1.5e-05,-0.0003975,-0.00061,1742111008.804916,user_3
0.02625,-0.0025,0.05875,0.026185,0.0124675,0.012085,0.01625,0.00875,0.11875,-6e-05,-0.00026,-1.5e-05,1742111122.23325,user_4
-0.07875,-0.00875,0.1525,-0.00798,-0.064072505,-0.0116425,0.02,0.00625,0.12375,0.000305,-0.003235,-0.0010825,1742111122.3453991,user_4
-0.01,0.0125,0.10375,0.0068825004,0.0508125,0.0014500001,0.0125,0.0025,0.12875,0.0005025,0.002685,0.0005025,1742111122.45924,user_4
0.0125,0.03625,0.0925,-0.0019375,-0.033462502,0.001175,0.01625,0.00875,0.12,-0.00061,-0.0013425,0.00033500002,1742111122.573654,user_4
-0.0825,-0.00125,0.185,-0.017135,0.04428,-0.019469999,0.015,0.00375,0.12625,0.000245,-0.00113,7.75e-05,1742111122.685324,user_4
0.01875,0.0225,0.07375,0.016525,0.027802499,0.01027,0.01375,0.0075,0.125,-0.0001375,0.0018150001,0.00023,1742111122.798314,user_4
-0.06125,0.0075,0.08875,-0.0010825,-0.105849996,-0.0016325001,0.01875,0.0075,0.12,0.0009,0.0004725,-0.000305,1742111122.911297,user_4
-0.05,0.02125,0.13625,-0.014007499,0.095597506,-0.0020299999,0.01375,0.005,0.13,-0.0002125,-0.0020150002,0.00045750002,1742111123.024402,user_4
0.02375,0.04875,0.06375,0.0063024997,-0.0416725,-0.002105,0.01375,0.00875,0.125,0.0,0.0022425,-0.000245,1742111123.137324,user_4
-0.09625,0.00125,0.1825,-0.008407501,0.02176,-0.01126,0.02,0.0025,0.11875,0.0005025,-0.0007025,-0.000275,1742111123.253656,user_4
0.005,0.03,0.09,0.0125575,0.025772499,0.0134725,0.01375,0.0075,0.1275,0.00023,-0.0016775,0.0012050001,1742111123.364338,user_4
-0.0475,0.00375,0.07375,-0.00055,-0.091155,-0.008850001,0.01125,0.0075,0.12625,0.0004425,0.0010675,-0.0006875,1742111123.47732,user_4
-0.0525,0.02125,0.1275,-0.000365,0.094955005,0.0074625,0.01625,0.00125,0.125,0.00023,-0.00033500002,0.0003825,1742111123.5938969,user_4
0.0125,0.0475,0.07625,0.00673,-0.02974,-0.000855,0.01375,0.0075,0.12375,-0.000107500004,0.00023,-7.75e-05,1742111123.703467,user_4
-0.1075,0.01625,0.2025,-0.004195,0.032455,-0.007675,0.01625,0.0025,0.12625,-0.0001375,0.000535,-0.000825,1742111123.817374,user_4
0.025,0.02375,0.0775,0.0121,0.0325,0.0063925,0.01625,0.00375,0.1275,0.00058,0.0044400003,0.000535,1742111123.934058,user_4
-0.05375,-0.00875,0.07375,-0.0068675,-0.105652496,-0.0029749998,0.0225,0.00625,0.11875,0.0003975,0.001725,-0.00064,1742111124.0445,user_4
-0.05375,0.0125,0.1275,-0.002715,0.08677749,-0.00647,0.02125,0.0,0.12625,0.0001375,-0.00059500005,-9.25e-05,1742111124.158457,user_4
0.01375,0.01625,0.085,9.25e-05,-0.0027625,-0.0049125,0.02,0.005,0.12375,0.0001825,0.001405,0.000305,1742111124.27439,user_4
-0.0475,-0.0025,0.17,-0.012055,0.0488275,-0.0037525,0.02625,0.00125,0.11875,-0.0001375,0.0010525,-0.0007625,1742111124.386455,user_4
0.05125,0.01875,0.075,-0.0089275,0.024430001,0.0076599997,0.0225,0.0025,0.125,3e-05,-4.5e-05,0.00079250004,1742111124.5002382,user_4
-0.03875,0.01,0.0925,0.009095,-0.0998225,-0.00122,0.02125,0.005,0.1225,0.0001525,-7.75e-05,9.25e-05,1742111124.6148338,user_4
-0.065,0.015,0.16875,-0.0042875,0.0102225,-0.002595,0.02375,0.00125,0.12625,-0.0001225,9.25e-05,-0.00052,1742111124.7263172,user_4
0.01875,0.02625,0.10875,0.0054475004,0.0685575,-0.00499,0.025,0.00375,0.12125,-0.00055,0.00122,0.00048750002,1742111124.839263,user_4
0.04125,0.00625,0.06,0.013305,-0.0351725,0.002655,0.025,0.00375,0.12,-0.0001225,0.0006875,-0.00029,1742111124.954633,user_4
-0.03375,0.01,0.15625,-0.0023800002,-0.00592,-0.00154,0.02875,0.0025,0.11875,0.0004725,-0.0014500001,-0.0004275,1742111125.066352,user_4
0.02625,0.00625,0.11,-0.0013725,0.0284275,0.0010375,0.0225,0.00125,0.13125,0.0001225,0.00174,0.0007025,1742111125.179132,user_4
0.0225,-0.0025,0.0525,0.002305,-0.07470749,0.00679,0.02625,0.005,0.1175,9.25e-05,0.001725,9.25e-05,1742111125.294573,user_4
-0.08,0.01125,0.19375,-0.0071575,0.02501,-0.0060575,0.03,0.00125,0.12125,-0.0001525,-0.0025025,-0.000945,1742111125.405476,user_4
0.0175,0.02,0.1075,-0.00113,0.056197498,-0.006715,0.02625,0.0,0.12625,0.0010675,0.0026099999,0.000655,1742111125.519169,user_4
0.03625,0.00625,0.06375,0.0031424998,-0.044175,0.0050500003,0.0275,0.00375,0.1175,0.000305,0.000275,0.00079250004,1742111125.635872,user_4
-0.0475,0.025,0.16875,-0.008575,-0.0071875,-0.0059975,0.02875,0.00125,0.1225,1.5e-05,-0.0028525,-0.0007025,1742111125.745397,user_4
-0.00375,0.0275,0.14125,-0.0001225,0.05449,-0.0051574996,0.02375,-0.0025,0.13,6e-05,0.0016025,0.00033500002,1742111125.859231,user_4
0.04,0.0225,0.06,-0.002305,-0.0093375,0.001405,0.0275,0.0025,0.11875,-0.00026,0.0010825,0.00055,1742111125.9758248,user_4
-0.03125,0.01875,0.1475,0.0012825,-0.025757499,-0.0025775002,0.0275,0.0025,0.1175,0.0007475,-0.0009625,-0.00052,1742111126.0853992,user_4
0.015,0.025,0.14625,0.00357,0.046860002,-0.0028225,0.025,-0.00125,0.1325,-0.00026,-0.0009925,0.000365,1742111126.199434,user_4
0.04125,0.01,0.05125,0.0054025003,-0.0361775,0.0036925,0.02375,0.0025,0.12,-0.000365,0.0018,0.00048750002,1742111126.315924,user_4
-0.0775,0.01625,0.185,-0.014495,0.01976,-0.00821,0.03,0.00125,0.1175,0.0005025,-0.0010375,-0.0009,1742111126.426264,user_4
0.02,0.02,0.09625,0.009675,0.045912497,0.0032650002,0.02375,-0.00125,0.12875,0.00055,0.0009625,0.00059500005,1742111126.540281,user_4
0.03625,0.01625,0.07375,0.0061025,-0.033462502,0.0014500001,0.0275,0.0025,0.12125,-0.0008075,0.000245,0.00035,1742111126.6562738,user_4
-0.0725,0.0125,0.1775,-0.01213,-0.013702501,-0.008225,0.02875,0.00125,0.12,-0.0001375,-0.0010225,-0.00023,1742111126.768437,user_4
-0.005,0.0225,0.12625,0.00091500004,0.0720225,-0.00116,0.025,-0.00125,0.12625,-9.25e-05,0.001405,0.00113,1742111126.8824031,user_4
0.04125,0.01125,0.05625,0.0086975,-0.0098575,0.001115,0.0275,0.00375,0.12125,-0.00033500002,-0.0001525,0.0004125,1742111126.996842,user_4
-0.06875,-0.00375,0.1725,-0.00084,-0.0482475,-0.00821,0.0275,0.00125,0.12,0.0005025,-0.000365,0.0001375,1742111127.116676,user_4
0.00125,0.01875,0.1325,-0.006165,0.07138,-0.001115,0.02375,-0.0,0.12875,-0.00084,-0.0007175,0.000825,1742111127.224424,user_4
0.04,0.01625,0.0575,0.0089724995,-0.025817499,0.0018300001,0.0275,0.00625,0.1175,-0.00032,-0.0001375,0.000655,1742111127.3382988,user_4
-0.09,0.01125,0.19375,-0.009705,-0.026672501,-0.008515,0.02875,0.00375,0.11875,0.00059500005,-0.000945,-0.000625,1742111127.4566772,user_4
0.00625,0.01875,0.12125,-0.00267,0.071762495,-0.0007775,0.0225,0.0,0.13,-0.000275,0.0009625,0.000945,1742111127.565182,user_4
0.0325,0.02125,0.05,0.0155325,-0.0340425,0.0044400003,0.0275,0.005,0.1175,1.5e-05,-0.0002125,-0.0001225,1742111127.6783302,user_4
-0.10375,0.01125,0.1975,-0.0083625,-0.028137501,-0.0131675,0.03,0.00125,0.11875,0.0008075,-0.0007475,-0.00061,1742111127.796463,user_4
-0.005,0.01,0.115,-0.0007325,0.07008249,-0.00055,0.0225,-0.00125,0.13,-0.0008075,0.0010525,3e-05,1742111127.9063098,user_4
0.02625,0.0125,0.065,0.002625,-0.03128,0.008957501,0.0275,0.00375,0.1175,0.0001525,0.0005025,3e-05,1742111128.020218,user_4
-0.08875,0.01,0.17,-0.0061500003,-0.0319225,-0.0036475,0.03125,0.00125,0.11875,-1.5e-05,0.0002125,-0.001235,1742111128.137805,user_4
-0.04125,0.00875,0.14125,-0.0030375,0.0679475,-0.0101025,0.025,-0.00125,0.13,-0.00064,0.0004125,0.00029,1742111128.247301,user_4
0.03375,0.005,0.0725,0.004945,0.011245,1.5e-05,0.02875,0.00375,0.12125,-0.000565,0.0012050001,0.0006875,1742111128.361326,user_4
-0.0625,-0.0075,0.10375,-0.0034025,-0.10791001,0.0137325,0.02875,0.005,0.12375,-0.0005025,0.00264,0.0004125,1742111128.47788,user_4
-0.0525,0.00625,0.1425,0.0057675,0.08693,-0.008880001,0.035,0.0025,0.12375,-0.001435,0.002655,0.000825,1742111128.588425,user_4
0.03625,0.00625,0.0625,0.00798,-0.02388,0.0036175,0.03625,0.005,0.1175,-0.000535,0.0032950002,0.0020599999,1742111128.702398,user_4
-0.06625,0.03375,0.165,-0.0021675,-0.0462025,0.0049125,0.04,0.0075,0.115,0.0007775,0.0022274998,0.0016175,1742111128.81752,user_4
-0.025,0.0025,0.13375,0.0018,0.072127506,-0.009385,0.03875,0.005,0.12,0.00033500002,4.5e-05,0.0015725,1742111128.937238,user_4
0.025,-0.00375,0.075,0.0045025,-0.0249175,0.00708,0.04,0.00625,0.11625,0.0003975,4.5e-05,0.0016925,1742111129.0420532,user_4
-0.07625,0.02375,0.1575,-0.0130775,-0.068665,0.0110325,0.03875,0.005,0.11625,0.00116,1.5e-05,0.001235,1742111129.158196,user_4
-0.0425,0.01375,0.12875,-0.0020299999,0.084275,-0.010055,0.0375,0.005,0.1225,0.000535,-0.0010225,0.000855,1742111129.268128,user_4
0.0325,0.01125,0.07,0.0053875,-0.0205075,0.0025775002,0.04,0.005,0.11875,0.000945,0.000245,0.0013425,1742111129.381033,user_4
-0.0575,0.0225,0.17125,-0.00673,-0.040345002,-0.00322,0.03625,0.005,0.11875,0.00125,0.0004725,0.00045750002,1742111129.498322,user_4
-0.015,0.00875,0.115,0.0012975,0.068755,-0.0081325,0.0375,0.00375,0.11875,0.001175,0.001115,-0.0007325,1742111129.607144,user_4
0.01125,-0.0,0.065,0.007095,-0.051377498,0.0046550003,0.03875,0.00125,0.1175,0.0004125,-0.0004725,-0.001725,1742111129.720172,user_4
-0.095,0.025,0.20125,0.00125,0.024092501,-0.0071725002,0.04,-0.0025,0.12,0.00016750001,-0.0016625,-0.0019075,1742111129.8388789,user_4
0.005,0.01125,0.09,0.0047150003,0.07542501,0.00325,0.04125,0.0025,0.11,-0.002075,0.001495,0.0011900001,1742111129.94814,user_4
0.01125,0.005,0.05125,0.0042725,-0.07721,0.0051574996,0.0375,0.00375,0.11875,-0.0007775,-0.000275,0.00055,1742111130.061214,user_4
-0.09625,0.02125,0.17875,-0.003005,-0.00151,-0.00322,0.03625,0.005,0.12375,-0.0006725,0.0010975,-0.0003825,1742111130.179292,user_4
-0.01625,0.015,0.0975,0.00232,0.0511325,-0.00348,0.04125,0.0025,0.115,-0.00035,0.0012050001,0.000245,1742111130.2987251,user_4
-0.0175,0.00375,0.08,-0.007095,-0.05713,-0.00389,0.04,0.0025,0.1175,-0.0001975,0.0001525,-0.000305,1742111130.403177,user_4
-0.09375,0.0325,0.16875,0.01126,0.018280001,-0.0051125004,0.04125,0.00375,0.12,6e-05,0.00093,0.0001225,1742111130.519676,user_4
-0.00875,0.005,0.08625,0.01262,0.046295,0.0074925,0.0425,0.00375,0.11625,-0.00045750002,0.00058,6e-05,1742111130.629188,user_4
-0.0225,-0.005,0.07625,-0.0062725,-0.0756675,-0.0027625,0.04125,0.00375,0.11875,-0.00016750001,-0.0012825,0.0010375,1742111130.742395,user_4
-0.10125,0.0125,0.1725,0.0090625,0.0473625,-0.00673,0.03875,0.00875,0.12,9.25e-05,0.00084,0.000107500004,1742111130.8602188,user_4
0.0075,0.01125,0.07125,0.0036475,0.025635,0.0042575,0.0425,0.00375,0.11625,-0.0001825,0.00026,-0.00026,1742111130.969291,user_4
-0.03,-0.00375,0.08125,-0.004945,-0.08139,0.00154,0.04,0.00625,0.12,0.000107500004,-0.00035,0.00016750001,1742111131.08314,user_4
-0.09625,0.00625,0.16,0.0038299998,0.060302503,-0.0113375,0.0425,0.00625,0.115,0.0001825,0.0004725,-4.5e-05,1742111131.199918,user_4
0.01875,0.00875,0.0625,0.0046375,0.028655,0.001785,0.04125,0.00375,0.12,0.000275,-0.000855,0.00016750001,1742111131.319047,user_4
-0.04,-0.01,0.09375,-0.0075075002,-0.092255,0.008909999,0.03875,0.00625,0.12125,-0.0003825,-0.0001975,-0.0001525,1742111131.425327,user_4
-0.085,0.01875,0.16125,0.0038,0.065657504,-0.0069875,0.0425,0.0075,0.115,-9.25e-05,0.0007175,-0.0001825,1742111131.540192,user_4
0.02625,0.0075,0.0675,0.0016625,0.032592498,-0.0002125,0.04125,0.00375,0.11875,7.75e-05,-0.00032,0.0001525,1742111131.6601229,user_4
0.00125,-0.00375,0.12,0.0021199998,-0.0432575,-0.0089275,0.03875,0.0075,0.12,-0.00058,-0.000365,-0.0002125,1742111131.766367,user_4
-0.0175,-0.0075,0.1475,0.00229,0.04947,-0.00229,0.04375,0.005,0.115,0.0001225,0.0007475,0.0001225,1742111131.881525,user_4
0.02875,-0.005,0.065,0.0007775,-0.0383,0.0066975,0.04,0.00625,0.11875,0.0004275,-0.0012675,0.00055,1742111131.999634,user_4
-0.0725,0.01875,0.19875,-0.00023,0.0260475,-0.0078275,0.04,0.00625,0.12,3e-05,0.0009925,-0.000535,1742111132.106074,user_4
0.0175,0.00375,0.085,-0.000275,0.039977502,-0.0001525,0.0425,0.005,0.11625,0.0001525,-0.0007625,0.00033500002,1742111132.2199402,user_4
-0.00125,-0.005,0.08875,-0.009292499,-0.069777496,0.0072175004,0.0375,0.0075,0.1225,-0.0006875,-0.000655,1.5e-05,1742111132.339508,user_4
-0.07125,0.0175,0.17,-0.0018150001,0.029129999,-0.0033425,0.0425,0.00625,0.115,1.5e-05,0.00116,-0.0003975,1742111132.446069,user_4
0.015,0.00625,0.0775,-0.00296,0.02304,-0.0027,0.04,0.005,0.12,0.00029,-0.001145,0.000305,1742111132.560369,user_4
-0.03125,0.0025,0.0925,-0.0122675,-0.077042505,0.0044400003,0.0375,0.00625,0.12125,-0.0004275,-0.00023,0.000107500004,1742111132.680227,user_4
-0.1125,0.00875,0.18,0.0043175,0.061875,-0.014085,0.04375,0.005,0.11375,9.25e-05,0.0010375,-0.000275,1742111132.786064,user_4
0.02625,0.01,0.07125,0.00351,0.0484,-0.0037375,0.03875,0.005,0.12125,0.0003975,-0.00093,0.00033500002,1742111132.902405,user_4
0.0175,-0.005,0.0675,0.0046375,-0.07470749,0.0095675,0.03875,0.00625,0.12,-9.25e-05,-0.00032,6e-05,1742111133.020234,user_4
-0.1025,0.01625,0.1825,0.0021975,-0.019317498,0.0042275,0.0425,0.00625,0.1175,0.0001225,0.0013725,-0.000305,1742111133.126112,user_4
-0.01625,0.0175,0.10375,0.0036324998,0.08699,-0.009795,0.04,0.005,0.11875,0.00032,-0.001145,0.00045750002,1742111133.240458,user_4
0.0475,0.00375,0.0675,-0.0024100002,-0.0254525,0.001495,0.03875,0.005,0.11875,-0.00029,-0.0001525,1.5e-05,1742111133.3604338,user_4
-0.075,0.00625,0.18625,-0.00389,-0.033005003,-0.00354,0.03875,0.00625,0.12,7.75e-05,0.00048750002,0.0,1742111133.464978,user_4
-0.01375,0.0025,0.10875,-0.0012050001,0.0676875,0.0022125002,0.04125,0.005,0.11625,0.0001525,-0.0010825,3e-05,1742111133.5803268,user_4
0.00125,-0.0025,0.0675,0.0001975,-0.074082494,0.0055549997,0.0375,0.005,0.12,0.00033500002,-0.0004125,0.0007625,1742111133.7001789,user_4
-0.1275,0.01625,0.205,0.01497,0.03804,-0.0021975,0.03875,0.0075,0.12,-0.000107500004,0.0008075,-0.00016750001,1742111133.804069,user_4
0.01,0.0025,0.0725,0.0016625,0.0664825,-0.0039224997,0.04,0.005,0.11875,-1.5e-05,-0.0004125,-6e-05,1742111133.922946,user_4
0.01875,-0.00875,0.075,0.0029449998,-0.065597504,0.00064,0.03875,0.005,0.11875,0.00016750001,-0.0007325,0.00035,1742111134.039916,user_4
-0.11125,0.02125,0.18625,0.0003825,-0.0154425,0.0025625,0.04,0.0075,0.12125,0.000535,0.0018775001,-7.75e-05,1742111134.145064,user_4
-0.0175,0.015,0.10375,0.006165,0.087785006,-0.0137950005,0.03875,0.005,0.11875,-0.00023,-0.0011900001,-0.000275,1742111134.259622,user_4
0.03875,-0.0025,0.0675,-0.0049125,-0.02388,0.0019675,0.04,0.005,0.1175,0.0,-0.0001825,0.000305,1742111134.381235,user_4
-0.07125,0.02125,0.20875,-0.0044400003,-0.0109399995,-0.01143,0.0375,0.005,0.12375,-0.00029,0.00058,-0.0004725,1742111134.4850838,user_4
0.0125,0.00125,0.09875,0.0033275,0.043580003,-0.00035,0.04125,0.00375,0.11625,9.25e-05,-0.0009775,0.0001825,1742111134.599773,user_4
0.0275,-0.00375,0.07875,0.00026,-0.0452125,0.0015575,0.03625,0.005,0.12,0.0001225,-0.0007775,0.00059500005,1742111134.718931,user_4
-0.1,0.01125,0.1975,0.000245,-0.0054625003,-0.003175,0.03875,0.005,0.12,0.0001225,0.00122,4.5e-05,1742111134.823854,user_4
-0.02375,0.0075,0.11625,0.0039825,0.0865325,-0.0065625,0.03875,0.005,0.11875,0.0001525,-0.0010075001,-0.00023,1742111134.93905,user_4
0.04,0.0025,0.07125,-0.002655,-0.005935,-0.00154,0.03875,0.00375,0.11625,0.00032,-0.000305,0.0006875,1742111135.050582,user_4
-0.04375,0.0075,0.1475,-0.0039525,-0.064482495,0.0060575,0.035,0.00375,0.125,-3e-05,-0.0001225,7.75e-05,1742111135.1630988,user_4
-0.01875,0.00375,0.13125,0.004135,0.078065,-0.004165,0.04,0.005,0.115,3e-05,0.0,-0.0002125,1742111135.2792692,user_4
0.05125,0.00375,0.05625,-4.5e-05,-0.00917,0.0018925001,0.0375,0.0025,0.12,6e-05,-0.00052,0.00058,1742111135.3889248,user_4
-0.04375,-0.01,0.10625,-0.00949,-0.1033475,0.0115975,0.035,0.00625,0.125,-0.00059500005,0.000625,-0.00033500002,1742111135.502035,user_4
-0.05125,0.00875,0.1475,0.00154,0.0499875,-0.0007775,0.0425,0.005,0.1125,-0.000275,0.0006875,-0.00029,1742111135.619551,user_4
0.02875,0.01125,0.0675,-0.0050500003,0.0054325,-0.0007775,0.0375,0.00375,0.12,0.0003825,-0.00026,0.00033500002,1742111135.730421,user_4
-0.04375,0.005,0.11125,-0.001145,-0.088622496,0.0054775,0.03625,0.005,0.12375,-0.0004725,-0.0002125,-0.0005025,1742111135.8431392,user_4
-0.07625,0.01,0.1625,0.0057225,0.059982497,-0.0047750003,0.04125,0.005,0.11375,-0.0004725,0.0004125,-0.00023,1742111135.959208,user_4
0.02375,0.0125,0.06125,0.0051424997,0.008835,0.0048674997,0.03625,0.00375,0.1225,0.000305,-0.00055,0.00029,1742111136.079948,user_4
-0.0525,0.0075,0.11,-0.0061500003,-0.086015,0.0063024997,0.03625,0.005,0.1225,-0.000275,-6e-05,-0.00026,1742111136.184164,user_4
-0.0775,0.005,0.15375,0.0019375,0.07196,-0.01088,0.04125,0.005,0.11375,0.00016750001,0.000275,0.000107500004,1742111136.2993531,user_4
0.03,0.00875,0.06,0.002395,0.009002499,-0.0006725,0.0375,0.00375,0.12125,0.00033500002,-0.0002125,0.00016750001,1742111136.410891,user_4
-0.0475,0.02375,0.13375,0.0015575,-0.078292504,0.003905,0.03625,0.005,0.12375,-0.00026,-0.0003975,-0.0001225,1742111136.524103,user_4
-0.03875,-0.0,0.12875,0.004685,0.071625,-0.0043025,0.04,0.005,0.11375,0.00016750001,4.5e-05,9.25e-05,1742111136.639925,user_4
0.03375,0.01125,0.065,0.012390001,-0.026305001,0.009582501,0.0375,0.00375,0.12,0.00029,-9.25e-05,0.000245,1742111136.759588,user_4
-0.06125,0.01,0.155,-0.0056925,-0.065505,0.00084,0.03625,0.005,0.12375,-0.00033500002,0.000107500004,-0.0001225,1742111136.86411,user_4
-0.0425,-0.0075,0.13,0.0043025,0.087752506,-0.00647,0.04,0.005,0.115,0.0,1.5e-05,7.75e-05,1742111136.979478,user_4
0.03,0.005,0.06375,-0.00059500005,-0.0199425,0.003235,0.0375,0.00375,0.12,0.000107500004,-0.0001525,0.00016750001,1742111137.099314,user_4
-0.08375,0.01875,0.15875,-0.0124825,-0.0865325,0.010375,0.035,0.00625,0.12375,-0.00032,0.000275,-0.00026,1742111137.2039838,user_4
-0.045,-0.00125,0.1225,0.0018925001,0.09326249,-0.0105275,0.04125,0.005,0.11375,-9.25e-05,-0.00052,0.0001225,1742111137.319411,user_4
0.035,0.00625,0.055,-0.00177,-0.0233925,0.0014500001,0.03625,0.0025,0.12125,0.000275,-0.000107500004,0.0003825,1742111137.438866,user_4
-0.09125,0.00625,0.1875,-0.0056775,-0.0375975,-0.0022125002,0.03625,0.005,0.1225,-0.0003975,0.0001225,-0.0001825,1742111137.542948,user_4
-0.035,0.00125,0.115,0.0036775,0.079055004,-0.0101925,0.04,0.00625,0.115,-3e-05,-0.00032,1.5e-05,1742111137.65977,user_4
0.04,-0.0125,0.07125,0.007125,0.0081325,0.001465,0.03625,0.00375,0.12125,0.00016750001,0.0001375,0.00029,1742111137.779319,user_4
-0.04625,0.0,0.12375,-0.01114,-0.093475,0.0093375,0.03625,0.005,0.1225,-0.00045750002,-0.00016750001,-0.0001375,1742111137.883151,user_4
-0.0325,-0.01375,0.13375,0.02028,0.067779996,0.0074625,0.04125,0.005,0.1125,-0.0001375,0.000245,-0.00033500002,1742111137.9994628,user_4
0.025,0.005,0.0575,-0.004395,-0.0305775,0.0024249998,0.0375,0.005,0.12125,0.0003825,0.0001525,0.0004125,1742111138.119693,user_4
-0.085,0.00125,0.18875,-0.00354,-0.0272975,-0.0084675,0.0375,0.005,0.1225,-0.00064,0.0003975,-0.000535,1742111138.2240372,user_4
-0.015,-0.01,0.09625,0.00714,0.06462,0.001435,0.04,0.0075,0.115,0.000365,-0.00059500005,0.00045750002,1742111138.339951,user_4
0.00625,0.00125,0.0675,0.002365,-0.0588825,0.0045625,0.03625,0.0025,0.12125,6e-05,-0.0010075001,0.00033500002,1742111138.4590569,user_4
-0.10125,-0.00375,0.21,-0.00673,0.04753,-0.0199575,0.0375,0.0075,0.12,7.75e-05,0.0013725,-0.000305,1742111138.563901,user_4
0.03,-0.01,0.06375,0.0041799997,0.02858,0.0036775,0.03875,0.00625,0.1175,-0.00016750001,-0.001405,4.5e-05,1742111138.679734,user_4
-0.025,-0.01,0.08625,-0.0036624998,-0.097565,0.0022125002,0.03625,0.005,0.12,-0.000275,0.00045750002,0.0001375,1742111138.799339,user_4
-0.0675,-0.00625,0.1775,0.0043175,0.065902494,-0.006225,0.04,0.00625,0.11875,-0.00059500005,0.0034025,-0.0006725,1742111138.904053,user_4
0.04125,0.00125,0.06125,0.001495,0.0334025,-0.0040275003,0.04125,0.00625,0.1175,-0.0001825,-0.0013125,-4.5e-05,1742111139.020133,user_4
-0.0025,-0.0225,0.04625,0.0057675,-0.113387495,0.0061500003,0.03625,0.005,0.12,-4.5e-05,-0.0002125,0.00026,1742111139.1399329,user_4
-0.065,-0.01125,0.17875,0.009505,0.044815,0.000565,0.04125,0.00625,0.115,7.75e-05,0.001235,-0.000565,1742111139.245814,user_4
0.03125,-0.00625,0.065,0.001435,0.010757499,0.0031575,0.03875,0.005,0.12125,0.000245,-0.00125,0.000365,1742111139.360556,user_4
-0.05,-0.01,0.1025,-0.0065774997,-0.10009751,0.0095675,0.0375,0.00625,0.12,-6e-05,-0.000275,3e-05,1742111139.479299,user_4
-0.095,0.00125,0.16625,0.00148,0.076675005,-0.014297499,0.04125,0.00625,0.11625,0.000107500004,0.00084,-0.00016750001,1742111139.585822,user_4
0.025,-0.005,0.06125,0.0018625,0.03418,0.0003975,0.0375,0.00625,0.1225,4.5e-05,-0.0007325,-4.5e-05,1742111139.6993542,user_4
-0.01,-0.00875,0.0775,0.0098575,-0.088410005,0.0077199996,0.04,0.00625,0.11625,0.0001375,-0.000365,0.000565,1742111139.819092,user_4
-0.10875,0.02,0.1925,-0.0040275003,0.0476225,-0.0140225,0.03875,0.0075,0.12125,0.000107500004,0.001465,-0.00045750002,1742111139.9248068,user_4
0.01625,0.00875,0.05875,-0.0054475004,0.0223075,-0.000625,0.03875,0.005,0.11875,0.00026,-0.001785,0.00023,1742111140.039941,user_4
-0.04375,0.01125,0.09,0.0018,-0.0847625,0.007005,0.03625,0.00625,0.12,-0.0001825,0.000107500004,-0.0002125,1742111140.159394,user_4
-0.12875,0.00625,0.175,0.0055225003,0.071595,-0.0202475,0.04,0.005,0.1175,-0.00052,0.00116,-0.000305,1742111140.263908,user_4
0.02375,0.00625,0.055,0.0026099999,0.04541,0.0004425,0.0375,0.00625,0.12,-0.0003975,-0.001145,0.0003975,1742111140.381421,user_4
-0.02,0.00375,0.0875,0.0036175,-0.0909125,0.00737,0.0375,0.00625,0.11875,-0.0009775,0.000885,-0.0001975,1742111140.499873,user_4
-0.0775,0.00625,0.16875,0.0033275,0.0611425,-0.011779999,0.03875,0.0075,0.11875,-0.000245,0.00087,-0.0004275,1742111140.604959,user_4
0.02625,0.0025,0.06125,0.009095,0.0148,0.0047150003,0.03875,0.0075,0.11875,7.75e-05,-0.0011900001,0.0001825,1742111140.719092,user_4
-0.04125,-0.0125,0.0925,-0.01085,-0.099,0.0068825004,0.03625,0.00625,0.12125,1.5e-05,-6e-05,0.0004125,1742111140.839199,user_4
-0.0675,0.00125,0.13,-0.0015575,0.04895,-0.0077975,0.04,0.0075,0.115,-3e-05,0.0010675,-0.0003975,1742111140.944944,user_4
0.0125,0.005,0.07875,-0.0004125,0.017012501,0.0020150002,0.0375,0.0075,0.12125,0.0001975,-0.0007625,0.0001225,1742111141.060678,user_4
-0.03625,-0.0025,0.08625,-0.0061500003,-0.086867504,0.005585,0.0375,0.0075,0.11875,6e-05,0.0001375,0.000565,1742111141.179959,user_4
-0.0825,0.015,0.16,0.00093,0.0738825,-0.0077199996,0.04,0.0075,0.1175,-3e-05,0.0007025,-0.000305,1742111141.285066,user_4
0.02,0.01,0.07875,0.0063925,0.0305025,-0.000305,0.0375,0.00625,0.12125,0.0001825,-0.000565,0.0001525,1742111141.402158,user_4
-0.01625,-0.01,0.08125,0.0034949998,-0.0717475,0.0001825,0.0375,0.00625,0.11875,4.5e-05,-0.000565,0.00016750001,1742111141.519776,user_4
-0.1,0.0075,0.18375,0.0041199997,0.0570525,-0.013825,0.03875,0.00875,0.12,1.5e-05,0.0018925001,-0.000275,1742111141.625751,user_4
0.02,0.0075,0.0625,-0.0010525,0.0310525,-0.0004425,0.03875,0.00625,0.12,0.0,-0.0013425,9.25e-05,1742111141.739795,user_4
-0.04,-0.01,0.09625,-0.0061350004,-0.090972506,0.009475,0.03625,0.0075,0.12,-0.0001225,-0.000245,1.5e-05,1742111141.860333,user_4
-0.08,0.0025,0.15375,0.01059,0.062529996,-0.0057225,0.04125,0.00625,0.115,-0.0001225,0.001175,-0.0001975,1742111141.966828,user_4
0.0325,-0.01,0.07,0.0057525,0.0204325,-0.0010975,0.03625,0.0075,0.1225,1.5e-05,-0.0012675,0.00032,1742111142.080186,user_4
-0.03,-0.02375,0.08875,-0.0086375,-0.0868525,0.0114125,0.0375,0.00875,0.12,-0.0012825,1.5e-05,-0.0008075,1742111142.199808,user_4
-0.085,0.00625,0.1775,0.0024725,0.0531475,-0.0075825,0.03875,0.00875,0.11875,7.75e-05,0.0010375,0.000107500004,1742111142.306689,user_4
0.02875,-0.00625,0.06375,0.0021675,0.022094999,-0.001785,0.0375,0.0075,0.12125,-0.0001975,-0.0013425,-0.000107500004,1742111142.422986,user_4
-0.01125,-0.0125,0.06875,0.0054175,-0.090849996,0.0078425,0.0375,0.00875,0.1175,3e-05,-0.00016750001,0.000245,1742111142.539894,user_4
-0.08,-0.00125,0.17625,-0.00091500004,0.05185,-0.0115825,0.0375,0.01,0.12125,-0.0005025,0.0010225,-0.000565,1742111142.646847,user_4
0.02,0.005,0.07875,0.0036775,0.0403125,-0.0074925,0.03625,0.01,0.12125,-4.5e-05,-0.0013875001,7.75e-05,1742111142.7608588,user_4
0.0075,-0.015,0.07,0.0060725003,-0.0664975,0.0047150003,0.0375,0.00875,0.11625,1.5e-05,0.0004275,-4.5e-05,1742111142.881069,user_4
-0.1275,0.00625,0.19125,0.00032,-0.001495,0.00302,0.03625,0.01125,0.1225,-0.0004275,0.0010075001,-0.00032,1742111142.987874,user_4
-0.03625,-0.00125,0.11125,-0.0010225,0.084364995,-0.009965,0.03875,0.00875,0.1175,-4.5e-05,-0.00122,0.000107500004,1742111143.101865,user_4
0.03125,-0.01625,0.06125,0.00673,-0.0134725,0.001755,0.0375,0.00875,0.1175,0.00061,0.00064,0.0002125,1742111143.218936,user_4
-0.07,0.00375,0.19,-0.0080725,-0.054810002,0.0043025,0.035,0.01,0.12375,-0.00032,-1.5e-05,-3e-05,1742111143.329002,user_4
0.00875,-0.00625,0.09875,0.0009,0.0785525,-0.0042275,0.03875,0.0075,0.11625,0.000107500004,0.0010075001,0.00064,1742111143.4426932,user_4
0.04375,-0.01,0.05125,0.0006725,-0.054977503,0.0045775,0.0375,0.01,0.11875,0.000885,0.0011900001,0.0013125,1742111143.559898,user_4
-0.12625,0.01,0.21125,-0.0047150003,-0.0325775,0.0045025,0.0375,0.01,0.1225,-0.00061,-9.25e-05,-0.0009625,1742111143.6689868,user_4
-0.01125,-0.00625,0.08875,-0.002305,0.0908825,-0.0057525,0.04,0.00875,0.115,1.5e-05,-0.000655,9.25e-05,1742111143.782779,user_4
0.02875,-0.0125,0.06125,0.0048074997,-0.0549925,0.0060275,0.0375,0.0075,0.12,0.0001225,-9.25e-05,-0.0002125,1742111143.902056,user_4
-0.13125,0.0125,0.23125,-0.00177,0.0048225,-0.00769,0.03625,0.01125,0.1225,-0.000275,0.000305,-0.0001225,1742111144.01053,user_4
0.00375,-0.00375,0.07375,-0.0048674997,0.06482,-0.0027925,0.04,0.00875,0.115,0.0,-0.0008075,0.0,1742111144.122798,user_4
0.02625,-0.015,0.06625,0.0042875,-0.058424998,0.007645,0.0375,0.00875,0.12125,0.00023,7.75e-05,0.0001525,1742111144.239412,user_4
-0.13375,0.01125,0.19,-0.0043800003,-0.0245675,0.0148625,0.0375,0.01,0.12125,-4.5e-05,0.0003975,-0.0001375,1742111144.349813,user_4
-0.0375,0.01875,0.1025,-0.0055549997,0.06845,-0.016495,0.04,0.01,0.115,0.0001225,-0.0009775,0.0001975,1742111144.4638069,user_4
0.01125,-0.00875,0.05625,-0.0007025,-0.035935,-0.0027925,0.03625,0.0075,0.12125,0.0001525,0.0,-0.0001975,1742111144.579515,user_4
-0.12,0.03125,0.20125,0.0127875,-0.020049999,0.0101175,0.035,0.01,0.1225,-0.00032,-0.00023,0.0,1742111144.699363,user_4
0.00125,0.0075,0.07375,-0.00151,0.068405,0.0016325001,0.03875,0.00875,0.11625,-1.5e-05,-0.000245,-0.00026,1742111144.8049002,user_4
0.0025,0.00625,0.05,0.0105125,-0.0864575,0.0016475001,0.0375,0.00875,0.11875,0.00052,-0.0001225,0.00055,1742111144.922681,user_4
-0.165,0.02125,0.225,0.0131075,0.0213775,-0.002365,0.035,0.01125,0.12375,-0.00016750001,0.0003975,4.5e-05,1742111145.0391738,user_4
-0.01375,0.00375,0.0825,-0.0003825,0.08162,-0.0048825,0.03875,0.00875,0.11625,0.0001525,-0.0010075001,6e-05,1742111145.144692,user_4
0.03,-0.005,0.0575,0.0045324997,-0.0644375,0.00174,0.03625,0.0075,0.12125,0.000365,-0.0001375,0.0003825,1742111145.259239,user_4
-0.13,0.00375,0.23125,0.0042875,0.0154875005,-0.0044250004,0.035,0.01125,0.12375,-0.0001225,0.0006875,-0.00029,1742111145.37087,user_4
0.00375,0.0075,0.08,-0.0076599997,0.063292496,-0.0027474998,0.03875,0.01,0.11625,0.0,-0.0002125,1.5e-05,1742111145.484719,user_4
0.02625,-0.0075,0.07125,0.0039975,-0.05391,0.0048674997,0.03625,0.00875,0.12125,-7.75e-05,0.00016750001,-1.5e-05,1742111145.598631,user_4
-0.13375,0.025,0.22625,0.0074,-0.0106975,0.00618,0.03625,0.01125,0.1225,-0.00033500002,0.00045750002,-0.00033500002,1742111145.7185411,user_4
0.00375,-0.0075,0.0825,-0.0065,0.074540004,-0.0086375,0.04,0.00875,0.11375,-9.25e-05,-0.000625,0.0001225,1742111145.8258078,user_4
0.01,-0.0075,0.06125,0.0037075,-0.068635,0.0092325,0.03625,0.00875,0.12125,0.000305,0.00023,0.0004425,1742111145.939616,user_4
-0.13875,0.01375,0.21125,0.006225,0.016145,-0.0045775,0.03625,0.01125,0.1225,-0.0004425,0.0004425,-0.0006875,1742111146.05906,user_4
-0.01625,-0.0025,0.095,0.0036475,0.076035,-0.01062,0.03875,0.00875,0.11625,-1.5e-05,-0.00087,0.0002125,1742111146.166847,user_4
0.02,-0.01375,0.0675,0.0028525,-0.0553125,0.00708,0.03625,0.00875,0.12125,0.0004425,0.000305,0.00035,1742111146.280542,user_4
-0.125,0.01875,0.2125,0.0031125,-0.013,-0.0009,0.035,0.01,0.12375,-0.00032,-0.000107500004,-0.0001975,1742111146.4017391,user_4
-0.00375,-0.01,0.07875,0.002,0.067245,-0.0002125,0.04,0.00875,0.1125,-4.5e-05,-0.000655,-0.0001525,1742111146.507958,user_4
-0.00875,-0.0075,0.06375,-0.0050975,-0.078645,0.00267,0.035,0.01,0.12125,0.0005025,1.5e-05,0.0005025,1742111146.621519,user_4
-0.1325,0.01375,0.1975,0.0060875,0.0202175,-0.005035,0.03625,0.00875,0.12125,-0.00045750002,0.0,-0.000565,1742111146.7395,user_4
-0.00625,-0.0025,0.08125,0.00508,0.06987,0.001235,0.0375,0.01,0.11875,4.5e-05,-0.0010525,0.000275,1742111146.8486242,user_4
0.0125,0.01125,0.065,0.004105,-0.0679025,-0.0004275,0.0375,0.0075,0.11875,0.0001975,0.00016750001,6e-05,1742111146.961536,user_4
-0.1425,0.03,0.21125,0.001115,-0.0111075,-0.001755,0.0325,0.01,0.125,-0.0001975,-0.0001825,3e-05,1742111147.079084,user_4
-0.01375,-0.0,0.09625,0.0074,0.08677749,0.0025625,0.03875,0.00875,0.115,-0.0001375,-0.000825,-1.5e-05,1742111147.1888351,user_4
0.025,0.0075,0.0675,0.0004425,-0.0460975,0.0038299998,0.035,0.00875,0.12,0.00023,0.000245,0.0001825,1742111147.3025532,user_4
-0.1175,0.02625,0.1975,-0.0065774997,-0.02777,-0.0012825,0.03375,0.01,0.125,-0.000365,-0.0004425,-9.25e-05,1742111147.4225018,user_4
-0.02375,-0.00375,0.10375,0.003555,0.0864575,-0.0004275,0.03875,0.00875,0.1125,-9.25e-05,-0.00016750001,-4.5e-05,1742111147.53926,user_4
0.0425,0.00875,0.065,-0.00045750002,-0.0246725,-0.0004425,0.035,0.0075,0.1225,0.00035,3e-05,0.0003825,1742111147.643518,user_4
-0.0875,0.01125,0.17625,-0.009125,-0.067475,0.0068200002,0.03375,0.00875,0.1225,-0.0003825,-0.00033500002,-0.00026,1742111147.759338,user_4
-0.02125,-0.00625,0.1075,0.00525,0.09079,-0.0063175,0.04,0.00875,0.1125,-0.0001225,0.00055,-0.0001375,1742111147.8706958,user_4
0.04125,0.00375,0.05875,-0.0018300001,-0.0284725,3e-05,0.03375,0.00875,0.12375,0.00029,-0.0004125,0.00033500002,1742111147.984593,user_4
-0.08,-0.01,0.135,-0.01349,-0.08996499,0.0105275,0.035,0.00875,0.12125,-0.00026,-0.0004725,-6e-05,1742111148.099535,user_4
-0.05625,0.005,0.11875,0.0034949998,0.0962525,-0.008117501,0.04,0.00875,0.11375,-0.000107500004,0.00093,-0.0004125,1742111148.2190778,user_4
0.04125,0.0025,0.045,-0.002105,-0.011765,0.0010375,0.035,0.00875,0.125,0.00061,-0.00023,0.000365,1742111148.325606,user_4
-0.075,-0.0,0.1525,-0.0139,-0.0957175,0.0057675,0.035,0.01,0.12125,-0.0004125,-0.0004425,0.0,1742111148.4390929,user_4
-0.055,-0.00375,0.12375,0.0036475,0.081282504,-0.0069724997,0.03875,0.01,0.115,-7.75e-05,0.001435,-0.00061,1742111148.559807,user_4
0.02125,0.005,0.05125,0.001115,-0.026014999,0.0016925,0.03375,0.00875,0.12375,0.00029,-0.0012825,0.00061,1742111148.6665971,user_4
-0.115,0.015,0.18,-0.007735,-0.0462025,0.00801,0.035,0.01,0.12125,-0.00048750002,0.00016750001,-0.00035,1742111148.7797928,user_4
-0.03625,0.00375,0.10125,0.0018150001,0.087235,-0.0095525,0.04,0.00875,0.11375,3e-05,0.00023,-3e-05,1742111148.901781,user_4
0.02125,0.005,0.05875,0.005065,-0.0488125,0.0021199998,0.03375,0.00875,0.12375,0.0001375,-0.000305,-3e-05,1742111149.006907,user_4
-0.115,0.0225,0.19125,-0.0031575,-0.038025003,0.0066075,0.035,0.01,0.12,-0.00033500002,-0.000305,3e-05,1742111149.12064,user_4
-0.02375,-0.0025,0.0975,0.0028225,0.098695,-0.00592,0.0375,0.01125,0.11625,-6e-05,0.00033500002,-6e-05,1742111149.239351,user_4
0.04,0.00625,0.055,0.0042575,-0.0446925,0.0043325,0.035,0.0075,0.1225,4.5e-05,-0.000365,3e-05,1742111149.347809,user_4
-0.115,0.0075,0.19375,-0.0040425,-0.054185003,0.0062399996,0.0325,0.01125,0.1225,-0.0003825,-0.00023,-6e-05,1742111149.461761,user_4
-0.0175,-0.00625,0.09375,0.003815,0.082167506,-0.0063024997,0.04,0.0075,0.1125,1.5e-05,0.0005025,-0.000245,1742111149.579607,user_4
0.0275,-0.00125,0.07375,0.0021975,-0.0293575,0.003845,0.0325,0.01,0.125,0.0001975,-0.000535,0.000245,1742111149.689562,user_4
-0.08625,0.01,0.14875,-0.009795,-0.0752875,0.008042499,0.03625,0.01,0.11875,-0.00032,-0.00035,-0.00016750001,1742111149.8027542,user_4
-0.04875,0.0025,0.12125,0.0027774998,0.075515,-0.0075375,0.03875,0.01,0.115,-3e-05,0.001235,-0.000535,1742111149.9226508,user_4
0.0275,0.0025,0.06875,0.00079250004,-0.00264,0.0018625,0.0325,0.00875,0.12625,0.00032,-0.000625,0.00055,1742111150.039506,user_4
-0.07,-0.0125,0.105,-0.015855,-0.0963275,0.0086975,0.03625,0.01,0.1175,-0.000305,-0.000365,-0.000365,1742111150.1438138,user_4
-0.08625,0.00875,0.1475,0.0027774998,0.0765225,-0.011445,0.03875,0.00875,0.115,0.0002125,0.0013875001,-0.00023,1742111150.259596,user_4
0.02875,0.00125,0.0575,-0.0022125002,0.012069999,-0.00052,0.03375,0.00875,0.125,0.0001975,-0.0012825,0.000305,1742111150.37055,user_4
-0.06125,-0.00875,0.11625,-0.0128775,-0.097260006,0.010284999,0.03625,0.00875,0.1175,-4.5e-05,-0.000107500004,-4.5e-05,1742111150.483804,user_4
-0.08125,0.0025,0.15,0.0046225,0.083252504,-0.010545,0.0375,0.01,0.1175,7.75e-05,0.0010525,-0.000365,1742111150.599707,user_4
0.04375,-0.005,0.055,0.00296,0.018127501,-0.002135,0.0325,0.00875,0.13,0.0010825,0.00055,0.0004125,1742111150.7187572,user_4
-0.0275,-0.02,0.07375,-0.0037225,-0.1085975,0.0131675,0.035,0.00875,0.12,-0.0001375,-0.001145,1.5e-05,1742111150.823699,user_4
-0.0875,0.005,0.1525,0.00064,0.040085,-0.00557,0.03625,0.01,0.12,-4.5e-05,0.00154,-0.0005025,1742111150.939314,user_4
0.00875,-0.0025,0.075,-0.00534,0.0384975,-0.0036475,0.035,0.00875,0.12125,-3e-05,-0.0016325001,0.0001375,1742111151.059677,user_4
-0.02875,-0.01625,0.095,-0.0049125,-0.078765,0.007035,0.035,0.01,0.12,-4.5e-05,0.0003975,-0.00016750001,1742111151.165291,user_4
-0.07125,-0.01375,0.14375,-0.00151,0.02861,-0.0024100002,0.03625,0.015,0.12625,-0.0009925,0.0030975002,-0.0033425,1742111151.2797198,user_4
-0.0075,-0.0125,0.07375,-0.0080875,0.0001375,0.00592,0.04,0.015,0.11875,-0.0001225,0.0059975,-0.008255,1742111151.401908,user_4
