L-AccX,L-AccY,L-AccZ,L-GyrX,L-GyrY,L-GyrZ,R-AccX,R-AccY,R-AccZ,R-GyrX,R-GyrY,R-GyrZ,timestamp
-0.395,0.21500000000000008,-0.25,-0.0029199999999999227,0.009039999999999937,-0.015739999999999976,-0.44999999999999996,0.08499999999999996,-0.17000000000000004,-0.025639999999999996,-0.0029199999999999227,0.0014600000000000168,1742248546.350969
-0.37,0.22999999999999998,-0.20999999999999996,-0.0042799999999999505,0.02210000000000001,-0.00878000000000001,-0.51,0.06000000000000005,-0.17999999999999994,-0.02061999999999997,-0.0025599999999998957,0.0025599999999998957,1742248546.46495
-0.37,0.2450000000000001,-0.20499999999999996,0.004999999999999893,-0.0031799999999999606,-0.028679999999999928,-0.45500000000000007,0.07499999999999996,-0.17000000000000004,-0.015139999999999931,0.006460000000000132,0.012199999999999989,1742248546.583712
-0.375,0.2450000000000001,-0.22999999999999998,0.016599999999999948,-0.0029199999999999227,-0.019159999999999955,-0.47,0.07000000000000006,-0.15500000000000003,-0.0034199999999999786,0.009400000000000075,0.004999999999999893,1742248546.69292
-0.345,0.26,-0.22999999999999998,0.024540000000000006,-0.008539999999999992,-0.028079999999999994,-0.45999999999999996,0.050000000000000044,-0.14500000000000002,0.0012199999999999989,0.01097999999999999,0.024780000000000024,1742248546.8067951
-0.365,0.26,-0.22999999999999998,0.01428000000000007,-0.00782000000000005,-0.022700000000000053,-0.47,0.06499999999999995,-0.16000000000000003,-0.00012000000000000899,0.0029200000000000337,0.02648000000000006,1742248546.920873
-0.35,0.26,-0.22499999999999998,0.010259999999999936,-0.0010999999999999899,-0.013799999999999923,-0.475,0.050000000000000044,-0.15500000000000003,0.011840000000000073,0.0025599999999998957,0.0036599999999999966,1742248547.0348248
-0.37,0.2849999999999999,-0.21999999999999997,0.0006200000000000649,-0.007320000000000104,0.010259999999999936,-0.48,0.040000000000000036,-0.15500000000000003,0.014040000000000052,-0.0012199999999999989,-0.011720000000000064,1742248547.149032
-0.33499999999999996,0.2849999999999999,-0.20499999999999996,0.01317999999999997,-0.0047599999999999865,-0.006960000000000077,-0.47,0.040000000000000036,-0.14,0.016000000000000014,0.009160000000000057,0.015859999999999985,1742248547.2628
-0.385,0.27,-0.235,-0.0017000000000000348,-0.008919999999999928,0.010380000000000056,-0.49,0.06000000000000005,-0.15000000000000002,0.016960000000000086,0.0047600000000000975,0.0032999999999998586,1742248547.37972
-0.3400000000000001,0.2849999999999999,-0.22499999999999998,0.01428000000000007,-0.011960000000000082,-0.023320000000000007,-0.4650000000000001,0.020000000000000018,-0.135,0.008179999999999854,0.0031799999999999606,0.018059999999999965,1742248547.490768
-0.345,0.29000000000000004,-0.22499999999999998,-0.01305999999999996,-0.006960000000000077,0.013539999999999885,-0.49,0.04499999999999993,-0.15000000000000002,0.00782000000000016,0.0025599999999998957,-0.021600000000000064,1742248547.604784
-0.35,0.30499999999999994,-0.22499999999999998,-0.03064,0.0007399999999999629,0.02635999999999994,-0.4650000000000001,0.014999999999999902,-0.14,-0.011099999999999999,-0.018179999999999974,0.008419999999999872,1742248547.720225
-0.3400000000000001,0.28,-0.21999999999999997,0.006340000000000012,0.010259999999999936,-0.02185999999999999,-0.45999999999999996,0.030000000000000027,-0.14500000000000002,-0.006720000000000059,-0.009159999999999946,0.029179999999999984,1742248547.832897
-0.3400000000000001,0.27,-0.22499999999999998,0.010140000000000038,0.009519999999999973,-0.019159999999999955,-0.45999999999999996,0.02499999999999991,-0.14500000000000002,-0.0009799999999999809,-0.008299999999999974,0.015740000000000087,1742248547.946902
-0.35,0.28,-0.22499999999999998,0.0012199999999999989,0.006460000000000132,-0.0046399999999999775,-0.475,0.020000000000000018,-0.15000000000000002,0.010140000000000038,-0.0036599999999999966,-0.005499999999999949,1742248548.063929
-0.345,0.29000000000000004,-0.22499999999999998,-0.0024400000000001087,0.0017000000000000348,0.00865999999999989,-0.48,0.014999999999999902,-0.15000000000000002,0.006839999999999957,0.0018400000000000638,-0.014639999999999986,1742248548.1793869
-0.345,0.29000000000000004,-0.21499999999999997,-0.007940000000000058,0.0,0.007319999999999993,-0.47,0.014999999999999902,-0.16000000000000003,-0.005739999999999967,0.0027999999999999137,-0.0075599999999999,1742248548.28894
-0.345,0.2849999999999999,-0.21499999999999997,-0.0007399999999999629,0.0012199999999999989,-0.0029199999999999227,-0.47,0.030000000000000027,-0.15500000000000003,-0.0007399999999999629,-0.00012000000000000899,-0.0037800000000000056,1742248548.4031029
-0.35,0.28,-0.21499999999999997,0.0014600000000000168,0.0019599999999999618,0.0007399999999999629,-0.4650000000000001,0.03499999999999992,-0.15500000000000003,0.00537999999999994,-0.0042799999999999505,-0.00537999999999994,1742248548.521143
-0.345,0.29000000000000004,-0.21999999999999997,0.007079999999999975,-0.0006199999999999539,0.0008600000000000829,-0.48,0.02499999999999991,-0.15500000000000003,0.00770000000000004,-0.00036000000000002697,0.00024000000000001798,1742248548.630864
-0.35,0.2849999999999999,-0.21999999999999997,0.00537999999999994,-0.0046399999999999775,-0.008179999999999965,-0.47,0.03499999999999992,-0.15500000000000003,0.00011999999999989797,0.001100000000000101,0.006599999999999939,1742248548.745049
-0.345,0.28,-0.21499999999999997,0.00048000000000003595,-0.0039000000000000146,-0.0007399999999999629,-0.4650000000000001,0.030000000000000027,-0.15500000000000003,0.0032999999999998586,0.0021999999999999797,-0.0018400000000000638,1742248548.860231
-0.345,0.29499999999999993,-0.21499999999999997,0.0019599999999999618,0.0,0.0006200000000000649,-0.475,0.02499999999999991,-0.15500000000000003,0.005120000000000013,-0.0006199999999999539,0.0,1742248548.972762
-0.345,0.29499999999999993,-0.21999999999999997,0.00024000000000001798,-0.0030599999999999516,0.0006200000000000649,-0.475,0.020000000000000018,-0.16000000000000003,0.0014600000000000168,-0.00048000000000003595,-0.0048799999999999955,1742248549.086847
-0.3400000000000001,0.2849999999999999,-0.21999999999999997,0.0013400000000001189,-0.0023200000000000998,-0.010259999999999936,-0.47,0.03499999999999992,-0.15000000000000002,-0.0029199999999999227,-0.00012000000000000899,0.0036599999999999966,1742248549.2008471
-0.345,0.28,-0.22499999999999998,-0.0015800000000000258,0.0012199999999999989,0.0026800000000000157,-0.4650000000000001,0.030000000000000027,-0.15000000000000002,0.0042800000000000615,0.00048000000000003595,-0.0046399999999999775,1742248549.320904
-0.3400000000000001,0.29499999999999993,-0.21499999999999997,0.00024000000000001798,0.0015800000000001369,0.008179999999999854,-0.48,0.030000000000000027,-0.16000000000000003,0.006720000000000059,-0.0039000000000000146,-0.009399999999999964,1742248549.429834
-0.345,0.29000000000000004,-0.21999999999999997,0.0039000000000000146,-0.0014600000000000168,-0.006340000000000012,-0.47,0.03499999999999992,-0.15500000000000003,-0.0006199999999999539,-0.0043999999999999595,0.006839999999999957,1742248549.543856
-0.345,0.28,-0.21999999999999997,-0.001960000000000073,0.00035999999999991594,-0.0043999999999999595,-0.47,0.040000000000000036,-0.15500000000000003,0.0046399999999999775,-0.0017000000000000348,0.002080000000000082,1742248549.660295
-0.3400000000000001,0.2849999999999999,-0.21999999999999997,-0.0043999999999999595,-0.00036000000000002697,0.0014600000000000168,-0.47,0.030000000000000027,-0.15500000000000003,-0.0026799999999999047,0.005980000000000096,-0.006340000000000012,1742248549.771832
-0.33000000000000007,0.30000000000000004,-0.21999999999999997,-0.0047599999999999865,-0.0050000000000000044,-0.0029199999999999227,-0.47,0.030000000000000027,-0.15000000000000002,0.007319999999999993,0.0027999999999999137,0.0040199999999999125,1742248549.885568
-0.3400000000000001,0.2849999999999999,-0.22999999999999998,-0.00770000000000004,-0.005979999999999985,0.0029200000000000337,-0.47,0.040000000000000036,-0.15000000000000002,0.0035399999999998766,0.00550000000000006,0.0,1742248550.000594
-0.33499999999999996,0.28,-0.22499999999999998,-0.0009799999999999809,-0.006220000000000003,0.0034199999999999786,-0.4650000000000001,0.04499999999999993,-0.14500000000000002,0.008920000000000039,0.0035399999999998766,-0.0015800000000000258,1742248550.1136708
-0.33499999999999996,0.28,-0.22999999999999998,0.0048799999999999955,-0.006099999999999994,0.006220000000000114,-0.47,0.04499999999999993,-0.15000000000000002,0.016240000000000032,0.0015800000000001369,-0.0022000000000000908,1742248550.2276852
-0.3400000000000001,0.28,-0.235,0.0032999999999998586,-0.006960000000000077,0.008179999999999854,-0.47,0.040000000000000036,-0.15000000000000002,0.011719999999999953,0.0024399999999999977,-0.0018400000000000638,1742248550.341669
-0.3400000000000001,0.2749999999999999,-0.235,0.0006200000000000649,-0.0046399999999999775,0.01097999999999999,-0.47,0.050000000000000044,-0.15000000000000002,0.009879999999999889,0.002080000000000082,-0.010259999999999936,1742248550.4596748
-0.345,0.28,-0.24,-0.0007399999999999629,-0.0027999999999999137,0.006340000000000012,-0.47,0.05499999999999994,-0.14500000000000002,0.00550000000000006,0.002080000000000082,-0.0018400000000000638,1742248550.5697029
-0.345,0.2749999999999999,-0.235,0.0042800000000000615,0.00024000000000001798,0.0014600000000000168,-0.475,0.06000000000000005,-0.14500000000000002,0.0047600000000000975,-0.0007399999999999629,-0.00012000000000000899,1742248550.683794
-0.345,0.2650000000000001,-0.235,0.004999999999999893,0.0007399999999999629,0.0008600000000000829,-0.47,0.06000000000000005,-0.14500000000000002,0.009039999999999937,-0.00048000000000003595,0.00011999999999989797,1742248550.798923
-0.345,0.27,-0.235,0.0039000000000000146,-0.0030599999999999516,0.0036599999999999966,-0.475,0.06000000000000005,-0.15000000000000002,0.006960000000000077,0.0006200000000000649,-0.0027999999999999137,1742248550.911666
-0.35,0.27,-0.235,-0.0006199999999999539,-0.0006199999999999539,0.0009799999999999809,-0.475,0.06000000000000005,-0.14500000000000002,-0.00036000000000002697,0.001100000000000101,-0.0017000000000000348,1742248551.025878
-0.35,0.2650000000000001,-0.235,-0.006220000000000003,0.0013400000000001189,-0.0036599999999999966,-0.4650000000000001,0.06000000000000005,-0.14500000000000002,-0.0035399999999999876,0.0008600000000000829,-0.0007399999999999629,1742248551.1397529
-0.35,0.27,-0.24,-0.0022000000000000908,0.0034199999999999786,0.00035999999999991594,-0.47,0.05499999999999994,-0.14500000000000002,-0.0008599999999999719,-0.0017000000000000348,0.00035999999999991594,1742248551.2537868
-0.35,0.2650000000000001,-0.24,0.0012199999999999989,0.0006200000000000649,-0.0018400000000000638,-0.475,0.06000000000000005,-0.14500000000000002,0.0040199999999999125,-0.0050000000000000044,-0.00024000000000001798,1742248551.367792
-0.345,0.2749999999999999,-0.245,-0.0015800000000000258,-0.00012000000000000899,0.010499999999999954,-0.485,0.04499999999999993,-0.14500000000000002,0.0013400000000001189,0.0006200000000000649,-0.00770000000000004,1742248551.481653
-0.35,0.2650000000000001,-0.235,0.001100000000000101,0.005619999999999958,-0.01208000000000009,-0.485,0.06499999999999995,-0.15500000000000003,-0.0048799999999999955,0.010000000000000009,0.0039000000000000146,1742248551.595527
-0.3400000000000001,0.26,-0.24,0.013419999999999987,0.010620000000000074,-0.04188000000000003,-0.45999999999999996,0.050000000000000044,-0.14,-0.012460000000000027,-0.0015800000000000258,0.02611999999999992,1742248551.709745
-0.35,0.2849999999999999,-0.24,-0.001960000000000073,0.00011999999999989797,-0.01525999999999994,-0.47,0.040000000000000036,-0.15000000000000002,-0.0039000000000000146,-0.0034199999999999786,0.017220000000000013,1742248551.823756
-0.33499999999999996,0.28,-0.22499999999999998,-0.0029199999999999227,0.0030599999999998406,-0.002080000000000082,-0.47,0.04499999999999993,-0.15500000000000003,0.0018400000000000638,0.0,-0.0007399999999999629,1742248551.939563
-0.33499999999999996,0.2849999999999999,-0.22999999999999998,-0.0013400000000000079,0.0025599999999998957,0.0007399999999999629,-0.47,0.03499999999999992,-0.15000000000000002,0.0040199999999999125,-0.0027999999999999137,-0.0037800000000000056,1742248552.051693
-0.33499999999999996,0.29499999999999993,-0.22999999999999998,-0.009399999999999964,0.0040199999999999125,0.009039999999999937,-0.475,0.03499999999999992,-0.15000000000000002,0.0018400000000000638,0.0015800000000001369,-0.01427999999999996,1742248552.165538
-0.345,0.29000000000000004,-0.22999999999999998,0.0040199999999999125,-0.0009799999999999809,0.0048799999999999955,-0.475,0.040000000000000036,-0.15000000000000002,0.002080000000000082,-0.0035399999999999876,-0.0029199999999999227,1742248552.2800698
-0.33499999999999996,0.2749999999999999,-0.235,0.0029200000000000337,-0.0022000000000000908,0.0031799999999999606,-0.475,0.04499999999999993,-0.14500000000000002,0.005619999999999958,0.0013400000000001189,-0.0050000000000000044,1742248552.3936782
-0.33499999999999996,0.28,-0.22999999999999998,-0.0007399999999999629,-0.0013400000000000079,0.0018400000000000638,-0.47,0.040000000000000036,-0.14500000000000002,0.00024000000000001798,0.005619999999999958,-0.0024400000000001087,1742248552.507565
-0.3400000000000001,0.29000000000000004,-0.235,0.00011999999999989797,-0.0030599999999999516,0.0009799999999999809,-0.475,0.04499999999999993,-0.14500000000000002,0.0030599999999998406,0.0012199999999999989,0.0018400000000000638,1742248552.6214569
-0.3400000000000001,0.2749999999999999,-0.22999999999999998,0.0012199999999999989,-0.002080000000000082,-0.00012000000000000899,-0.47,0.04499999999999993,-0.14500000000000002,0.0031799999999999606,0.0021999999999999797,-0.0034199999999999786,1742248552.739082
-0.3400000000000001,0.28,-0.22999999999999998,0.0007399999999999629,-0.00012000000000000899,0.0037799999999998946,-0.47,0.04499999999999993,-0.14500000000000002,0.0017000000000000348,-0.00048000000000003595,-0.005240000000000022,1742248552.848667
-0.345,0.2749999999999999,-0.24,-0.0022000000000000908,0.0012199999999999989,0.0024399999999999977,-0.47,0.050000000000000044,-0.14500000000000002,0.0017000000000000348,0.0006200000000000649,-0.0046399999999999775,1742248552.962518
-0.3400000000000001,0.2749999999999999,-0.235,0.0008600000000000829,0.0017000000000000348,0.0027999999999999137,-0.475,0.050000000000000044,-0.14500000000000002,0.0037799999999998946,-0.00036000000000002697,-0.0029199999999999227,1742248553.076777
-0.3400000000000001,0.2749999999999999,-0.235,-0.0024400000000001087,0.0014600000000000168,0.0018400000000000638,-0.47,0.050000000000000044,-0.15000000000000002,-0.0012199999999999989,0.0008600000000000829,-0.0050000000000000044,1742248553.190772
-0.35,0.2749999999999999,-0.24,-0.0017000000000000348,0.0018400000000000638,0.0037799999999998946,-0.475,0.05499999999999994,-0.14500000000000002,0.0006200000000000649,-0.00024000000000001798,-0.0036599999999999966,1742248553.30476
-0.345,0.27,-0.235,-0.0010999999999999899,-0.00036000000000002697,0.002080000000000082,-0.47,0.06000000000000005,-0.14500000000000002,0.0017000000000000348,0.00048000000000003595,-0.0026799999999999047,1742248553.419508
-0.345,0.2749999999999999,-0.235,0.00011999999999989797,0.00024000000000001798,0.0040199999999999125,-0.47,0.05499999999999994,-0.14500000000000002,0.0024399999999999977,-0.00036000000000002697,-0.0017000000000000348,1742248553.5327811
-0.35,0.27,-0.235,0.0014600000000000168,0.00011999999999989797,-0.0006199999999999539,-0.48,0.05499999999999994,-0.14500000000000002,0.0027999999999999137,0.00048000000000003595,0.0018400000000000638,1742248553.646445
-0.345,0.2650000000000001,-0.235,0.0,-0.0018400000000000638,-0.0018400000000000638,-0.4650000000000001,0.06000000000000005,-0.14500000000000002,0.0030599999999998406,0.0021999999999999797,0.0007399999999999629,1742248553.7604349
-0.355,0.2650000000000001,-0.24,-0.0027999999999999137,-0.0075599999999999,0.0023200000000000998,-0.4650000000000001,0.06499999999999995,-0.14500000000000002,-0.0014600000000000168,0.006460000000000132,-0.0048799999999999955,1742248553.879102
-0.35,0.27,-0.235,-0.0017000000000000348,-0.0022000000000000908,0.01097999999999999,-0.47,0.06000000000000005,-0.14500000000000002,-0.0024400000000001087,0.005980000000000096,-0.01208000000000009,1742248553.988653
-0.345,0.27,-0.235,-0.0036599999999999966,0.0034199999999999786,0.001100000000000101,-0.475,0.06499999999999995,-0.14,-0.00012000000000000899,0.0006200000000000649,-0.0012199999999999989,1742248554.103752
-0.35,0.2650000000000001,-0.245,0.0015800000000001369,0.0017000000000000348,-0.0006199999999999539,-0.47,0.06499999999999995,-0.135,0.0007399999999999629,-0.0034199999999999786,0.00011999999999989797,1742248554.220779
-0.35,0.2650000000000001,-0.24,0.0027999999999999137,0.00048000000000003595,-0.00048000000000003595,-0.47,0.06499999999999995,-0.14,0.0017000000000000348,-0.0022000000000000908,0.0013400000000001189,1742248554.33058
-0.35,0.26,-0.24,0.0009799999999999809,-0.00036000000000002697,-0.001960000000000073,-0.47,0.06499999999999995,-0.14,0.0017000000000000348,-0.0009799999999999809,0.0009799999999999809,1742248554.444591
-0.355,0.2650000000000001,-0.24,0.00035999999999991594,0.002080000000000082,0.0009799999999999809,-0.475,0.06499999999999995,-0.14,-0.00024000000000001798,-0.0015800000000000258,-0.0008599999999999719,1742248554.562272
-0.35,0.2650000000000001,-0.235,0.00024000000000001798,0.0027999999999999137,0.0031799999999999606,-0.475,0.06499999999999995,-0.14,0.0019599999999999618,-0.0010999999999999899,-0.0027999999999999137,1742248554.672686
-0.36,0.2650000000000001,-0.245,0.0030599999999998406,-0.008179999999999965,0.0025599999999998957,-0.4650000000000001,0.06499999999999995,-0.14,0.0026800000000000157,-0.0012199999999999989,-0.00024000000000001798,1742248554.786987
-0.345,0.2650000000000001,-0.22999999999999998,-0.0006199999999999539,0.0007399999999999629,0.008299999999999974,-0.4650000000000001,0.06000000000000005,-0.14,0.0042800000000000615,0.0007399999999999629,-0.008419999999999983,1742248554.900535
-0.35,0.2650000000000001,-0.24,-0.0010999999999999899,-0.00012000000000000899,0.004999999999999893,-0.47,0.07000000000000006,-0.14,0.0007399999999999629,0.0007399999999999629,-0.0024400000000001087,1742248555.0146189
-0.36,0.26,-0.24,0.007440000000000113,0.0031799999999999606,0.0035399999999998766,-0.47,0.07499999999999996,-0.14,-0.0008599999999999719,-0.0047599999999999865,-0.0045199999999999685,1742248555.128781
-0.355,0.25,-0.235,0.0025599999999998957,0.0007399999999999629,0.0040199999999999125,-0.4650000000000001,0.08000000000000007,-0.14,0.0008600000000000829,-0.0022000000000000908,-0.005120000000000013,1742248555.242698
-0.365,0.2549999999999999,-0.24,-0.00048000000000003595,0.0027999999999999137,0.005120000000000013,-0.485,0.07499999999999996,-0.14500000000000002,-0.011600000000000055,0.004999999999999893,-0.009159999999999946,1742248555.359798
-0.36,0.2549999999999999,-0.22999999999999998,-0.009759999999999991,-0.0006199999999999539,0.0025599999999998957,-0.4650000000000001,0.07499999999999996,-0.14,-0.010000000000000009,0.00537999999999994,-0.006840000000000068,1742248555.470528
-0.37,0.25,-0.22999999999999998,-0.00782000000000005,0.006099999999999994,0.0037799999999998946,-0.4650000000000001,0.08000000000000007,-0.14,-0.006220000000000003,0.00035999999999991594,-0.008179999999999965,1742248555.584579
-0.36,0.2549999999999999,-0.22499999999999998,0.006460000000000132,0.011719999999999953,0.002080000000000082,-0.45500000000000007,0.06000000000000005,-0.14500000000000002,-0.012319999999999998,-0.007440000000000002,0.010140000000000038,1742248555.698524
-0.365,0.29000000000000004,-0.20999999999999996,0.05346000000000006,0.013800000000000034,-0.07689999999999997,-0.475,0.06000000000000005,-0.15000000000000002,-0.035640000000000005,-0.02954000000000001,0.0709200000000001,1742248555.812549
-0.33000000000000007,0.32000000000000006,-0.22499999999999998,0.05518000000000001,0.001100000000000101,-0.07055999999999996,-0.485,0.020000000000000018,-0.17000000000000004,0.016720000000000068,-0.03503999999999996,0.11035999999999979,1742248555.926498
-0.3400000000000001,0.32499999999999996,-0.15500000000000003,0.00782000000000016,0.034660000000000135,-0.058719999999999994,-0.42999999999999994,-0.020000000000000018,-0.19500000000000006,-0.03088000000000002,-0.03967999999999994,0.04590000000000005,1742248556.040692
-0.30499999999999994,0.33000000000000007,-0.18500000000000005,-0.013539999999999996,0.02210000000000001,-0.0015800000000000258,-0.45500000000000007,-0.010000000000000009,-0.20499999999999996,-0.0075599999999999,-0.010379999999999945,-0.020499999999999963,1742248556.154787
-0.31499999999999995,0.3599999999999999,-0.16000000000000003,0.0045200000000000795,0.012820000000000054,-0.010379999999999945,-0.45500000000000007,-0.040000000000000036,-0.19500000000000006,0.005740000000000078,-0.0042799999999999505,0.017819999999999947,1742248556.268573
-0.31499999999999995,0.3500000000000001,-0.17999999999999994,0.005980000000000096,0.0307599999999999,-0.04174,-0.44999999999999996,-0.015000000000000013,-0.235,0.009759999999999991,-0.03272000000000008,0.01758000000000015,1742248556.382565
-0.30000000000000004,0.365,-0.14500000000000002,0.04503999999999997,0.04090000000000016,-0.04296,-0.44500000000000006,-0.020000000000000018,-0.19999999999999996,-0.024780000000000024,-0.009399999999999964,0.008059999999999956,1742248556.4996412
-0.31000000000000005,0.3700000000000001,-0.15000000000000002,-0.005120000000000013,0.00537999999999994,0.0046399999999999775,-0.47,-0.0050000000000000044,-0.22999999999999998,0.00048000000000003595,-0.011840000000000073,-0.02513999999999994,1742248556.610694
-0.29499999999999993,0.3799999999999999,-0.13,0.02293999999999996,-0.0036599999999999966,-0.0050000000000000044,-0.44500000000000006,-0.020000000000000018,-0.24,-0.0007399999999999629,0.0031799999999999606,-0.009759999999999991,1742248556.724674
-0.31499999999999995,0.375,-0.16000000000000003,-0.01966000000000001,-0.012820000000000054,0.03088000000000002,-0.43999999999999995,-0.0050000000000000044,-0.25,0.023679999999999923,0.0008600000000000829,-0.0122000000000001,1742248556.839308
-0.32000000000000006,0.355,-0.125,0.030399999999999983,0.0037799999999998946,-0.022820000000000062,-0.42999999999999994,-0.010000000000000009,-0.20499999999999996,-0.06311999999999995,0.024780000000000024,0.021239999999999926,1742248556.9525492
-0.32000000000000006,0.365,-0.14500000000000002,0.02198000000000011,-0.016120000000000023,0.018179999999999863,-0.4650000000000001,-0.040000000000000036,-0.245,-0.09753999999999996,0.0006200000000000649,-0.018440000000000012,1742248557.0667038
-0.29000000000000004,0.355,-0.12,0.05675999999999992,0.0026800000000000157,-0.0650599999999999,-0.42500000000000004,-0.06499999999999995,-0.22999999999999998,-0.09314,-0.015020000000000033,0.03735999999999984,1742248557.180643
-0.30499999999999994,0.345,-0.12,0.021239999999999926,0.0042800000000000615,-0.02185999999999999,-0.43500000000000005,-0.050000000000000044,-0.235,-0.036619999999999986,-0.03539999999999999,-0.016840000000000077,1742248557.2980218
-0.30499999999999994,0.395,-0.12,-0.013799999999999923,-0.011600000000000055,0.02442000000000011,-0.44500000000000006,-0.06000000000000005,-0.22999999999999998,-0.01636000000000004,0.013679999999999914,-0.015020000000000033,1742248557.408675
-0.29000000000000004,0.375,-0.135,-0.013919999999999932,-0.03539999999999999,0.010000000000000009,-0.475,-0.07499999999999996,-0.20999999999999996,-0.02855999999999992,0.05761999999999978,0.0,1742248557.522613
-0.30000000000000004,0.375,-0.15500000000000003,-0.01758000000000004,-0.021480000000000055,-0.0018400000000000638,-0.43999999999999995,-0.050000000000000044,-0.19500000000000006,0.014639999999999986,0.031119999999999814,0.0012199999999999989,1742248557.639037
-0.30000000000000004,0.365,-0.15000000000000002,-0.00878000000000001,-0.008419999999999983,0.01428000000000007,-0.44500000000000006,-0.06000000000000005,-0.19999999999999996,0.02320000000000011,0.017340000000000133,-0.0024400000000001087,1742248557.750526
-0.30000000000000004,0.3700000000000001,-0.15500000000000003,0.0040199999999999125,-0.005739999999999967,0.00550000000000006,-0.45999999999999996,-0.06499999999999995,-0.18500000000000005,0.0037799999999998946,0.0021999999999999797,0.0045200000000000795,1742248557.86437
-0.29000000000000004,0.365,-0.16500000000000004,-0.0041599999999999415,-0.023320000000000007,0.011479999999999935,-0.45999999999999996,-0.07000000000000006,-0.17500000000000004,0.0036599999999999966,0.02088000000000001,0.014399999999999968,1742248557.9788191
-0.29000000000000004,0.3599999999999999,-0.17000000000000004,-0.015020000000000033,-0.03355999999999992,0.01317999999999997,-0.44999999999999996,-0.06000000000000005,-0.17999999999999994,-0.0025599999999998957,0.027579999999999938,0.025020000000000042,1742248558.0924742
-0.30000000000000004,0.3599999999999999,-0.17999999999999994,0.005980000000000096,-0.00537999999999994,-0.016960000000000086,-0.45999999999999996,-0.07499999999999996,-0.16500000000000004,0.013919999999999932,0.01195999999999997,0.015139999999999931,1742248558.206402
-0.29499999999999993,0.355,-0.17500000000000004,0.0012199999999999989,-0.0039000000000000146,0.016000000000000014,-0.44999999999999996,-0.07499999999999996,-0.16500000000000004,0.03709999999999991,-0.0030599999999999516,-0.012580000000000036,1742248558.32059
-0.29499999999999993,0.3700000000000001,-0.17999999999999994,-0.0007399999999999629,-0.011960000000000082,0.008539999999999992,-0.47,-0.06499999999999995,-0.16500000000000004,0.03723999999999994,0.014780000000000015,-0.0031799999999999606,1742248558.4379678
-0.30000000000000004,0.345,-0.18999999999999995,-0.0029199999999999227,-0.012460000000000027,0.008179999999999854,-0.4650000000000001,-0.04500000000000004,-0.16000000000000003,0.04357999999999995,0.017340000000000133,-0.010000000000000009,1742248558.548461
-0.31000000000000005,0.345,-0.20499999999999996,-0.017080000000000095,-0.012460000000000027,0.022340000000000027,-0.475,-0.03500000000000003,-0.16000000000000003,0.033320000000000016,0.008920000000000039,-0.01867999999999992,1742248558.6624708
-0.31499999999999995,0.33000000000000007,-0.19999999999999996,-0.03295999999999999,-0.022340000000000027,0.05590000000000006,-0.4650000000000001,-0.020000000000000018,-0.15000000000000002,0.045660000000000034,-0.011720000000000064,-0.05235999999999996,1742248558.7796118
-0.32000000000000006,0.32499999999999996,-0.21999999999999997,-0.0012199999999999989,-0.011720000000000064,0.018920000000000048,-0.475,-0.015000000000000013,-0.16000000000000003,0.011239999999999917,0.006720000000000059,-0.009639999999999982,1742248558.8904488
-0.32499999999999996,0.31499999999999995,-0.21999999999999997,-0.0037800000000000056,0.0009799999999999809,0.00770000000000004,-0.47,0.0,-0.16000000000000003,0.010000000000000009,-0.0008599999999999719,-0.00048000000000003595,1742248559.004564
-0.32000000000000006,0.30000000000000004,-0.21999999999999997,0.0014600000000000168,0.0019599999999999618,0.010140000000000038,-0.485,0.004999999999999893,-0.16000000000000003,0.009039999999999937,0.0031799999999999606,-0.0018400000000000638,1742248559.1184509
-0.33499999999999996,0.29499999999999993,-0.22499999999999998,-0.0040200000000000236,0.0047600000000000975,0.016119999999999912,-0.47,0.014999999999999902,-0.16000000000000003,0.007560000000000011,-0.001960000000000073,-0.015499999999999958,1742248559.232469
-0.32000000000000006,0.29499999999999993,-0.19999999999999996,-0.05798000000000003,0.008299999999999974,0.04809999999999981,-0.45500000000000007,0.014999999999999902,-0.15500000000000003,-0.028200000000000003,0.014399999999999968,0.01746000000000003,1742248559.346459
-0.345,0.29499999999999993,-0.235,0.0034199999999999786,0.0021999999999999797,-0.00537999999999994,-0.475,0.0,-0.16000000000000003,-0.008660000000000001,0.007560000000000011,0.014399999999999968,1742248559.460368
-0.345,0.27,-0.22999999999999998,-0.022820000000000062,0.0015800000000001369,0.008920000000000039,-0.44999999999999996,-0.010000000000000009,-0.14,-0.03515999999999997,0.025140000000000162,0.04200000000000004,1742248559.574464
-0.35,0.2749999999999999,-0.235,-0.0040200000000000236,0.0008600000000000829,0.0043999999999999595,-0.47,-0.025000000000000022,-0.14500000000000002,-0.0048799999999999955,0.00024000000000001798,0.001100000000000101,1742248559.6884658
-0.345,0.2749999999999999,-0.22999999999999998,-0.005859999999999976,0.0037799999999998946,0.009160000000000057,-0.475,-0.020000000000000018,-0.15000000000000002,0.00537999999999994,-0.0037800000000000056,-0.009759999999999991,1742248559.802589
-0.345,0.2749999999999999,-0.22999999999999998,0.006599999999999939,-0.0008599999999999719,0.0036599999999999966,-0.47,-0.020000000000000018,-0.15000000000000002,0.006960000000000077,-0.0045199999999999685,-0.0025599999999998957,1742248559.9190788
-0.355,0.2749999999999999,-0.22999999999999998,0.011360000000000037,0.006839999999999957,-0.011840000000000073,-0.48,-0.010000000000000009,-0.15500000000000003,0.005619999999999958,-0.0031799999999999606,0.009759999999999991,1742248560.03053
-0.35,0.28,-0.21999999999999997,0.013539999999999885,0.015139999999999931,-0.018179999999999974,-0.47,-0.020000000000000018,-0.15000000000000002,0.01966000000000001,0.0008600000000000829,0.019400000000000084,1742248560.144415
-0.35,0.30000000000000004,-0.20499999999999996,0.015859999999999985,0.022699999999999942,-0.025519999999999987,-0.475,-0.030000000000000027,-0.15500000000000003,0.007940000000000058,0.00048000000000003595,0.020140000000000047,1742248560.2582872
-0.3400000000000001,0.32000000000000006,-0.18999999999999995,0.015260000000000051,0.004999999999999893,-0.01855999999999991,-0.47,-0.03500000000000003,-0.15500000000000003,0.007940000000000058,-0.007200000000000095,0.022820000000000062,1742248560.372486
-0.33000000000000007,0.32000000000000006,-0.17500000000000004,0.03869999999999996,0.017940000000000067,-0.05615999999999999,-0.45999999999999996,-0.025000000000000022,-0.15500000000000003,0.027220000000000022,0.00024000000000001798,0.03161999999999998,1742248560.4864352
-0.30499999999999994,0.355,-0.16500000000000004,0.037599999999999856,0.04468000000000005,-0.07972000000000001,-0.47,-0.03500000000000003,-0.14500000000000002,0.04455999999999993,0.0035399999999998766,0.021120000000000028,1742248560.603473
-0.29000000000000004,0.3900000000000001,-0.135,0.043460000000000054,0.016000000000000014,-0.055419999999999914,-0.47,-0.06499999999999995,-0.15500000000000003,0.02942,-0.0008599999999999719,0.01758000000000015,1742248560.717396
-0.2849999999999999,0.395,-0.12,0.030160000000000187,0.010620000000000074,-0.047599999999999976,-0.4650000000000001,-0.06000000000000005,-0.16500000000000004,0.0041599999999999415,-0.0024400000000001087,0.015859999999999985,1742248560.828382
-0.27,0.3999999999999999,-0.10999999999999999,0.018440000000000012,0.0034199999999999786,-0.020379999999999954,-0.4650000000000001,-0.06000000000000005,-0.16000000000000003,-0.008059999999999956,0.001100000000000101,-0.00024000000000001798,1742248560.942472
-0.265,0.405,-0.10499999999999998,0.0006200000000000649,-0.006720000000000059,0.017940000000000067,-0.4650000000000001,-0.07000000000000006,-0.17000000000000004,-0.01990000000000003,0.0029200000000000337,-0.02061999999999997,1742248561.056463
-0.275,0.3900000000000001,-0.10999999999999999,-0.022460000000000035,-0.0035399999999999876,0.0295399999999999,-0.475,-0.07000000000000006,-0.16000000000000003,-0.030159999999999965,0.009400000000000075,-0.021600000000000064,1742248561.170462
-0.31000000000000005,0.365,-0.13,-0.04515999999999998,-0.006340000000000012,0.018179999999999863,-0.4650000000000001,-0.050000000000000044,-0.16500000000000004,-0.04394000000000009,0.023560000000000025,-0.023799999999999932,1742248561.284482
-0.275,0.405,-0.15500000000000003,-0.03064,-0.0006199999999999539,-0.01085999999999998,-0.4650000000000001,-0.05500000000000005,-0.12,-0.04027999999999998,0.009759999999999991,-0.014900000000000024,1742248561.398881
-0.29000000000000004,0.3700000000000001,-0.15500000000000003,-0.030019999999999936,0.0006200000000000649,0.015619999999999967,-0.47,-0.050000000000000044,-0.12,-0.037719999999999976,0.008059999999999956,-0.016720000000000068,1742248561.512419
-0.30000000000000004,0.365,-0.17000000000000004,-0.029179999999999984,0.006099999999999994,0.006099999999999994,-0.485,-0.050000000000000044,-0.11499999999999999,-0.02501999999999993,0.007940000000000058,-0.01427999999999996,1742248561.626459
-0.30000000000000004,0.3599999999999999,-0.17999999999999994,-0.01085999999999998,-0.0030599999999999516,-0.0042799999999999505,-0.485,-0.06000000000000005,-0.11499999999999999,-0.029299999999999993,0.017340000000000133,0.010259999999999936,1742248561.740403
-0.29000000000000004,0.3599999999999999,-0.17999999999999994,-0.011720000000000064,-0.0018400000000000638,-0.006460000000000021,-0.475,-0.06000000000000005,-0.09999999999999998,-0.021480000000000055,0.009519999999999973,0.0017000000000000348,1742248561.854458
-0.28,0.3700000000000001,-0.18500000000000005,0.0036599999999999966,-0.007440000000000002,-0.013679999999999914,-0.48,-0.07999999999999996,-0.09999999999999998,-0.01317999999999997,0.0035399999999998766,0.03198000000000012,1742248561.9684858
-0.29000000000000004,0.355,-0.17999999999999994,0.009279999999999955,0.00878000000000001,-0.017340000000000022,-0.48,-0.05500000000000005,-0.09999999999999998,0.007319999999999993,-0.0032999999999999696,0.006460000000000132,1742248562.082411
-0.28,0.375,-0.17500000000000004,0.0040199999999999125,-0.00012000000000000899,0.009039999999999937,-0.475,-0.08499999999999996,-0.09499999999999997,0.010259999999999936,-0.0050000000000000044,-0.0050000000000000044,1742248562.1999118
-0.2849999999999999,0.3700000000000001,-0.17500000000000004,0.008539999999999992,0.0036599999999999966,0.012460000000000138,-0.485,-0.07000000000000006,-0.10499999999999998,0.02540000000000009,-0.0043999999999999595,-0.0048799999999999955,1742248562.310406
-0.2849999999999999,0.375,-0.16500000000000004,0.042240000000000055,0.005619999999999958,-0.0008599999999999719,-0.45999999999999996,-0.06000000000000005,-0.10999999999999999,0.056519999999999904,-0.024899999999999922,0.01770000000000005,1742248562.424372
-0.28,0.385,-0.14,0.08972000000000002,-0.0042799999999999505,-0.04455999999999993,-0.45999999999999996,-0.06499999999999995,-0.13,0.041380000000000194,-0.03161999999999998,0.041020000000000056,1742248562.541253
-0.28,0.3599999999999999,-0.10499999999999998,0.05590000000000006,0.006220000000000114,-0.017940000000000067,-0.4650000000000001,-0.06499999999999995,-0.15500000000000003,0.048699999999999966,0.0041599999999999415,-0.03064,1742248562.652301
-0.28,0.42999999999999994,-0.08999999999999997,0.009039999999999937,0.0034199999999999786,-0.00770000000000004,-0.4650000000000001,-0.08499999999999996,-0.17000000000000004,0.020019999999999927,0.0019599999999999618,-0.01537999999999995,1742248562.770119
-0.26,0.45500000000000007,-0.07499999999999996,0.041380000000000194,0.0047600000000000975,-0.062019999999999964,-0.4650000000000001,-0.07000000000000006,-0.17000000000000004,0.022699999999999942,-0.03173999999999999,0.04614000000000007,1742248562.880278
-0.245,0.42500000000000004,-0.06499999999999995,0.03992000000000018,-0.006720000000000059,-0.04161999999999999,-0.44999999999999996,-0.07000000000000006,-0.17500000000000004,0.03051999999999988,-0.022820000000000062,0.015859999999999985,1742248562.994434
-0.21999999999999997,0.43500000000000005,-0.06000000000000005,0.02442000000000011,-0.013299999999999979,-0.020379999999999954,-0.4650000000000001,-0.07499999999999996,-0.17999999999999994,0.03527999999999998,0.0034199999999999786,0.0048799999999999955,1742248563.108314
-0.21999999999999997,0.42500000000000004,-0.050000000000000044,0.0013400000000001189,-0.01660000000000006,-0.008299999999999974,-0.44999999999999996,-0.05500000000000005,-0.17999999999999994,-0.009399999999999964,0.027579999999999938,0.0012199999999999989,1742248563.222317
-0.21499999999999997,0.43500000000000005,-0.06000000000000005,-0.0043999999999999595,-0.0037800000000000056,-0.0048799999999999955,-0.44999999999999996,-0.06499999999999995,-0.17500000000000004,-0.006099999999999994,0.014399999999999968,-0.00537999999999994,1742248563.3394508
-0.22499999999999998,0.43999999999999995,-0.07499999999999996,-0.0014600000000000168,0.001100000000000101,-0.0026799999999999047,-0.45500000000000007,-0.06499999999999995,-0.16000000000000003,0.001100000000000101,0.0017000000000000348,-0.0029199999999999227,1742248563.450301
-0.21499999999999997,0.43500000000000005,-0.06499999999999995,0.00048000000000003595,-0.0026799999999999047,-0.0007399999999999629,-0.45500000000000007,-0.06499999999999995,-0.17000000000000004,-0.00048000000000003595,0.0048799999999999955,-0.0024400000000001087,1742248563.564403
-0.22999999999999998,0.43500000000000005,-0.06499999999999995,-0.012700000000000045,-0.0018400000000000638,0.012320000000000109,-0.45999999999999996,-0.06499999999999995,-0.17000000000000004,-0.00988,0.009640000000000093,-0.015619999999999967,1742248563.679039
-0.25,0.44500000000000006,-0.07499999999999996,-0.054440000000000044,0.007200000000000095,0.04418000000000011,-0.48,-0.06000000000000005,-0.15500000000000003,-0.05408000000000002,0.03956000000000004,-0.035760000000000014,1742248563.79242
-0.265,0.42999999999999994,-0.10999999999999999,-0.024660000000000015,0.010140000000000038,0.02526000000000006,-0.485,-0.050000000000000044,-0.135,-0.03161999999999998,0.007940000000000058,-0.010379999999999945,1742248563.906401
-0.265,0.4099999999999999,-0.11499999999999999,-0.02403999999999995,0.010739999999999972,0.017940000000000067,-0.485,-0.04500000000000004,-0.13,-0.015619999999999967,0.010739999999999972,-0.0122000000000001,1742248564.021089
-0.275,0.3900000000000001,-0.12,-0.028079999999999994,0.009519999999999973,0.012700000000000156,-0.485,-0.030000000000000027,-0.10999999999999999,-0.03539999999999999,0.022460000000000147,-0.01525999999999994,1742248564.134489
-0.2849999999999999,0.3599999999999999,-0.13,-0.060799999999999965,0.006720000000000059,0.017940000000000067,-0.48,-0.020000000000000018,-0.10999999999999999,-0.06041999999999992,0.03942000000000001,-0.02391999999999994,1742248564.24845
-0.30000000000000004,0.3500000000000001,-0.16000000000000003,-0.05467999999999995,0.007319999999999993,0.02929999999999988,-0.495,-0.040000000000000036,-0.07999999999999996,-0.03820000000000001,0.0283199999999999,0.0048799999999999955,1742248564.362227
-0.30499999999999994,0.33499999999999996,-0.18999999999999995,-0.04955999999999994,0.0023200000000000998,0.043220000000000036,-0.475,-0.015000000000000013,-0.08499999999999996,-0.013539999999999996,0.00024000000000001798,-0.04527999999999999,1742248564.4794629
-0.31000000000000005,0.345,-0.18999999999999995,-0.016120000000000023,-0.0026799999999999047,0.02526000000000006,-0.48,-0.025000000000000022,-0.08499999999999996,-0.013679999999999914,-0.0031799999999999606,-0.01427999999999996,1742248564.590516
-0.33000000000000007,0.33499999999999996,-0.18500000000000005,-0.014639999999999986,0.0024399999999999977,0.01097999999999999,-0.48,-0.0050000000000000044,-0.08499999999999996,-0.01427999999999996,-0.007200000000000095,-0.011960000000000082,1742248564.704496
-0.3400000000000001,0.33000000000000007,-0.18999999999999995,-0.012319999999999998,0.004999999999999893,0.01550000000000007,-0.5,-0.0050000000000000044,-0.07999999999999996,-0.01746000000000003,-0.010259999999999936,-0.0048799999999999955,1742248564.819264
-0.32499999999999996,0.33499999999999996,-0.19500000000000006,0.0007399999999999629,-0.017220000000000013,-0.021720000000000073,-0.495,-0.04500000000000004,-0.08999999999999997,-0.03834000000000004,0.01648000000000005,0.059700000000000086,1742248564.932292
-0.3400000000000001,0.30499999999999994,-0.20999999999999996,-0.05176000000000003,-0.046499999999999986,0.013919999999999932,-0.45999999999999996,-0.010000000000000009,-0.04500000000000004,-0.05565999999999993,0.01537999999999995,-0.005859999999999976,1742248565.046411
-0.32000000000000006,0.31499999999999995,-0.22499999999999998,-0.012700000000000045,-0.029779999999999918,0.054440000000000044,-0.48,-0.025000000000000022,-0.07000000000000006,-0.0026799999999999047,-0.00770000000000004,-0.05565999999999993,1742248565.160463
-0.33000000000000007,0.30499999999999994,-0.22999999999999998,0.0031799999999999606,0.0037799999999998946,0.027700000000000058,-0.495,-0.015000000000000013,-0.08499999999999996,0.00537999999999994,-0.006340000000000012,0.006839999999999957,1742248565.274305
-0.32000000000000006,0.2849999999999999,-0.22999999999999998,0.014399999999999968,0.010259999999999936,0.008059999999999956,-0.485,0.020000000000000018,-0.07499999999999996,0.019039999999999946,-0.0039000000000000146,0.018320000000000114,1742248565.388204
-0.33499999999999996,0.29000000000000004,-0.235,0.007440000000000113,-0.0029199999999999227,0.03320000000000012,-0.495,-0.015000000000000013,-0.09499999999999997,0.013539999999999885,0.00035999999999991594,-0.0050000000000000044,1742248565.502311
-0.3400000000000001,0.31000000000000005,-0.21999999999999997,0.013419999999999987,-0.0006199999999999539,-0.03870000000000007,-0.5,-0.020000000000000018,-0.09499999999999997,-0.013679999999999914,0.01097999999999999,0.06396000000000002,1742248565.618594
-0.32499999999999996,0.30499999999999994,-0.24,0.006340000000000012,-0.01305999999999996,-0.09094000000000002,-0.485,-0.010000000000000009,-0.07000000000000006,0.0045200000000000795,0.018920000000000048,0.048960000000000115,1742248565.730322
-0.30000000000000004,0.32000000000000006,-0.22499999999999998,-0.0041599999999999415,-0.006099999999999994,0.03088000000000002,-0.495,-0.08499999999999996,-0.07000000000000006,0.006220000000000114,-0.00036000000000002697,-0.02088000000000001,1742248565.8445098
-0.29499999999999993,0.32499999999999996,-0.235,0.012939999999999952,-0.0026799999999999047,-0.03320000000000001,-0.4650000000000001,-0.05500000000000005,-0.07000000000000006,-0.00048000000000003595,0.0017000000000000348,0.025519999999999987,1742248565.959104
-0.29499999999999993,0.33000000000000007,-0.22499999999999998,0.010739999999999972,-0.0022000000000000908,-0.0031799999999999606,-0.48,-0.07999999999999996,-0.06499999999999995,0.0014600000000000168,-0.0025599999999998957,0.0034199999999999786,1742248566.072439
-0.30499999999999994,0.33000000000000007,-0.22999999999999998,0.0039000000000000146,-0.0047599999999999865,-0.0025599999999998957,-0.485,-0.07499999999999996,-0.07000000000000006,0.00011999999999989797,-0.0014600000000000168,0.0012199999999999989,1742248566.186303
-0.30000000000000004,0.33000000000000007,-0.22999999999999998,-0.0018400000000000638,0.0007399999999999629,0.007940000000000058,-0.485,-0.07499999999999996,-0.06499999999999995,0.0030599999999998406,-0.0017000000000000348,-0.006460000000000021,1742248566.3002949
-0.29000000000000004,0.32000000000000006,-0.22999999999999998,-0.0007399999999999629,0.0023200000000000998,0.014780000000000015,-0.4650000000000001,-0.05500000000000005,-0.07000000000000006,0.019160000000000066,-0.012820000000000054,-0.029899999999999927,1742248566.4142878
-0.32499999999999996,0.30499999999999994,-0.235,0.0047600000000000975,0.011840000000000073,0.042240000000000055,-0.5,-0.06000000000000005,-0.08499999999999996,0.030399999999999983,-0.007440000000000002,-0.05164000000000002,1742248566.528278
-0.32499999999999996,0.30499999999999994,-0.235,-0.00012000000000000899,-0.0022000000000000908,0.030019999999999936,-0.495,-0.040000000000000036,-0.08499999999999996,0.01428000000000007,0.0040199999999999125,-0.012940000000000063,1742248566.642178
-0.33000000000000007,0.30000000000000004,-0.21499999999999997,0.0007399999999999629,-0.00878000000000001,0.008920000000000039,-0.48,-0.04500000000000004,-0.07999999999999996,0.008920000000000039,0.006099999999999994,-0.0040200000000000236,1742248566.7594728
-0.31499999999999995,0.32000000000000006,-0.22999999999999998,0.0031799999999999606,-0.0007399999999999629,0.0035399999999998766,-0.5,-0.040000000000000036,-0.07000000000000006,0.009759999999999991,0.007200000000000095,0.02391999999999994,1742248566.8700988
-0.33000000000000007,0.27,-0.22999999999999998,0.00782000000000016,0.001100000000000101,0.011600000000000055,-0.49,-0.015000000000000013,-0.07000000000000006,0.007319999999999993,0.01097999999999999,-0.0007399999999999629,1742248566.9841971
-0.31499999999999995,0.31000000000000005,-0.21999999999999997,-0.0015800000000000258,-0.007200000000000095,0.016720000000000068,-0.5,-0.05500000000000005,-0.07999999999999996,0.0015800000000001369,0.0027999999999999137,-0.007320000000000104,1742248567.098328
-0.33499999999999996,0.30499999999999994,-0.22499999999999998,0.0034199999999999786,-0.005120000000000013,-0.036739999999999995,-0.485,-0.03500000000000003,-0.07999999999999996,-0.006460000000000021,0.002080000000000082,0.04188000000000014,1742248567.2121978
-0.32000000000000006,0.2849999999999999,-0.235,-0.008919999999999928,-0.0008599999999999719,-0.015139999999999931,-0.47,-0.015000000000000013,-0.07499999999999996,0.01855999999999991,-0.02088000000000001,0.01428000000000007,1742248567.326197
-0.29499999999999993,0.30000000000000004,-0.25,-0.0026799999999999047,-0.010000000000000009,0.03723999999999994,-0.49,-0.06000000000000005,-0.06000000000000005,0.04039999999999999,-0.010000000000000009,-0.011840000000000073,1742248567.440203
-0.32499999999999996,0.345,-0.22999999999999998,0.02855999999999992,-0.00537999999999994,-0.006720000000000059,-0.49,-0.08499999999999996,-0.09499999999999997,0.020999999999999908,-0.017220000000000013,0.05249999999999999,1742248567.5542028
-0.29000000000000004,0.31000000000000005,-0.22999999999999998,0.030399999999999983,0.01746000000000003,0.028939999999999966,-0.4650000000000001,-0.11499999999999999,-0.17500000000000004,0.0295399999999999,0.006839999999999957,-0.03503999999999996,1742249976.838335
-0.36,0.30499999999999994,-0.17000000000000004,0.014040000000000052,0.0042800000000000615,0.051020000000000065,-0.41999999999999993,-0.07000000000000006,-0.17000000000000004,0.0027999999999999137,0.0035399999999998766,-0.016840000000000077,1742249976.951589
-0.345,0.29499999999999993,-0.19999999999999996,-0.011099999999999999,-0.013299999999999979,0.06359999999999988,-0.495,-0.07499999999999996,-0.17999999999999994,0.025140000000000162,-0.00024000000000001798,-0.04479999999999995,1742249977.0659158
-0.375,0.29000000000000004,-0.21499999999999997,-0.011480000000000046,-0.009759999999999991,0.054319999999999924,-0.45999999999999996,-0.040000000000000036,-0.17500000000000004,0.025640000000000107,-0.009519999999999973,-0.041019999999999945,1742249977.179674
-0.375,0.25,-0.20999999999999996,-0.011600000000000055,-0.009639999999999982,0.04699999999999993,-0.45999999999999996,-0.025000000000000022,-0.17999999999999994,0.021120000000000028,0.0008600000000000829,-0.015619999999999967,1742249977.2936058
-0.385,0.2250000000000001,-0.20999999999999996,-0.005120000000000013,-0.0023200000000000998,0.02429999999999999,-0.47,-0.025000000000000022,-0.18500000000000005,0.024780000000000024,-0.0045199999999999685,0.0035399999999998766,1742249977.407546
-0.395,0.24,-0.21499999999999997,0.005120000000000013,-0.006460000000000021,0.006599999999999939,-0.45999999999999996,-0.015000000000000013,-0.17999999999999994,0.008299999999999974,-0.0009799999999999809,0.00782000000000016,1742249977.525768
-0.39,0.21999999999999997,-0.21499999999999997,0.010140000000000038,0.0042800000000000615,-0.005739999999999967,-0.47,-0.010000000000000009,-0.18500000000000005,0.0,0.0015800000000001369,-0.0025599999999998957,1742249977.6355898
-0.395,0.2250000000000001,-0.20999999999999996,-0.00024000000000001798,0.0013400000000001189,0.0048799999999999955,-0.47,0.0,-0.18500000000000005,-0.0008599999999999719,0.00550000000000006,0.005980000000000096,1742249977.74948
-0.395,0.22999999999999998,-0.20999999999999996,0.009400000000000075,0.0014600000000000168,-0.01770000000000005,-0.4650000000000001,-0.020000000000000018,-0.17999999999999994,-0.0013400000000000079,-0.00012000000000000899,0.00048000000000003595,1742249977.8657432
-0.385,0.24,-0.20499999999999996,-0.0031799999999999606,-0.0022000000000000908,-0.0047599999999999865,-0.4650000000000001,-0.015000000000000013,-0.17500000000000004,0.0014600000000000168,-0.0009799999999999809,0.007940000000000058,1742249977.984712
-0.385,0.23499999999999988,-0.20999999999999996,0.0021999999999999797,-0.0037800000000000056,-0.008419999999999983,-0.4650000000000001,-0.030000000000000027,-0.17999999999999994,-0.0012199999999999989,-0.0009799999999999809,0.011840000000000073,1742249978.091682
-0.385,0.24,-0.20999999999999996,0.00537999999999994,-0.0075599999999999,-0.008059999999999956,-0.45999999999999996,-0.03500000000000003,-0.18500000000000005,-0.011360000000000037,0.0030599999999998406,0.0046399999999999775,1742249978.209501
-0.375,0.25,-0.21499999999999997,-0.00660000000000005,-0.013919999999999932,-0.005120000000000013,-0.47,-0.030000000000000027,-0.17999999999999994,-0.0018400000000000638,-0.00024000000000001798,0.0007399999999999629,1742249978.325902
-0.375,0.25,-0.21999999999999997,-0.0039000000000000146,0.0015800000000001369,-0.0010999999999999899,-0.45999999999999996,-0.03500000000000003,-0.17500000000000004,-0.0008599999999999719,0.0023200000000000998,0.0021999999999999797,1742249978.433475
-0.37,0.2450000000000001,-0.21499999999999997,0.0014600000000000168,-0.0037800000000000056,-0.0014600000000000168,-0.4650000000000001,-0.03500000000000003,-0.17500000000000004,0.0030599999999998406,0.0014600000000000168,0.002080000000000082,1742249978.5473769
-0.375,0.25,-0.21499999999999997,0.0021999999999999797,-0.0009799999999999809,-0.0015800000000000258,-0.45999999999999996,-0.040000000000000036,-0.17500000000000004,0.0019599999999999618,-0.0012199999999999989,-0.0031799999999999606,1742249978.6672242
-0.375,0.25,-0.21999999999999997,0.0035399999999998766,-0.0008599999999999719,0.006099999999999994,-0.4650000000000001,-0.025000000000000022,-0.17500000000000004,0.0025599999999998957,0.0,-0.0007399999999999629,1742249978.775486
-0.375,0.24,-0.21499999999999997,0.004999999999999893,0.002080000000000082,0.0027999999999999137,-0.47,-0.030000000000000027,-0.17999999999999994,0.004999999999999893,-0.00012000000000000899,0.00024000000000001798,1742249978.8894851
-0.375,0.2450000000000001,-0.21999999999999997,0.0017000000000000348,-0.0009799999999999809,0.0014600000000000168,-0.45999999999999996,-0.030000000000000027,-0.17500000000000004,0.0006200000000000649,-0.0010999999999999899,0.0013400000000001189,1742249979.005258
-0.38,0.24,-0.20999999999999996,0.0043999999999999595,0.0045200000000000795,0.00024000000000001798,-0.4650000000000001,-0.040000000000000036,-0.17500000000000004,0.009160000000000057,-0.0008599999999999719,-0.0013400000000000079,1742249979.117586
-0.385,0.2450000000000001,-0.20999999999999996,0.012580000000000036,-0.00024000000000001798,0.009879999999999889,-0.45999999999999996,-0.030000000000000027,-0.17999999999999994,0.005239999999999911,-0.0010999999999999899,-0.0013400000000000079,1742249979.2315872
-0.38,0.24,-0.20999999999999996,0.0029200000000000337,-0.00048000000000003595,0.002080000000000082,-0.4650000000000001,-0.030000000000000027,-0.17999999999999994,-0.0027999999999999137,0.0030599999999998406,-0.0012199999999999989,1742249979.345578
-0.385,0.24,-0.20999999999999996,-0.0023200000000000998,0.00024000000000001798,-0.002080000000000082,-0.4650000000000001,-0.030000000000000027,-0.17500000000000004,-0.0006199999999999539,0.0027999999999999137,-0.0012199999999999989,1742249979.464939
-0.385,0.2450000000000001,-0.20999999999999996,-0.0007399999999999629,0.0007399999999999629,0.0,-0.45999999999999996,-0.025000000000000022,-0.17500000000000004,0.002080000000000082,-0.0023200000000000998,-0.0047599999999999865,1742249979.57358
-0.38,0.24,-0.20499999999999996,-0.0048799999999999955,0.0019599999999999618,0.0035399999999998766,-0.47,-0.020000000000000018,-0.17999999999999994,0.0034199999999999786,-0.0015800000000000258,-0.009159999999999946,1742249979.68759
-0.39,0.23499999999999988,-0.21499999999999997,-0.005979999999999985,-0.0013400000000000079,0.007940000000000058,-0.4650000000000001,-0.020000000000000018,-0.17999999999999994,0.0027999999999999137,-0.0007399999999999629,-0.0008599999999999719,1742249979.803822
-0.385,0.23499999999999988,-0.21499999999999997,-0.0006199999999999539,-0.0017000000000000348,0.0023200000000000998,-0.4650000000000001,-0.010000000000000009,-0.17500000000000004,0.00550000000000006,-0.0010999999999999899,-0.002080000000000082,1742249979.915584
-0.38,0.2250000000000001,-0.21499999999999997,-0.00036000000000002697,-0.00012000000000000899,0.0034199999999999786,-0.4650000000000001,-0.0050000000000000044,-0.17500000000000004,0.009879999999999889,-0.0008599999999999719,-0.0032999999999999696,1742249980.029574
-0.385,0.2250000000000001,-0.21499999999999997,0.0014600000000000168,-0.0023200000000000998,0.006220000000000114,-0.4650000000000001,-0.0050000000000000044,-0.17500000000000004,0.010620000000000074,0.001100000000000101,-0.005859999999999976,1742249980.145338
-0.39,0.21999999999999997,-0.21499999999999997,0.005619999999999958,-0.00024000000000001798,0.009400000000000075,-0.45999999999999996,0.004999999999999893,-0.17500000000000004,0.012199999999999989,0.0048799999999999955,-0.01770000000000005,1742249980.257389
-0.38,0.21500000000000008,-0.21499999999999997,-0.0025599999999998957,-0.005979999999999985,0.019039999999999946,-0.485,-0.010000000000000009,-0.17999999999999994,0.00550000000000006,0.0024399999999999977,-0.00012000000000000899,1742249980.371374
-0.4,0.23499999999999988,-0.21499999999999997,0.0036599999999999966,0.001100000000000101,0.0039000000000000146,-0.45999999999999996,0.004999999999999893,-0.17500000000000004,-0.0007399999999999629,0.0007399999999999629,0.0014600000000000168,1742249980.485441
-0.395,0.21500000000000008,-0.20999999999999996,-0.0013400000000000079,0.0009799999999999809,-0.006960000000000077,-0.4650000000000001,0.004999999999999893,-0.17000000000000004,-0.0030599999999999516,0.0046399999999999775,0.0006200000000000649,1742249980.603688
-0.39,0.21999999999999997,-0.21499999999999997,0.0014600000000000168,0.00035999999999991594,-0.00024000000000001798,-0.45500000000000007,-0.0050000000000000044,-0.16500000000000004,-0.00048000000000003595,0.0024399999999999977,0.0042800000000000615,1742249980.713345
-0.385,0.21999999999999997,-0.20499999999999996,0.006720000000000059,-0.0026799999999999047,0.0027999999999999137,-0.48,-0.010000000000000009,-0.17000000000000004,-0.005120000000000013,0.006460000000000132,0.0034199999999999786,1742249980.8274848
-0.405,0.22999999999999998,-0.21499999999999997,0.0048799999999999955,0.00035999999999991594,0.0024399999999999977,-0.4650000000000001,-0.0050000000000000044,-0.16000000000000003,0.0014600000000000168,-0.0017000000000000348,0.0006200000000000649,1742249980.942898
-0.385,0.21999999999999997,-0.20999999999999996,-0.0006199999999999539,-0.0008599999999999719,-0.0032999999999999696,-0.475,0.010000000000000009,-0.17000000000000004,-0.0026799999999999047,0.00537999999999994,-0.00036000000000002697,1742249981.0553532
-0.39,0.20999999999999996,-0.21499999999999997,-0.0014600000000000168,-0.0007399999999999629,-0.006460000000000021,-0.47,-0.020000000000000018,-0.16500000000000004,-0.017940000000000067,0.0024399999999999977,0.01195999999999997,1742249981.16936
-0.385,0.22999999999999998,-0.21999999999999997,-0.008299999999999974,0.0026800000000000157,-0.019279999999999964,-0.47,-0.020000000000000018,-0.16500000000000004,-0.017940000000000067,-0.006460000000000021,0.006599999999999939,1742249981.284037
-0.395,0.23499999999999988,-0.21999999999999997,-0.008059999999999956,0.0031799999999999606,-0.022580000000000044,-0.48,-0.030000000000000027,-0.16500000000000004,-0.013419999999999987,0.0045200000000000795,0.0009799999999999809,1742249981.397373
-0.375,0.25,-0.21999999999999997,-0.006720000000000059,0.0,-0.011600000000000055,-0.4650000000000001,-0.015000000000000013,-0.16000000000000003,-0.001960000000000073,0.0035399999999998766,-0.011720000000000064,1742249981.5114508
-0.375,0.23499999999999988,-0.21999999999999997,-0.008179999999999965,-0.00660000000000005,0.0041599999999999415,-0.475,-0.010000000000000009,-0.16000000000000003,0.0040199999999999125,0.0009799999999999809,-0.009519999999999973,1742249981.625345
-0.385,0.22999999999999998,-0.235,-0.013679999999999914,-0.014519999999999977,0.012939999999999952,-0.475,-0.010000000000000009,-0.15000000000000002,0.0015800000000001369,-0.010379999999999945,0.0012199999999999989,1742249981.743395
-0.38,0.22999999999999998,-0.235,0.0034199999999999786,0.0035399999999998766,0.006460000000000132,-0.4650000000000001,-0.015000000000000013,-0.16000000000000003,0.009039999999999937,-0.006840000000000068,0.00048000000000003595,1742249981.853355
-0.37,0.22999999999999998,-0.22499999999999998,0.008059999999999956,0.0015800000000001369,0.006099999999999994,-0.45999999999999996,-0.020000000000000018,-0.16500000000000004,0.008419999999999872,-0.007080000000000086,0.0046399999999999775,1742249981.96736
-0.375,0.22999999999999998,-0.22499999999999998,0.004999999999999893,-0.008919999999999928,0.009640000000000093,-0.475,-0.0050000000000000044,-0.17000000000000004,0.0021999999999999797,-0.00660000000000005,0.00865999999999989,1742249982.083006
-0.385,0.21999999999999997,-0.22499999999999998,0.009879999999999889,0.020019999999999927,-0.005240000000000022,-0.475,-0.03500000000000003,-0.16000000000000003,-0.01208000000000009,0.03614000000000006,-0.0012199999999999989,1742249982.195455
-0.39,0.2450000000000001,-0.20999999999999996,0.014780000000000015,0.01097999999999999,-0.0042799999999999505,-0.47,-0.015000000000000013,-0.14500000000000002,-0.01208000000000009,0.010860000000000092,-0.015020000000000033,1742249982.309515
-0.385,0.21999999999999997,-0.19999999999999996,0.007560000000000011,0.008059999999999956,0.01635999999999993,-0.475,-0.010000000000000009,-0.14,0.00865999999999989,0.006839999999999957,-0.008059999999999956,1742249982.423396
-0.385,0.21999999999999997,-0.21499999999999997,0.0,-0.005619999999999958,0.009759999999999991,-0.47,-0.020000000000000018,-0.14,0.005239999999999911,0.006220000000000114,-0.0032999999999999696,1742249982.541837
-0.385,0.22999999999999998,-0.20499999999999996,0.0006200000000000649,-0.009519999999999973,0.0043999999999999595,-0.495,-0.0050000000000000044,-0.15000000000000002,-0.0013400000000000079,-0.0012199999999999989,0.005120000000000013,1742249982.651528
-0.41500000000000004,0.22999999999999998,-0.22499999999999998,0.0040199999999999125,0.001100000000000101,-0.001960000000000073,-0.475,-0.015000000000000013,-0.14500000000000002,-0.0035399999999999876,0.0,0.0031799999999999606,1742249982.7653718
-0.39,0.2250000000000001,-0.20999999999999996,0.00048000000000003595,0.0031799999999999606,-0.0036599999999999966,-0.48,-0.010000000000000009,-0.14,-0.006220000000000003,0.0018400000000000638,0.00537999999999994,1742249982.883353
-0.395,0.2250000000000001,-0.21499999999999997,-0.005859999999999976,0.00770000000000004,-0.007080000000000086,-0.47,-0.0050000000000000044,-0.135,0.0019599999999999618,0.0012199999999999989,-0.010739999999999972,1742249982.993404
-0.385,0.21999999999999997,-0.20499999999999996,-0.0042799999999999505,0.00537999999999994,0.0029200000000000337,-0.475,0.0,-0.135,0.005859999999999976,0.0037799999999998946,0.00024000000000001798,1742249983.107221
-0.39,0.21999999999999997,-0.20999999999999996,0.005619999999999958,-0.0036599999999999966,0.0006200000000000649,-0.475,-0.0050000000000000044,-0.14,0.007079999999999975,0.0031799999999999606,-0.007940000000000058,1742249983.221347
-0.395,0.21500000000000008,-0.20999999999999996,0.0015800000000001369,-0.010499999999999954,0.0047600000000000975,-0.48,0.0,-0.135,-0.0040200000000000236,-0.00036000000000002697,0.0019599999999999618,1742249983.335371
-0.395,0.21999999999999997,-0.21499999999999997,0.0009799999999999809,-0.00024000000000001798,-0.0027999999999999137,-0.48,0.0,-0.135,-0.00024000000000001798,-0.0015800000000000258,0.00035999999999991594,1742249983.449312
-0.395,0.21500000000000008,-0.20999999999999996,-0.0012199999999999989,0.0024399999999999977,-0.0013400000000000079,-0.48,0.0,-0.135,0.00048000000000003595,-0.0008599999999999719,-0.0007399999999999629,1742249983.563333
-0.395,0.21500000000000008,-0.21499999999999997,-0.0010999999999999899,0.0006200000000000649,-0.00012000000000000899,-0.48,-0.0050000000000000044,-0.135,-0.00012000000000000899,-0.0006199999999999539,-0.0008599999999999719,1742249983.6774452
-0.39,0.21999999999999997,-0.21499999999999997,-0.0009799999999999809,0.0014600000000000168,-0.00012000000000000899,-0.48,0.0,-0.135,0.0013400000000001189,-0.0027999999999999137,-0.0036599999999999966,1742249983.791345
-0.395,0.21999999999999997,-0.21499999999999997,-0.001960000000000073,0.0012199999999999989,0.0025599999999998957,-0.48,-0.0050000000000000044,-0.135,0.0008600000000000829,-0.0015800000000000258,0.00024000000000001798,1742249983.9052632
-0.395,0.21999999999999997,-0.21499999999999997,-0.00012000000000000899,0.0012199999999999989,0.0009799999999999809,-0.48,0.0,-0.135,0.0006200000000000649,-0.0007399999999999629,-0.0014600000000000168,1742249984.022464
-0.395,0.21999999999999997,-0.20999999999999996,-0.0014600000000000168,0.0012199999999999989,0.0015800000000001369,-0.48,0.0,-0.14,-0.0012199999999999989,-0.0015800000000000258,-0.00024000000000001798,1742249984.133485
-0.395,0.21999999999999997,-0.20999999999999996,0.00011999999999989797,0.00035999999999991594,0.0,-0.48,0.004999999999999893,-0.14,0.0040199999999999125,-0.0031799999999999606,0.0,1742249984.247208
-0.395,0.21500000000000008,-0.20999999999999996,0.0023200000000000998,-0.00048000000000003595,-0.0009799999999999809,-0.475,0.0,-0.14,0.0024399999999999977,-0.005120000000000013,-0.00036000000000002697,1742249984.362628
-0.395,0.21999999999999997,-0.21499999999999997,0.00537999999999994,0.0008600000000000829,0.0009799999999999809,-0.475,0.0,-0.14500000000000002,-0.0014600000000000168,-0.0012199999999999989,-0.0009799999999999809,1742249984.475338
-0.395,0.21500000000000008,-0.20999999999999996,0.0009799999999999809,-0.0006199999999999539,0.00011999999999989797,-0.475,0.004999999999999893,-0.14500000000000002,0.005239999999999911,-0.0027999999999999137,-0.007320000000000104,1742249984.589382
-0.395,0.21500000000000008,-0.20999999999999996,-0.0037800000000000056,-0.0009799999999999809,0.001100000000000101,-0.475,0.004999999999999893,-0.14500000000000002,-0.006460000000000021,-0.0042799999999999505,-0.0015800000000000258,1742249984.706645
-0.395,0.21500000000000008,-0.20999999999999996,-0.0026799999999999047,0.0006200000000000649,0.0027999999999999137,-0.475,0.004999999999999893,-0.14,-0.00024000000000001798,0.0042800000000000615,-0.0014600000000000168,1742249984.821214
-0.4,0.21500000000000008,-0.21499999999999997,0.015020000000000033,0.00024000000000001798,0.008059999999999956,-0.48,0.004999999999999893,-0.14500000000000002,0.0023200000000000998,0.0029200000000000337,-0.0029199999999999227,1742249984.9311712
-0.4,0.21500000000000008,-0.20999999999999996,0.006220000000000114,-0.0022000000000000908,0.005619999999999958,-0.475,0.010000000000000009,-0.14,-0.00024000000000001798,0.0023200000000000998,-0.002080000000000082,1742249985.0451992
-0.4,0.20999999999999996,-0.20999999999999996,-0.0048799999999999955,0.0013400000000001189,-0.0010999999999999899,-0.475,0.010000000000000009,-0.14,0.0012199999999999989,0.002080000000000082,-0.0030599999999999516,1742249985.15919
-0.4,0.20999999999999996,-0.20999999999999996,0.00024000000000001798,-0.001960000000000073,0.0017000000000000348,-0.475,0.010000000000000009,-0.14,0.002080000000000082,0.00035999999999991594,-0.001960000000000073,1742249985.273298
-0.4,0.20999999999999996,-0.20999999999999996,0.002080000000000082,-0.0024400000000001087,0.0023200000000000998,-0.48,0.014999999999999902,-0.14,0.0015800000000001369,0.00024000000000001798,-0.0034199999999999786,1742249985.3870752
-0.405,0.20999999999999996,-0.21499999999999997,-0.0041599999999999415,0.0007399999999999629,0.0029200000000000337,-0.475,0.010000000000000009,-0.14,-0.0015800000000000258,0.0025599999999998957,-0.0012199999999999989,1742249985.5024111
-0.4,0.20500000000000007,-0.20999999999999996,-0.0027999999999999137,0.00024000000000001798,-0.0007399999999999629,-0.475,0.014999999999999902,-0.135,-0.0042799999999999505,0.0007399999999999629,0.00011999999999989797,1742249985.615084
-0.4,0.20500000000000007,-0.21499999999999997,-0.0039000000000000146,0.00024000000000001798,-0.0024400000000001087,-0.475,0.010000000000000009,-0.135,0.0013400000000001189,-0.0006199999999999539,-0.0007399999999999629,1742249985.729156
-0.4,0.20500000000000007,-0.21499999999999997,0.0007399999999999629,0.00024000000000001798,0.0,-0.48,0.014999999999999902,-0.14,0.0007399999999999629,0.0006200000000000649,0.00048000000000003595,1742249985.842962
-0.4,0.20500000000000007,-0.21499999999999997,0.0024399999999999977,-0.0013400000000000079,-0.00048000000000003595,-0.48,0.014999999999999902,-0.14,-0.00048000000000003595,-0.00012000000000000899,-0.0008599999999999719,1742249985.957259
-0.4,0.20500000000000007,-0.21499999999999997,-0.0008599999999999719,0.0007399999999999629,-0.0014600000000000168,-0.48,0.014999999999999902,-0.14,0.00024000000000001798,0.0015800000000001369,-0.0009799999999999809,1742249986.0710568
-0.4,0.20500000000000007,-0.21499999999999997,-0.0013400000000000079,-0.00012000000000000899,-0.00036000000000002697,-0.475,0.014999999999999902,-0.14,0.00035999999999991594,0.0007399999999999629,0.0,1742249986.1849458
-0.4,0.20500000000000007,-0.21499999999999997,0.00035999999999991594,-0.00048000000000003595,-0.00048000000000003595,-0.49,0.004999999999999893,-0.14500000000000002,-0.01855999999999991,-0.007080000000000086,0.02416000000000018,1742249986.302292
-0.41999999999999993,0.21500000000000008,-0.21999999999999997,-0.0029199999999999227,0.013919999999999932,-0.013799999999999923,-0.485,0.0,-0.14500000000000002,0.006220000000000114,-0.0014600000000000168,0.008179999999999854,1742249986.4131992
-0.4,0.21999999999999997,-0.21499999999999997,0.010499999999999954,-0.0009799999999999809,-0.00537999999999994,-0.475,0.0,-0.14,0.0017000000000000348,-0.0006199999999999539,-0.0047599999999999865,1742249986.5272791
-0.395,0.21500000000000008,-0.20499999999999996,0.0019599999999999618,0.00011999999999989797,0.0039000000000000146,-0.475,0.004999999999999893,-0.14,-0.002080000000000082,0.0026800000000000157,-0.0043999999999999595,1742249986.6429482
-0.4,0.20999999999999996,-0.20999999999999996,-0.0035399999999999876,-0.0006199999999999539,-0.00048000000000003595,-0.495,0.010000000000000009,-0.14500000000000002,-0.009279999999999955,0.0008600000000000829,0.005859999999999976,1742249986.755092
-0.405,0.21500000000000008,-0.20999999999999996,-0.009279999999999955,0.009039999999999937,-0.0027999999999999137,-0.475,0.0,-0.14,0.0018400000000000638,-0.00048000000000003595,0.0042800000000000615,1742249986.869202
-0.4,0.21500000000000008,-0.20499999999999996,0.00770000000000004,0.0006200000000000649,-0.0050000000000000044,-0.48,-0.0050000000000000044,-0.14500000000000002,0.0008600000000000829,0.0007399999999999629,0.0,1742249986.9831932
-0.4,0.21999999999999997,-0.20499999999999996,0.0021999999999999797,-0.0013400000000000079,0.00035999999999991594,-0.48,0.0,-0.14,-0.0024400000000001087,0.0009799999999999809,-0.0006199999999999539,1742249987.101215
-0.4,0.21500000000000008,-0.20499999999999996,-0.0014600000000000168,0.00035999999999991594,-0.0018400000000000638,-0.475,-0.0050000000000000044,-0.14,-0.0013400000000000079,0.0013400000000001189,-0.0007399999999999629,1742249987.2113
-0.395,0.21500000000000008,-0.20499999999999996,-0.0010999999999999899,-0.0017000000000000348,-0.0014600000000000168,-0.48,0.0,-0.14,0.00011999999999989797,-0.0012199999999999989,-0.0012199999999999989,1742249987.3252852
-0.4,0.21500000000000008,-0.20999999999999996,-0.0031799999999999606,0.0017000000000000348,0.001100000000000101,-0.47,-0.0050000000000000044,-0.14,-0.00024000000000001798,0.0009799999999999809,-0.00012000000000000899,1742249987.441748
-0.395,0.20999999999999996,-0.20499999999999996,0.00048000000000003595,-0.00048000000000003595,-0.001960000000000073,-0.48,0.0,-0.14,0.00011999999999989797,0.0024399999999999977,-0.0008599999999999719,1742249987.553278
-0.395,0.20999999999999996,-0.20499999999999996,-0.0041599999999999415,0.0008600000000000829,-0.0029199999999999227,-0.48,-0.0050000000000000044,-0.135,-0.00024000000000001798,0.00011999999999989797,-0.00024000000000001798,1742249987.667274
-0.395,0.21500000000000008,-0.20999999999999996,-0.0015800000000000258,0.00011999999999989797,-0.00012000000000000899,-0.48,0.0,-0.14,0.00011999999999989797,0.00035999999999991594,-0.0007399999999999629,1742249987.781721
-0.4,0.21500000000000008,-0.20999999999999996,-0.0010999999999999899,0.0008600000000000829,0.0009799999999999809,-0.48,-0.0050000000000000044,-0.14,-0.00012000000000000899,0.00011999999999989797,-0.0006199999999999539,1742249987.895257
-0.4,0.21500000000000008,-0.20999999999999996,-0.0008599999999999719,0.00011999999999989797,0.0008600000000000829,-0.48,-0.0050000000000000044,-0.135,-0.0017000000000000348,-0.0006199999999999539,-0.0015800000000000258,1742249988.009349
-0.4,0.21500000000000008,-0.20999999999999996,-0.0034199999999999786,0.00035999999999991594,0.00035999999999991594,-0.48,0.0,-0.135,-0.00012000000000000899,-0.0010999999999999899,-0.0009799999999999809,1742249988.1233711
-0.395,0.21500000000000008,-0.20499999999999996,-0.0006199999999999539,-0.00036000000000002697,-0.00024000000000001798,-0.48,0.0,-0.14,-0.0008599999999999719,-0.00048000000000003595,-0.00048000000000003595,1742249988.2411468
-0.4,0.21500000000000008,-0.20999999999999996,-0.00012000000000000899,0.0007399999999999629,0.00024000000000001798,-0.48,0.0,-0.135,-0.00012000000000000899,-0.0010999999999999899,-0.002080000000000082,1742249988.351398
-0.395,0.20999999999999996,-0.20999999999999996,-0.0015800000000000258,0.0015800000000001369,0.0006200000000000649,-0.48,0.0,-0.14,0.00011999999999989797,-0.00012000000000000899,-0.0008599999999999719,1742249988.465055
-0.4,0.20999999999999996,-0.20999999999999996,-0.0026799999999999047,0.00011999999999989797,0.00048000000000003595,-0.48,0.0,-0.14,0.0030599999999998406,0.0024399999999999977,0.00011999999999989797,1742249988.581108
-0.395,0.20999999999999996,-0.20999999999999996,0.0014600000000000168,-0.0017000000000000348,0.00024000000000001798,-0.475,0.0,-0.135,-0.0010999999999999899,0.0006200000000000649,0.0009799999999999809,1742249988.693004
-0.395,0.20999999999999996,-0.20999999999999996,-0.00048000000000003595,-0.0007399999999999629,-0.001960000000000073,-0.48,-0.0050000000000000044,-0.135,-0.0023200000000000998,-0.00048000000000003595,-0.00036000000000002697,1742249988.8072278
-0.395,0.21500000000000008,-0.20999999999999996,-0.0013400000000000079,0.00011999999999989797,-0.00024000000000001798,-0.475,-0.0050000000000000044,-0.135,-0.0007399999999999629,-0.00012000000000000899,-0.0018400000000000638,1742249988.921332
-0.395,0.20999999999999996,-0.20999999999999996,-0.0014600000000000168,0.0007399999999999629,-0.00024000000000001798,-0.48,-0.0050000000000000044,-0.135,0.0030599999999998406,0.0034199999999999786,0.0014600000000000168,1742249989.034933
-0.4,0.21500000000000008,-0.20999999999999996,0.0,-0.0025599999999998957,-0.0031799999999999606,-0.475,-0.0050000000000000044,-0.135,-0.0024400000000001087,0.0012199999999999989,0.0012199999999999989,1742249989.149007
-0.395,0.21500000000000008,-0.20999999999999996,0.00011999999999989797,-0.0008599999999999719,-0.0014600000000000168,-0.485,0.0,-0.135,-0.0023200000000000998,-0.0008599999999999719,0.0042800000000000615,1742249989.2630248
-0.4,0.21500000000000008,-0.21499999999999997,-0.0025599999999998957,-0.00012000000000000899,0.0009799999999999809,-0.48,-0.010000000000000009,-0.135,-0.0014600000000000168,0.0006200000000000649,0.0008600000000000829,1742249989.377054
-0.4,0.20999999999999996,-0.21499999999999997,-0.0013400000000000079,0.0006200000000000649,-0.00036000000000002697,-0.48,-0.010000000000000009,-0.13,-0.0010999999999999899,0.0013400000000001189,0.0024399999999999977,1742249989.491014
-0.4,0.21500000000000008,-0.21499999999999997,0.00035999999999991594,-0.0015800000000000258,-0.0042799999999999505,-0.48,-0.010000000000000009,-0.135,0.0009799999999999809,0.004999999999999893,0.0013400000000001189,1742249989.604922
-0.395,0.20999999999999996,-0.21499999999999997,0.0019599999999999618,-0.0034199999999999786,-0.001960000000000073,-0.49,-0.0050000000000000044,-0.13,0.00035999999999991594,0.00024000000000001798,0.005859999999999976,1742249989.719739
-0.395,0.21500000000000008,-0.21999999999999997,0.0015800000000001369,0.001100000000000101,-0.0048799999999999955,-0.48,-0.010000000000000009,-0.13,-0.0008599999999999719,0.0,-0.0007399999999999629,1742249989.8331578
-0.395,0.21500000000000008,-0.21499999999999997,-0.0012199999999999989,0.0015800000000001369,-0.0006199999999999539,-0.48,-0.010000000000000009,-0.13,0.0021999999999999797,0.0006200000000000649,-0.0027999999999999137,1742249989.947061
-0.395,0.21500000000000008,-0.21499999999999997,-0.0013400000000000079,-0.00024000000000001798,0.0006200000000000649,-0.48,-0.010000000000000009,-0.13,0.0030599999999998406,-0.0008599999999999719,-0.005739999999999967,1742249990.061035
-0.395,0.20999999999999996,-0.21499999999999997,-0.0015800000000000258,-0.00036000000000002697,0.0014600000000000168,-0.485,-0.010000000000000009,-0.135,-0.0036599999999999966,-0.0008599999999999719,0.0029200000000000337,1742249990.175148
-0.405,0.21500000000000008,-0.21999999999999997,-0.00036000000000002697,0.0024399999999999977,-0.0018400000000000638,-0.4650000000000001,-0.010000000000000009,-0.13,0.00048000000000003595,-0.0012199999999999989,0.0008600000000000829,1742249990.288955
-0.39,0.20999999999999996,-0.20999999999999996,0.0029200000000000337,0.0007399999999999629,-0.0030599999999999516,-0.48,-0.0050000000000000044,-0.13,-0.00036000000000002697,-0.0022000000000000908,-0.0017000000000000348,1742249990.40327
-0.395,0.21500000000000008,-0.20999999999999996,-0.00036000000000002697,0.002080000000000082,-0.00036000000000002697,-0.48,-0.010000000000000009,-0.135,0.001100000000000101,-0.0009799999999999809,-0.0032999999999999696,1742249990.5203562
-0.395,0.20999999999999996,-0.20999999999999996,0.0006200000000000649,-0.0008599999999999719,0.001100000000000101,-0.485,-0.010000000000000009,-0.135,-0.001960000000000073,-0.00036000000000002697,-0.00048000000000003595,1742249990.631178
-0.4,0.21500000000000008,-0.21499999999999997,-0.0014600000000000168,-0.0012199999999999989,0.002080000000000082,-0.475,-0.010000000000000009,-0.135,-0.0031799999999999606,-0.0027999999999999137,0.0013400000000001189,1742249990.745064
-0.4,0.20999999999999996,-0.21499999999999997,-0.0014600000000000168,0.0018400000000000638,-0.0006199999999999539,-0.475,-0.010000000000000009,-0.135,0.00011999999999989797,-0.00048000000000003595,-0.0010999999999999899,1742249990.8613708
-0.395,0.20999999999999996,-0.20999999999999996,0.00024000000000001798,0.00011999999999989797,-0.00036000000000002697,-0.475,-0.010000000000000009,-0.135,0.0017000000000000348,-0.0006199999999999539,-0.0015800000000000258,1742249990.973093
-0.395,0.20999999999999996,-0.21499999999999997,0.0017000000000000348,-0.00012000000000000899,0.00024000000000001798,-0.48,-0.010000000000000009,-0.135,0.00048000000000003595,-0.0009799999999999809,-0.0017000000000000348,1742249991.087011
-0.4,0.20999999999999996,-0.21499999999999997,0.0,-0.00024000000000001798,0.00048000000000003595,-0.48,-0.010000000000000009,-0.135,-0.0015800000000000258,0.0006200000000000649,-0.0006199999999999539,1742249991.201031
-0.395,0.20999999999999996,-0.20999999999999996,-0.00048000000000003595,0.001100000000000101,-0.00048000000000003595,-0.48,-0.010000000000000009,-0.135,-0.0008599999999999719,0.0006200000000000649,-0.00036000000000002697,1742249991.3150148
-0.395,0.20999999999999996,-0.20999999999999996,-0.0014600000000000168,-0.00024000000000001798,0.0006200000000000649,-0.48,-0.010000000000000009,-0.135,0.00011999999999989797,-0.00024000000000001798,-0.0006199999999999539,1742249991.4290502
-0.4,0.20999999999999996,-0.20999999999999996,-0.00036000000000002697,0.0012199999999999989,0.00048000000000003595,-0.48,-0.010000000000000009,-0.135,-0.00048000000000003595,0.0008600000000000829,-0.0006199999999999539,1742249991.543017
-0.4,0.20999999999999996,-0.21499999999999997,-0.00036000000000002697,-0.0010999999999999899,-0.0006199999999999539,-0.48,-0.010000000000000009,-0.135,-0.00012000000000000899,0.0007399999999999629,-0.0009799999999999809,1742249991.657012
-0.395,0.20999999999999996,-0.21499999999999997,-0.0010999999999999899,0.00011999999999989797,-0.00048000000000003595,-0.48,-0.010000000000000009,-0.135,0.00048000000000003595,-0.00012000000000000899,-0.00036000000000002697,1742249991.771029
-0.4,0.20999999999999996,-0.21499999999999997,-0.0008599999999999719,-0.00012000000000000899,-0.00048000000000003595,-0.48,-0.0050000000000000044,-0.135,-0.0009799999999999809,0.00011999999999989797,0.0007399999999999629,1742249991.884927
-0.4,0.20999999999999996,-0.21999999999999997,-0.0042799999999999505,0.00035999999999991594,-0.0012199999999999989,-0.48,-0.010000000000000009,-0.135,-0.0027999999999999137,0.00048000000000003595,-0.0024400000000001087,1742249992.0012832
-0.395,0.20999999999999996,-0.21499999999999997,-0.001960000000000073,-0.00012000000000000899,-0.0007399999999999629,-0.48,-0.010000000000000009,-0.135,0.00035999999999991594,0.0,-0.0014600000000000168,1742249992.113186
-0.4,0.20999999999999996,-0.21499999999999997,-0.0012199999999999989,0.00011999999999989797,0.0008600000000000829,-0.48,-0.0050000000000000044,-0.135,0.0015800000000001369,-0.0012199999999999989,-0.0009799999999999809,1742249992.2269728
-0.4,0.20999999999999996,-0.21499999999999997,0.0021999999999999797,0.00011999999999989797,0.0014600000000000168,-0.485,-0.010000000000000009,-0.135,0.00024000000000001798,-0.0012199999999999989,-0.0006199999999999539,1742249992.341161
-0.4,0.20999999999999996,-0.21499999999999997,-0.00048000000000003595,0.001100000000000101,0.001100000000000101,-0.4650000000000001,-0.0050000000000000044,-0.13,0.0,0.0040199999999999125,0.012820000000000054,1742249992.4548638
-0.39,0.20999999999999996,-0.20499999999999996,0.01317999999999997,-0.0031799999999999606,-0.012460000000000027,-0.47,-0.0050000000000000044,-0.13,0.00048000000000003595,0.0008600000000000829,0.0009799999999999809,1742249992.568774
-0.39,0.20999999999999996,-0.20999999999999996,0.0013400000000001189,-0.0009799999999999809,-0.0046399999999999775,-0.475,-0.0050000000000000044,-0.135,-0.0008599999999999719,-0.0008599999999999719,-0.00024000000000001798,1742249992.6835809
-0.395,0.20999999999999996,-0.21499999999999997,0.0007399999999999629,0.0013400000000001189,0.00011999999999989797,-0.48,-0.010000000000000009,-0.135,-0.00036000000000002697,0.00024000000000001798,-0.0023200000000000998,1742249992.797044
-0.395,0.20999999999999996,-0.21499999999999997,-0.002080000000000082,0.0006200000000000649,0.0008600000000000829,-0.48,-0.0050000000000000044,-0.135,-0.0027999999999999137,0.0023200000000000998,-0.002080000000000082,1742249992.910954
-0.395,0.20999999999999996,-0.21499999999999997,-0.005859999999999976,0.0018400000000000638,0.00024000000000001798,-0.48,-0.0050000000000000044,-0.13,0.0,0.0013400000000001189,-0.0018400000000000638,1742249993.024919
-0.395,0.20999999999999996,-0.21499999999999997,-0.0018400000000000638,-0.0015800000000000258,0.0013400000000001189,-0.485,-0.0050000000000000044,-0.135,-0.0012199999999999989,-0.00012000000000000899,-0.00048000000000003595,1742249993.140756
-0.4,0.20500000000000007,-0.21499999999999997,-0.001960000000000073,-0.00012000000000000899,0.0009799999999999809,-0.48,-0.0050000000000000044,-0.13,-0.00048000000000003595,0.0009799999999999809,-0.0006199999999999539,1742249993.252958
-0.395,0.20500000000000007,-0.21499999999999997,-0.00024000000000001798,-0.00036000000000002697,0.0006200000000000649,-0.48,-0.0050000000000000044,-0.13,-0.0022000000000000908,0.0006200000000000649,-0.00048000000000003595,1742249993.3669178
-0.4,0.20500000000000007,-0.21499999999999997,-0.002080000000000082,-0.00024000000000001798,-0.0018400000000000638,-0.48,-0.0050000000000000044,-0.13,-0.0017000000000000348,0.0008600000000000829,0.0012199999999999989,1742249993.481437
-0.4,0.20999999999999996,-0.21999999999999997,-0.00036000000000002697,-0.0006199999999999539,-0.001960000000000073,-0.48,0.0,-0.13,-0.0007399999999999629,0.00011999999999989797,-0.00024000000000001798,1742249993.594949
-0.395,0.19999999999999996,-0.21499999999999997,-0.00048000000000003595,0.00011999999999989797,-0.0013400000000000079,-0.48,-0.010000000000000009,-0.13,0.0,0.00024000000000001798,-0.0008599999999999719,1742249993.7088509
-0.395,0.20999999999999996,-0.21999999999999997,-0.0006199999999999539,0.00011999999999989797,0.00035999999999991594,-0.48,-0.0050000000000000044,-0.13,-0.00012000000000000899,-0.00024000000000001798,-0.00024000000000001798,1742249993.8230112
-0.395,0.20500000000000007,-0.21999999999999997,0.00048000000000003595,0.00011999999999989797,-0.0006199999999999539,-0.48,-0.010000000000000009,-0.135,-0.0036599999999999966,-0.0013400000000000079,0.00035999999999991594,1742249993.9369411
-0.4,0.20500000000000007,-0.21999999999999997,-0.0034199999999999786,0.0030599999999998406,-0.0017000000000000348,-0.485,-0.0050000000000000044,-0.13,-0.0039000000000000146,0.0,0.0,1742249994.0508502
-0.4,0.20999999999999996,-0.21999999999999997,-0.014519999999999977,0.009400000000000075,-0.001960000000000073,-0.475,-0.0050000000000000044,-0.13,0.00048000000000003595,0.00024000000000001798,0.0006200000000000649,1742249994.1647732
-0.395,0.20500000000000007,-0.21499999999999997,0.0039000000000000146,-0.0023200000000000998,-0.0018400000000000638,-0.48,-0.0050000000000000044,-0.13,0.00024000000000001798,-0.0006199999999999539,0.00011999999999989797,1742249994.281331
-0.4,0.19999999999999996,-0.21999999999999997,0.00048000000000003595,0.0012199999999999989,-0.0009799999999999809,-0.48,-0.010000000000000009,-0.135,0.0017000000000000348,0.0012199999999999989,0.0006200000000000649,1742249994.3927932
-0.4,0.20500000000000007,-0.21999999999999997,0.001100000000000101,-0.00048000000000003595,0.00024000000000001798,-0.485,-0.0050000000000000044,-0.13,0.00024000000000001798,-0.00036000000000002697,-0.00048000000000003595,1742249994.506984
-0.4,0.19999999999999996,-0.21999999999999997,0.0008600000000000829,0.0008600000000000829,-0.00012000000000000899,-0.48,-0.010000000000000009,-0.13,-0.0006199999999999539,0.00024000000000001798,0.0006200000000000649,1742249994.6211982
-0.4,0.20500000000000007,-0.21999999999999997,0.00048000000000003595,0.00024000000000001798,-0.00036000000000002697,-0.475,-0.010000000000000009,-0.13,0.00011999999999989797,-0.00012000000000000899,0.0018400000000000638,1742249994.73488
-0.4,0.20500000000000007,-0.21499999999999997,0.0030599999999998406,0.0,-0.0015800000000000258,-0.48,-0.010000000000000009,-0.13,0.0013400000000001189,-0.00024000000000001798,0.001100000000000101,1742249994.84879
-0.4,0.20500000000000007,-0.21499999999999997,0.0048799999999999955,-0.0014600000000000168,-0.00048000000000003595,-0.48,-0.010000000000000009,-0.135,0.0006200000000000649,-0.0007399999999999629,-0.0008599999999999719,1742249994.962917
-0.4,0.20500000000000007,-0.21499999999999997,0.00011999999999989797,0.0014600000000000168,-0.00012000000000000899,-0.48,-0.010000000000000009,-0.13,-0.0014600000000000168,-0.0006199999999999539,0.00048000000000003595,1742249995.076853
-0.4,0.20500000000000007,-0.21499999999999997,-0.0012199999999999989,0.0013400000000001189,-0.0009799999999999809,-0.48,-0.010000000000000009,-0.13,-0.00012000000000000899,0.0,-0.0006199999999999539,1742249995.190828
-0.4,0.20500000000000007,-0.21499999999999997,-0.0007399999999999629,0.0,-0.0007399999999999629,-0.48,-0.010000000000000009,-0.13,-0.00012000000000000899,0.00048000000000003595,0.00024000000000001798,1742249995.304724
-0.4,0.20500000000000007,-0.21499999999999997,0.0,-0.0006199999999999539,-0.0009799999999999809,-0.48,-0.0050000000000000044,-0.13,0.0009799999999999809,0.0007399999999999629,-0.0013400000000000079,1742249995.420948
-0.4,0.20500000000000007,-0.21499999999999997,-0.00024000000000001798,-0.00012000000000000899,-0.0007399999999999629,-0.485,-0.010000000000000009,-0.135,-0.0012199999999999989,0.0006200000000000649,-0.0007399999999999629,1742249995.5328472
-0.4,0.20500000000000007,-0.21499999999999997,-0.0010999999999999899,-0.00012000000000000899,0.0012199999999999989,-0.48,-0.010000000000000009,-0.13,-0.0007399999999999629,0.00035999999999991594,0.00024000000000001798,1742249995.646753
-0.4,0.20500000000000007,-0.21499999999999997,-0.0006199999999999539,-0.00012000000000000899,-0.0018400000000000638,-0.48,-0.010000000000000009,-0.13,0.00035999999999991594,0.0,-0.00024000000000001798,1742249995.76118
-0.4,0.20500000000000007,-0.21499999999999997,0.0006200000000000649,0.00011999999999989797,-0.0006199999999999539,-0.48,-0.010000000000000009,-0.13,0.00024000000000001798,-0.00012000000000000899,-0.0007399999999999629,1742249995.874826
-0.4,0.20500000000000007,-0.21499999999999997,0.0013400000000001189,0.00011999999999989797,-0.00024000000000001798,-0.48,-0.010000000000000009,-0.13,-0.00036000000000002697,0.0,-0.0006199999999999539,1742249995.988819
-0.4,0.20500000000000007,-0.21999999999999997,0.00024000000000001798,0.0,0.00011999999999989797,-0.48,-0.010000000000000009,-0.13,0.00048000000000003595,0.00024000000000001798,-0.00024000000000001798,1742249996.102775
-0.4,0.20500000000000007,-0.21499999999999997,-0.0006199999999999539,0.00048000000000003595,-0.00012000000000000899,-0.48,-0.0050000000000000044,-0.13,-0.0012199999999999989,0.00011999999999989797,0.00011999999999989797,1742249996.217788
-0.4,0.20500000000000007,-0.21499999999999997,-0.00048000000000003595,0.00024000000000001798,-0.00048000000000003595,-0.48,-0.010000000000000009,-0.13,0.0,0.0013400000000001189,0.0007399999999999629,1742249996.330656
-0.395,0.20500000000000007,-0.21499999999999997,0.0015800000000001369,0.0015800000000001369,0.00024000000000001798,-0.48,-0.010000000000000009,-0.13,-0.00048000000000003595,0.00024000000000001798,0.0,1742249996.4446988
-0.4,0.20500000000000007,-0.21499999999999997,-0.0009799999999999809,0.0014600000000000168,0.0,-0.475,-0.0050000000000000044,-0.13,0.0008600000000000829,-0.00036000000000002697,-0.0007399999999999629,1742249996.560787
-0.4,0.19999999999999996,-0.21499999999999997,0.00035999999999991594,-0.00036000000000002697,0.00024000000000001798,-0.48,-0.010000000000000009,-0.13,0.0024399999999999977,0.00024000000000001798,-0.0014600000000000168,1742249996.6727622
-0.4,0.19999999999999996,-0.21499999999999997,0.0012199999999999989,-0.00036000000000002697,0.0009799999999999809,-0.48,-0.0050000000000000044,-0.13,0.0036599999999999966,-0.0008599999999999719,-0.002080000000000082,1742249996.7868302
-0.4,0.19999999999999996,-0.21499999999999997,0.0008600000000000829,-0.00048000000000003595,0.0023200000000000998,-0.48,-0.0050000000000000044,-0.135,-0.0010999999999999899,-0.00048000000000003595,-0.0039000000000000146,1742249996.900915
-0.4,0.19999999999999996,-0.21499999999999997,-0.0039000000000000146,0.0017000000000000348,0.0025599999999998957,-0.48,-0.0050000000000000044,-0.13,-0.0009799999999999809,0.00048000000000003595,-0.0022000000000000908,1742249997.01484
-0.4,0.19500000000000006,-0.21499999999999997,-0.0010999999999999899,0.0009799999999999809,0.0029200000000000337,-0.48,0.0,-0.13,0.0027999999999999137,-0.0006199999999999539,-0.0027999999999999137,1742249997.128851
-0.405,0.19999999999999996,-0.21499999999999997,0.00048000000000003595,0.00048000000000003595,0.0024399999999999977,-0.48,0.0,-0.13,0.0036599999999999966,-0.0037800000000000056,-0.006220000000000003,1742249997.242712
-0.405,0.19500000000000006,-0.21499999999999997,-0.0013400000000000079,0.00035999999999991594,0.0043999999999999595,-0.48,0.004999999999999893,-0.13,0.001100000000000101,-0.00048000000000003595,-0.002080000000000082,1742249997.3567271
-0.405,0.19500000000000006,-0.21499999999999997,-0.0012199999999999989,0.00011999999999989797,-0.00036000000000002697,-0.48,0.004999999999999893,-0.135,0.0007399999999999629,0.00011999999999989797,-0.0048799999999999955,1742249997.470657
-0.405,0.18999999999999995,-0.21499999999999997,-0.0024400000000001087,0.00048000000000003595,0.0013400000000001189,-0.475,0.004999999999999893,-0.13,0.0030599999999998406,0.00011999999999989797,-0.008059999999999956,1742249997.584642
-0.4,0.18999999999999995,-0.21499999999999997,-0.0024400000000001087,0.00011999999999989797,0.004999999999999893,-0.485,0.014999999999999902,-0.135,0.006099999999999994,0.001100000000000101,-0.008919999999999928,1742249997.698598
-0.405,0.18500000000000005,-0.21999999999999997,-0.0029199999999999227,-0.0014600000000000168,0.008059999999999956,-0.475,0.010000000000000009,-0.13,0.0023200000000000998,0.0008600000000000829,-0.0042799999999999505,1742249997.81264
-0.405,0.18500000000000005,-0.21499999999999997,-0.0010999999999999899,-0.0024400000000001087,0.0021999999999999797,-0.485,0.020000000000000018,-0.135,-0.0012199999999999989,0.00035999999999991594,-0.009519999999999973,1742249997.926743
-0.4099999999999999,0.17999999999999994,-0.21999999999999997,-0.0048799999999999955,-0.00012000000000000899,0.006960000000000077,-0.48,0.014999999999999902,-0.13,0.0045200000000000795,-0.0018400000000000638,-0.00988,1742249998.0407271
-0.405,0.17999999999999994,-0.21999999999999997,-0.005619999999999958,0.0013400000000001189,0.006220000000000114,-0.48,0.02499999999999991,-0.135,0.004999999999999893,-0.00048000000000003595,-0.010499999999999954,1742249998.154592
-0.4,0.16500000000000004,-0.21999999999999997,-0.008299999999999974,-0.0009799999999999809,0.010860000000000092,-0.48,0.02499999999999991,-0.135,0.0047600000000000975,0.0026800000000000157,-0.009039999999999937,1742249998.268543
-0.4099999999999999,0.16500000000000004,-0.21999999999999997,0.0,-0.005240000000000022,0.009640000000000093,-0.475,0.030000000000000027,-0.13,0.001100000000000101,0.002080000000000082,-0.0027999999999999137,1742249998.3825548
-0.405,0.16500000000000004,-0.22499999999999998,-0.0022000000000000908,-0.0014600000000000168,0.005239999999999911,-0.48,0.040000000000000036,-0.13,-0.0012199999999999989,0.0019599999999999618,-0.0025599999999998957,1742249998.496646
-0.41500000000000004,0.15999999999999992,-0.22499999999999998,-0.005499999999999949,0.0007399999999999629,0.0012199999999999989,-0.48,0.03499999999999992,-0.125,-0.0007399999999999629,0.0015800000000001369,-0.0017000000000000348,1742249998.6105332
-0.4099999999999999,0.15999999999999992,-0.22499999999999998,-0.0017000000000000348,0.0009799999999999809,0.0007399999999999629,-0.48,0.03499999999999992,-0.125,-0.0022000000000000908,-0.00036000000000002697,0.00024000000000001798,1742249998.724614
-0.41500000000000004,0.15999999999999992,-0.22499999999999998,-0.0026799999999999047,0.00011999999999989797,0.0007399999999999629,-0.485,0.03499999999999992,-0.13,0.00024000000000001798,0.0017000000000000348,-0.0027999999999999137,1742249998.840704
-0.41500000000000004,0.15999999999999992,-0.22499999999999998,-0.0025599999999998957,0.0,0.0023200000000000998,-0.48,0.03499999999999992,-0.125,-0.0008599999999999719,0.0009799999999999809,-0.0010999999999999899,1742249998.952598
-0.405,0.15500000000000003,-0.22499999999999998,-0.0026799999999999047,-0.0007399999999999629,0.0031799999999999606,-0.48,0.040000000000000036,-0.125,-0.00036000000000002697,0.001100000000000101,-0.0008599999999999719,1742249999.066606
-0.41500000000000004,0.15500000000000003,-0.22999999999999998,-0.0012199999999999989,0.00024000000000001798,-0.00024000000000001798,-0.475,0.03499999999999992,-0.125,0.00011999999999989797,0.0006200000000000649,-0.0009799999999999809,1742249999.1833868
-0.41500000000000004,0.15500000000000003,-0.22999999999999998,0.0007399999999999629,0.0006200000000000649,0.00035999999999991594,-0.485,0.040000000000000036,-0.13,0.0014600000000000168,0.00011999999999989797,-0.0017000000000000348,1742249999.29442
-0.41500000000000004,0.1499999999999999,-0.22999999999999998,-0.0017000000000000348,0.0015800000000001369,0.0031799999999999606,-0.48,0.040000000000000036,-0.13,0.00011999999999989797,-0.00012000000000000899,0.00024000000000001798,1742249999.4084978
-0.41500000000000004,0.1499999999999999,-0.22999999999999998,-0.0017000000000000348,0.00035999999999991594,-0.0007399999999999629,-0.48,0.040000000000000036,-0.125,-0.00036000000000002697,-0.00048000000000003595,-0.0009799999999999809,1742249999.5227048
-0.41500000000000004,0.1499999999999999,-0.22499999999999998,-0.0027999999999999137,0.0007399999999999629,-0.00024000000000001798,-0.48,0.040000000000000036,-0.13,-0.0015800000000000258,0.0012199999999999989,-0.0015800000000000258,1742249999.636629
-0.41999999999999993,0.1499999999999999,-0.22999999999999998,-0.0027999999999999137,0.00048000000000003595,0.0006200000000000649,-0.48,0.040000000000000036,-0.125,-0.00048000000000003595,0.00048000000000003595,-0.0007399999999999629,1742249999.750546
-0.41500000000000004,0.1499999999999999,-0.22999999999999998,-0.0017000000000000348,0.00035999999999991594,-0.0006199999999999539,-0.48,0.040000000000000036,-0.125,-0.0007399999999999629,0.00048000000000003595,0.0007399999999999629,1742249999.8644102
-0.41999999999999993,0.1499999999999999,-0.22999999999999998,-0.00048000000000003595,-0.00012000000000000899,-0.0007399999999999629,-0.48,0.03499999999999992,-0.125,0.00035999999999991594,0.00035999999999991594,-0.0008599999999999719,1742249999.980051
-0.41500000000000004,0.14500000000000002,-0.22499999999999998,-0.0007399999999999629,0.0007399999999999629,0.0007399999999999629,-0.48,0.040000000000000036,-0.125,0.0,0.0,-0.0006199999999999539,1742250000.092413
-0.41500000000000004,0.14500000000000002,-0.22499999999999998,-0.00012000000000000899,0.0,-0.00036000000000002697,-0.48,0.040000000000000036,-0.125,0.0,0.0,-0.0008599999999999719,1742250000.206544
-0.41500000000000004,0.14500000000000002,-0.22999999999999998,-0.00024000000000001798,0.00024000000000001798,-0.00024000000000001798,-0.48,0.040000000000000036,-0.125,-0.0007399999999999629,0.00011999999999989797,-0.00012000000000000899,1742250000.320599
-0.41500000000000004,0.1499999999999999,-0.22999999999999998,-0.00048000000000003595,0.00035999999999991594,-0.0007399999999999629,-0.48,0.040000000000000036,-0.125,-0.00024000000000001798,-0.0009799999999999809,0.0009799999999999809,1742250000.434556
-0.41500000000000004,0.14500000000000002,-0.22999999999999998,0.00048000000000003595,0.0009799999999999809,-0.0014600000000000168,-0.48,0.040000000000000036,-0.125,-0.00012000000000000899,-0.0007399999999999629,0.0008600000000000829,1742250000.548623
-0.41500000000000004,0.1499999999999999,-0.22999999999999998,-0.00024000000000001798,0.0006200000000000649,-0.0014600000000000168,-0.48,0.040000000000000036,-0.125,0.00024000000000001798,-0.0006199999999999539,0.0009799999999999809,1742250000.66255
-0.41999999999999993,0.14500000000000002,-0.22999999999999998,-0.00012000000000000899,0.00024000000000001798,-0.0012199999999999989,-0.48,0.040000000000000036,-0.125,-0.0014600000000000168,0.00024000000000001798,0.0008600000000000829,1742250000.776548
-0.41999999999999993,0.14500000000000002,-0.22999999999999998,-0.0022000000000000908,0.001100000000000101,-0.0015800000000000258,-0.48,0.03499999999999992,-0.125,-0.0007399999999999629,0.00035999999999991594,0.0006200000000000649,1742250000.890387
-0.41500000000000004,0.1499999999999999,-0.22999999999999998,-0.0013400000000000079,0.00048000000000003595,-0.0014600000000000168,-0.48,0.03499999999999992,-0.13,0.0008600000000000829,0.00011999999999989797,0.00035999999999991594,1742250001.004297
-0.41500000000000004,0.1499999999999999,-0.22999999999999998,0.00011999999999989797,0.00048000000000003595,-0.00048000000000003595,-0.48,0.040000000000000036,-0.125,-0.00024000000000001798,-0.0007399999999999629,0.0013400000000001189,1742250001.1207502
-0.41999999999999993,0.14500000000000002,-0.22999999999999998,0.00024000000000001798,0.00048000000000003595,-0.0012199999999999989,-0.48,0.040000000000000036,-0.125,0.0006200000000000649,-0.00024000000000001798,0.0009799999999999809,1742250001.232481
-0.41500000000000004,0.14500000000000002,-0.22999999999999998,-0.0015800000000000258,0.0,-0.0017000000000000348,-0.48,0.03499999999999992,-0.125,0.00024000000000001798,-0.00048000000000003595,0.0006200000000000649,1742250001.346378
-0.41500000000000004,0.1499999999999999,-0.22999999999999998,0.00024000000000001798,0.00035999999999991594,-0.0007399999999999629,-0.48,0.03499999999999992,-0.125,0.00011999999999989797,0.0,0.00035999999999991594,1742250001.460899
-0.41500000000000004,0.14500000000000002,-0.22999999999999998,0.00035999999999991594,0.00011999999999989797,-0.0010999999999999899,-0.48,0.03499999999999992,-0.125,0.00024000000000001798,-0.00024000000000001798,0.0009799999999999809,1742250001.5744069
-0.41500000000000004,0.1499999999999999,-0.22999999999999998,-0.0009799999999999809,-0.00012000000000000899,-0.0014600000000000168,-0.48,0.03499999999999992,-0.125,-0.00024000000000001798,0.005619999999999958,0.012700000000000156,1742250001.688388
-0.41999999999999993,0.1499999999999999,-0.22999999999999998,0.0037799999999998946,-0.0013400000000000079,-0.006840000000000068,-0.48,0.030000000000000027,-0.125,-0.0013400000000000079,0.001100000000000101,0.0025599999999998957,1742250001.802437
-0.41500000000000004,0.1499999999999999,-0.22999999999999998,0.0008600000000000829,0.00024000000000001798,-0.0014600000000000168,-0.48,0.030000000000000027,-0.125,0.0,0.00011999999999989797,-0.00024000000000001798,1742250001.916406
-0.41500000000000004,0.1499999999999999,-0.22999999999999998,-0.0015800000000000258,0.0,-0.0006199999999999539,-0.485,0.030000000000000027,-0.125,-0.0009799999999999809,0.002080000000000082,0.00048000000000003595,1742250002.0304031
-0.41500000000000004,0.1499999999999999,-0.22999999999999998,-0.0006199999999999539,-0.00024000000000001798,-0.0008599999999999719,-0.485,0.030000000000000027,-0.125,-0.00012000000000000899,0.00035999999999991594,-0.00024000000000001798,1742250002.144498
-0.41500000000000004,0.1499999999999999,-0.22999999999999998,0.0,0.00011999999999989797,0.00024000000000001798,-0.485,0.030000000000000027,-0.125,0.0008600000000000829,0.0008600000000000829,-0.002080000000000082,1742250002.260727
-0.41500000000000004,0.1499999999999999,-0.22999999999999998,-0.0013400000000000079,0.001100000000000101,0.00035999999999991594,-0.48,0.030000000000000027,-0.12,0.0019599999999999618,0.00048000000000003595,-0.00036000000000002697,1742250002.372404
-0.41500000000000004,0.1499999999999999,-0.22499999999999998,0.0007399999999999629,0.0,-0.0009799999999999809,-0.485,0.030000000000000027,-0.12,-0.0037800000000000056,0.004999999999999893,0.0037799999999998946,1742250002.486439
-0.41500000000000004,0.1499999999999999,-0.22999999999999998,-0.00012000000000000899,0.00011999999999989797,-0.0031799999999999606,-0.475,0.020000000000000018,-0.12,-0.0010999999999999899,0.0012199999999999989,0.006460000000000132,1742250002.60042
-0.4099999999999999,0.15500000000000003,-0.22999999999999998,0.0034199999999999786,0.00011999999999989797,-0.0039000000000000146,-0.48,0.02499999999999991,-0.12,0.00048000000000003595,0.0023200000000000998,-0.00012000000000000899,1742250002.714516
-0.4099999999999999,0.1499999999999999,-0.22499999999999998,0.0029200000000000337,-0.0009799999999999809,-0.00012000000000000899,-0.485,0.030000000000000027,-0.11499999999999999,0.0006200000000000649,-0.0009799999999999809,0.0,1742250002.828415
-0.41500000000000004,0.1499999999999999,-0.22999999999999998,0.00035999999999991594,-0.0012199999999999989,-0.0018400000000000638,-0.485,0.02499999999999991,-0.12,0.0023200000000000998,0.0013400000000001189,0.0018400000000000638,1742250002.942174
-0.4099999999999999,0.15500000000000003,-0.22999999999999998,0.004999999999999893,-0.0023200000000000998,-0.0022000000000000908,-0.485,0.02499999999999991,-0.12,0.0034199999999999786,-0.00012000000000000899,0.0019599999999999618,1742250003.0565288
-0.41500000000000004,0.15500000000000003,-0.22999999999999998,0.0037799999999998946,-0.00036000000000002697,-0.0006199999999999539,-0.485,0.02499999999999991,-0.12,-0.00048000000000003595,0.00048000000000003595,0.0007399999999999629,1742250003.170306
-0.41500000000000004,0.15500000000000003,-0.22999999999999998,-0.00036000000000002697,0.0009799999999999809,-0.0006199999999999539,-0.48,0.020000000000000018,-0.12,-0.00024000000000001798,0.0006200000000000649,0.001100000000000101,1742250003.28431
-0.41500000000000004,0.15999999999999992,-0.22999999999999998,-0.0008599999999999719,-0.00012000000000000899,-0.002080000000000082,-0.48,0.020000000000000018,-0.12,0.0006200000000000649,-0.00012000000000000899,0.00048000000000003595,1742250003.400629
-0.41500000000000004,0.15500000000000003,-0.22999999999999998,0.0009799999999999809,0.0,-0.0010999999999999899,-0.485,0.020000000000000018,-0.12,0.00035999999999991594,-0.0006199999999999539,0.00035999999999991594,1742250003.512314
-0.41500000000000004,0.15500000000000003,-0.22999999999999998,-0.00036000000000002697,0.00035999999999991594,-0.0014600000000000168,-0.48,0.020000000000000018,-0.12,-0.00036000000000002697,-0.0008599999999999719,0.0008600000000000829,1742250003.6264052
-0.41500000000000004,0.15500000000000003,-0.22999999999999998,-0.0013400000000000079,0.00024000000000001798,-0.0017000000000000348,-0.485,0.020000000000000018,-0.12,-0.00024000000000001798,0.0,0.001100000000000101,1742250003.740931
-0.4099999999999999,0.15999999999999992,-0.22999999999999998,0.0008600000000000829,0.00024000000000001798,-0.0015800000000000258,-0.485,0.014999999999999902,-0.12,-0.00048000000000003595,-0.00012000000000000899,0.0009799999999999809,1742250003.8543732
-0.41500000000000004,0.15999999999999992,-0.22999999999999998,0.00024000000000001798,0.00024000000000001798,-0.0006199999999999539,-0.485,0.014999999999999902,-0.12,0.00035999999999991594,-0.00024000000000001798,0.0006200000000000649,1742250003.968299
-0.4099999999999999,0.15999999999999992,-0.22999999999999998,-0.00012000000000000899,0.0006200000000000649,-0.0009799999999999809,-0.485,0.014999999999999902,-0.12,0.0006200000000000649,0.0,0.00024000000000001798,1742250004.082172
-0.4099999999999999,0.15999999999999992,-0.22999999999999998,0.0007399999999999629,0.00035999999999991594,-0.0007399999999999629,-0.485,0.014999999999999902,-0.12,-0.00024000000000001798,0.0,0.0007399999999999629,1742250004.196255
-0.41500000000000004,0.15999999999999992,-0.22999999999999998,0.0009799999999999809,0.00024000000000001798,-0.0009799999999999809,-0.48,0.014999999999999902,-0.12,-0.0008599999999999719,0.00011999999999989797,-0.00012000000000000899,1742250004.3105202
-0.4099999999999999,0.15999999999999992,-0.22999999999999998,-0.00024000000000001798,0.00011999999999989797,-0.0006199999999999539,-0.485,0.014999999999999902,-0.12,0.0006200000000000649,0.0006200000000000649,-0.00036000000000002697,1742250004.424258
-0.4099999999999999,0.15999999999999992,-0.22999999999999998,0.00048000000000003595,0.00011999999999989797,-0.0007399999999999629,-0.48,0.020000000000000018,-0.12,-0.0007399999999999629,-0.0006199999999999539,-0.00024000000000001798,1742250004.539998
-0.41500000000000004,0.15999999999999992,-0.22999999999999998,-0.0006199999999999539,0.00011999999999989797,-0.0006199999999999539,-0.485,0.014999999999999902,-0.12,0.00048000000000003595,-0.0007399999999999629,-0.00036000000000002697,1742250004.6524
-0.41500000000000004,0.15999999999999992,-0.22999999999999998,-0.00012000000000000899,0.00035999999999991594,-0.00024000000000001798,-0.48,0.014999999999999902,-0.12,-0.00024000000000001798,-0.00024000000000001798,-0.00024000000000001798,1742250004.766519
-0.41500000000000004,0.15999999999999992,-0.22999999999999998,0.0007399999999999629,0.00024000000000001798,0.00011999999999989797,-0.485,0.014999999999999902,-0.12,-0.00036000000000002697,-0.0006199999999999539,-0.00012000000000000899,1742250004.880804
-0.41500000000000004,0.15999999999999992,-0.22999999999999998,0.00011999999999989797,0.00035999999999991594,-0.0007399999999999629,-0.485,0.014999999999999902,-0.12,0.0,-0.00048000000000003595,-0.0007399999999999629,1742250004.994402
-0.4099999999999999,0.15999999999999992,-0.22999999999999998,-0.00036000000000002697,0.00048000000000003595,-0.0007399999999999629,-0.485,0.014999999999999902,-0.12,-0.00012000000000000899,0.00011999999999989797,-0.00012000000000000899,1742250005.10842
-0.41500000000000004,0.15999999999999992,-0.22999999999999998,-0.00036000000000002697,0.0006200000000000649,0.0,-0.48,0.014999999999999902,-0.12,-0.00048000000000003595,0.00035999999999991594,0.0006200000000000649,1742250005.2222168
-0.41500000000000004,0.15999999999999992,-0.22999999999999998,0.0012199999999999989,0.00048000000000003595,-0.0010999999999999899,-0.485,0.014999999999999902,-0.12,0.0,0.00024000000000001798,0.00048000000000003595,1742250005.340692
-0.41500000000000004,0.15999999999999992,-0.22999999999999998,0.0006200000000000649,-0.00012000000000000899,-0.0013400000000000079,-0.485,0.014999999999999902,-0.12,0.0,0.001100000000000101,0.0006200000000000649,1742250005.4492748
-0.41500000000000004,0.15999999999999992,-0.22999999999999998,0.0012199999999999989,0.0,-0.00036000000000002697,-0.48,0.014999999999999902,-0.12,-0.0014600000000000168,0.0009799999999999809,-0.00012000000000000899,1742250005.563297
-0.41500000000000004,0.15999999999999992,-0.22999999999999998,0.00048000000000003595,-0.00024000000000001798,-0.0010999999999999899,-0.485,0.014999999999999902,-0.12,-0.00036000000000002697,0.001100000000000101,-0.0014600000000000168,1742250005.677282
-0.41500000000000004,0.15999999999999992,-0.22999999999999998,-0.0010999999999999899,0.0,-0.0006199999999999539,-0.485,0.014999999999999902,-0.12,-0.00036000000000002697,0.0012199999999999989,-0.0010999999999999899,1742250005.7912471
-0.4099999999999999,0.15999999999999992,-0.22999999999999998,-0.0008599999999999719,-0.00036000000000002697,-0.00036000000000002697,-0.485,0.014999999999999902,-0.12,-0.00036000000000002697,0.0009799999999999809,-0.00036000000000002697,1742250005.9052632
-0.41500000000000004,0.15999999999999992,-0.22999999999999998,0.00011999999999989797,0.0,-0.00036000000000002697,-0.485,0.014999999999999902,-0.12,-0.00024000000000001798,0.00048000000000003595,0.00035999999999991594,1742250006.020847
-0.4099999999999999,0.15999999999999992,-0.22999999999999998,0.00048000000000003595,-0.00024000000000001798,-0.0007399999999999629,-0.48,0.014999999999999902,-0.11499999999999999,0.00011999999999989797,0.00024000000000001798,0.00011999999999989797,1742250006.133076
-0.4099999999999999,0.15999999999999992,-0.22999999999999998,0.00048000000000003595,-0.00024000000000001798,-0.0009799999999999809,-0.485,0.014999999999999902,-0.12,0.00024000000000001798,0.00011999999999989797,0.00048000000000003595,1742250006.247048
-0.4099999999999999,0.15999999999999992,-0.22999999999999998,0.00011999999999989797,0.00011999999999989797,-0.0010999999999999899,-0.485,0.014999999999999902,-0.11499999999999999,-0.00012000000000000899,0.00035999999999991594,0.0008600000000000829,1742250006.361414
-0.41500000000000004,0.15999999999999992,-0.22999999999999998,0.00024000000000001798,-0.00036000000000002697,-0.0009799999999999809,-0.48,0.020000000000000018,-0.11499999999999999,-0.00036000000000002697,0.00048000000000003595,-0.0007399999999999629,1742250006.4812438
-0.4099999999999999,0.15500000000000003,-0.22999999999999998,0.00024000000000001798,-0.00024000000000001798,-0.0010999999999999899,-0.485,0.014999999999999902,-0.11499999999999999,0.001100000000000101,0.0017000000000000348,-0.00036000000000002697,1742250006.589244
-0.4099999999999999,0.15999999999999992,-0.22999999999999998,0.00048000000000003595,-0.0010999999999999899,-0.00012000000000000899,-0.485,0.014999999999999902,-0.12,0.00011999999999989797,-0.00048000000000003595,-0.0008599999999999719,1742250006.703752
-0.41500000000000004,0.15999999999999992,-0.22999999999999998,-0.0007399999999999629,0.00048000000000003595,0.001100000000000101,-0.485,0.014999999999999902,-0.11499999999999999,-0.00012000000000000899,-0.00048000000000003595,0.0,1742250006.818777
-0.41500000000000004,0.15999999999999992,-0.22999999999999998,-0.00012000000000000899,0.00011999999999989797,-0.0006199999999999539,-0.48,0.014999999999999902,-0.11499999999999999,-0.0008599999999999719,-0.00048000000000003595,-0.00048000000000003595,1742250006.931434
-0.41500000000000004,0.15999999999999992,-0.22999999999999998,-0.00036000000000002697,0.00048000000000003595,-0.0008599999999999719,-0.48,0.014999999999999902,-0.11499999999999999,0.00035999999999991594,-0.0010999999999999899,-0.00024000000000001798,1742250007.045341
-0.4099999999999999,0.15999999999999992,-0.22999999999999998,0.0,0.00048000000000003595,-0.0012199999999999989,-0.485,0.014999999999999902,-0.12,0.0,-0.00012000000000000899,-0.00048000000000003595,1742250007.161506
-0.41500000000000004,0.15500000000000003,-0.22999999999999998,-0.0006199999999999539,0.00011999999999989797,0.0,-0.485,0.014999999999999902,-0.12,0.00011999999999989797,-0.0006199999999999539,0.0006200000000000649,1742250007.273216
-0.41500000000000004,0.15500000000000003,-0.22999999999999998,0.00035999999999991594,0.00035999999999991594,-0.0012199999999999989,-0.485,0.014999999999999902,-0.11499999999999999,0.00024000000000001798,-0.00036000000000002697,-0.00012000000000000899,1742250007.387352
-0.41500000000000004,0.15500000000000003,-0.22999999999999998,0.00011999999999989797,0.00048000000000003595,-0.00024000000000001798,-0.485,0.014999999999999902,-0.11499999999999999,0.00011999999999989797,-0.00012000000000000899,-0.00012000000000000899,1742250007.5012748
-0.41500000000000004,0.15999999999999992,-0.22999999999999998,0.00024000000000001798,0.00011999999999989797,0.00011999999999989797,-0.48,0.014999999999999902,-0.11499999999999999,0.00011999999999989797,-0.00012000000000000899,0.0,1742250007.615172
-0.4099999999999999,0.15999999999999992,-0.22999999999999998,0.00048000000000003595,0.0,-0.0012199999999999989,-0.485,0.014999999999999902,-0.12,0.0008600000000000829,-0.00012000000000000899,-0.00036000000000002697,1742250007.729271
-0.4099999999999999,0.15999999999999992,-0.22999999999999998,-0.00024000000000001798,0.00024000000000001798,-0.00036000000000002697,-0.485,0.014999999999999902,-0.12,0.0007399999999999629,-0.0007399999999999629,0.00035999999999991594,1742250007.843105
-0.41500000000000004,0.15500000000000003,-0.22999999999999998,-0.00048000000000003595,0.0,-0.0009799999999999809,-0.485,0.014999999999999902,-0.12,0.002080000000000082,-0.00036000000000002697,0.00024000000000001798,1742250007.957098
-0.41500000000000004,0.15999999999999992,-0.22999999999999998,-0.0006199999999999539,-0.0006199999999999539,-0.0009799999999999809,-0.48,0.014999999999999902,-0.12,-0.0025599999999998957,-0.00036000000000002697,0.00024000000000001798,1742250008.0711942
-0.4099999999999999,0.15500000000000003,-0.22499999999999998,0.002080000000000082,-0.00036000000000002697,-0.0012199999999999989,-0.485,0.014999999999999902,-0.11499999999999999,-0.00024000000000001798,-0.0008599999999999719,0.0,1742250008.18522
-0.4099999999999999,0.15500000000000003,-0.22999999999999998,-0.0010999999999999899,0.00024000000000001798,-0.0010999999999999899,-0.485,0.014999999999999902,-0.12,-0.00048000000000003595,-0.00024000000000001798,-0.00036000000000002697,1742250008.300847
-0.4099999999999999,0.15500000000000003,-0.22999999999999998,-0.0009799999999999809,0.0006200000000000649,-0.0009799999999999809,-0.48,0.014999999999999902,-0.12,0.00024000000000001798,-0.00048000000000003595,0.001100000000000101,1742250008.413213
-0.41500000000000004,0.15999999999999992,-0.22999999999999998,0.00048000000000003595,-0.00012000000000000899,-0.0018400000000000638,-0.485,0.014999999999999902,-0.12,-0.0029199999999999227,0.0006200000000000649,0.0036599999999999966,1742250008.527235
-0.41500000000000004,0.15999999999999992,-0.22999999999999998,0.0015800000000001369,0.0008600000000000829,-0.0029199999999999227,-0.48,0.010000000000000009,-0.11499999999999999,0.0014600000000000168,-0.0032999999999999696,-0.00048000000000003595,1742250008.6412191
-0.4099999999999999,0.15999999999999992,-0.22999999999999998,-0.00048000000000003595,-0.00024000000000001798,-0.0014600000000000168,-0.485,0.014999999999999902,-0.12,0.00537999999999994,-0.0026799999999999047,0.0006200000000000649,1742250008.755136
-0.4099999999999999,0.15999999999999992,-0.235,0.0009799999999999809,-0.0008599999999999719,0.00035999999999991594,-0.475,0.010000000000000009,-0.12,-0.0034199999999999786,-0.0015800000000000258,0.005239999999999911,1742250008.869244
-0.4099999999999999,0.15999999999999992,-0.22999999999999998,0.00865999999999989,-0.0014600000000000168,-0.0039000000000000146,-0.48,0.010000000000000009,-0.12,-0.0022000000000000908,0.0024399999999999977,0.0021999999999999797,1742250008.983229
-0.4099999999999999,0.15999999999999992,-0.22999999999999998,0.0015800000000001369,-0.0027999999999999137,-0.0035399999999999876,-0.485,0.010000000000000009,-0.12,0.00048000000000003595,0.0013400000000001189,0.0025599999999998957,1742250009.100061
-0.41500000000000004,0.16500000000000004,-0.235,0.0019599999999999618,-0.0024400000000001087,-0.0009799999999999809,-0.485,0.010000000000000009,-0.12,0.0029200000000000337,0.001100000000000101,0.0029200000000000337,1742250009.211037
-0.4099999999999999,0.16500000000000004,-0.22999999999999998,0.0043999999999999595,-0.0018400000000000638,-0.0017000000000000348,-0.48,0.004999999999999893,-0.11499999999999999,0.0035399999999998766,-0.0047599999999999865,0.0046399999999999775,1742250009.325113
-0.4099999999999999,0.16500000000000004,-0.22999999999999998,0.0017000000000000348,-0.0015800000000000258,-0.005619999999999958,-0.48,-0.0050000000000000044,-0.12,0.007079999999999975,-0.034540000000000015,-0.0025599999999998957,1742250009.440543
-0.4099999999999999,0.16999999999999993,-0.235,-0.011480000000000046,-0.005979999999999985,-0.008179999999999965,-0.485,0.010000000000000009,-0.14,-0.009159999999999946,-0.029059999999999975,-0.001960000000000073,1742250009.553298
-0.4,0.16500000000000004,-0.25,-0.019039999999999946,-0.010619999999999963,-0.005619999999999958,-0.5,0.0,-0.16500000000000004,-0.026619999999999977,-0.010379999999999945,0.016960000000000086,1742250009.667299
-0.395,0.16500000000000004,-0.235,-0.011720000000000064,-0.0048799999999999955,-0.0043999999999999595,-0.52,-0.030000000000000027,-0.17000000000000004,-0.08263999999999994,-0.04370000000000007,0.06591999999999998,1742250009.781205
-0.4,0.16500000000000004,-0.255,-0.035640000000000005,-0.019159999999999955,-0.013539999999999996,-0.505,-0.08999999999999997,-0.19999999999999996,-0.20472,-0.06738,0.13440000000000007,1742250009.8952022
-0.395,0.15500000000000003,-0.28,-0.06762000000000001,-0.027100000000000013,-0.011360000000000037,-0.47,-0.33000000000000007,-0.17500000000000004,-0.57056,0.056519999999999904,0.26794000000000007,1742250010.0092149
-0.36,0.1100000000000001,-0.27,-0.01978000000000002,-0.011960000000000082,-0.008179999999999965,-0.255,-0.355,0.020000000000000018,-0.1261,0.2019000000000002,0.22950000000000004,1742250010.123001
-0.365,0.125,-0.2849999999999999,0.015740000000000087,-0.007940000000000058,0.007200000000000095,-0.22499999999999998,-0.38,0.14500000000000002,-0.18089999999999995,0.09216000000000002,0.29284,1742250010.237018
-0.38,0.1499999999999999,-0.30000000000000004,0.04027999999999987,-0.01525999999999994,-0.01867999999999992,-0.15500000000000003,-0.42500000000000004,0.2250000000000001,-0.16736000000000006,0.09704000000000002,0.10107999999999984,1742250010.351156
-0.37,0.20999999999999996,-0.32000000000000006,0.11402000000000001,-0.02648000000000006,-0.06396000000000002,-0.025000000000000022,-0.235,0.33499999999999996,-0.22620000000000007,0.15257999999999994,-0.0514,1742250010.4651
-0.33000000000000007,0.2749999999999999,-0.26,0.2721,-0.03173999999999999,-0.13818000000000008,-0.07499999999999996,-0.25,0.3900000000000001,-0.15368000000000004,0.030160000000000187,-0.08472000000000002,1742250010.580993
-0.29000000000000004,0.365,-0.18999999999999995,0.22411999999999987,0.03905999999999987,-0.12378,-0.07499999999999996,-0.245,0.42999999999999994,0.06603999999999988,0.04920000000000013,0.024900000000000144,1742250010.692874
-0.24,0.42999999999999994,-0.12,0.2231399999999999,-0.030159999999999965,-0.08665999999999996,-0.015000000000000013,-0.26,0.4099999999999999,-0.034420000000000006,0.09522000000000008,-0.02185999999999999,1742250010.807116
-0.48,0.040000000000000036,-0.20499999999999996,-0.02198,-0.0006199999999999539,0.0032999999999998586,-0.43999999999999995,-0.135,-0.08999999999999997,0.0013400000000001189,0.0035399999999998766,-0.013419999999999987,1742257743.892996
-0.45500000000000007,0.03499999999999992,-0.17500000000000004,0.007079999999999975,-0.0010999999999999899,-0.0025599999999998957,-0.45500000000000007,-0.14500000000000002,-0.09999999999999998,0.00048000000000003595,0.014040000000000052,-0.0010999999999999899,1742257744.0069618
-0.45500000000000007,0.030000000000000027,-0.17999999999999994,-0.0046399999999999775,-0.010739999999999972,0.007940000000000058,-0.45999999999999996,-0.135,-0.09999999999999998,-0.0075599999999999,0.025020000000000042,-0.014900000000000024,1742257744.121578
-0.48,0.020000000000000018,-0.20999999999999996,-0.03527999999999998,-0.009399999999999964,0.011479999999999935,-0.48,-0.15000000000000002,-0.09999999999999998,-0.01208000000000009,-0.0009799999999999809,-0.014639999999999986,1742257744.234998
-0.4650000000000001,0.02499999999999991,-0.24,-0.005859999999999976,-0.01097999999999999,0.005239999999999911,-0.47,-0.14500000000000002,-0.07000000000000006,0.01428000000000007,-0.015859999999999985,-0.0075599999999999,1742257744.348979
-0.44999999999999996,0.020000000000000018,-0.18500000000000005,-0.007320000000000104,-0.0046399999999999775,0.0041599999999999415,-0.485,-0.135,-0.10499999999999998,0.006220000000000114,0.0018400000000000638,0.0,1742257744.462961
-0.45500000000000007,0.020000000000000018,-0.18999999999999995,0.0032999999999998586,-0.0031799999999999606,0.0023200000000000998,-0.45999999999999996,-0.13,-0.09499999999999997,0.00770000000000004,0.0034199999999999786,-0.0018400000000000638,1742257744.576787
-0.45999999999999996,0.020000000000000018,-0.19500000000000006,-0.0037800000000000056,-0.00024000000000001798,0.005980000000000096,-0.4650000000000001,-0.12,-0.09999999999999998,-0.006340000000000012,0.007319999999999993,0.0013400000000001189,1742257744.690982
-0.45999999999999996,0.020000000000000018,-0.20499999999999996,0.012580000000000036,0.0012199999999999989,0.0008600000000000829,-0.4650000000000001,-0.13,-0.08999999999999997,0.0047600000000000975,0.006599999999999939,-0.0010999999999999899,1742257744.8047051
-0.44999999999999996,0.004999999999999893,-0.19500000000000006,0.0015800000000001369,0.0034199999999999786,0.0019599999999999618,-0.4650000000000001,-0.10999999999999999,-0.08499999999999996,-0.0007399999999999629,0.0048799999999999955,-0.0041599999999999415,1742257744.9220538
-0.45500000000000007,0.010000000000000009,-0.19999999999999996,0.0009799999999999809,0.0025599999999998957,0.00550000000000006,-0.475,-0.125,-0.08499999999999996,0.0035399999999998766,0.0032999999999998586,-0.006720000000000059,1742257745.031678
