L-AccX,L-AccY,L-AccZ,L-GyrX,L-GyrY,L-GyrZ,R-AccX,R-AccY,R-AccZ,R-GyrX,R-GyrY,R-GyrZ,timestamp
0.385,-0.10499999999999998,-0.20499999999999996,-0.016960000000000086,-0.01966000000000001,-0.028940000000000077,0.2749999999999999,-0.040000000000000036,0.3999999999999999,-0.03283999999999998,0.0048799999999999955,0.03308,1742248820.212141
0.4099999999999999,-0.125,-0.22499999999999998,-0.005120000000000013,0.00782000000000016,-0.02954000000000001,0.27,-0.040000000000000036,0.42999999999999994,-0.017820000000000058,-0.0026799999999999047,0.02075999999999989,1742248820.326284
0.41500000000000004,-0.15000000000000002,-0.235,0.008539999999999992,0.0041599999999999415,-0.03320000000000001,0.27,-0.040000000000000036,0.41500000000000004,-0.009399999999999964,0.006340000000000012,0.006599999999999939,1742248820.441146
0.4099999999999999,-0.16500000000000004,-0.235,-0.01966000000000001,0.016599999999999948,-0.011480000000000046,0.27,-0.03500000000000003,0.41500000000000004,0.0036599999999999966,-0.007080000000000086,-0.01427999999999996,1742248820.554313
0.405,-0.16000000000000003,-0.24,-0.011720000000000064,0.01770000000000005,0.009279999999999955,0.26,-0.04500000000000004,0.41999999999999993,0.008920000000000039,-0.016840000000000077,-0.01855999999999991,1742248820.668302
0.41500000000000004,-0.15500000000000003,-0.255,0.0027999999999999137,-0.0008599999999999719,0.019039999999999946,0.2650000000000001,-0.04500000000000004,0.42500000000000004,0.010000000000000009,-0.017220000000000013,-0.02210000000000001,1742248820.78228
0.4099999999999999,-0.14500000000000002,-0.245,0.0032999999999998586,0.0032999999999998586,0.021479999999999944,0.2450000000000001,-0.07000000000000006,0.41500000000000004,-0.00660000000000005,-0.006340000000000012,-0.019540000000000002,1742248820.90097
0.3999999999999999,-0.125,-0.25,-0.00878000000000001,0.008539999999999992,0.013919999999999932,0.23499999999999988,-0.07999999999999996,0.42500000000000004,-0.0047599999999999865,-0.010379999999999945,-0.0050000000000000044,1742248821.010332
0.405,-0.10999999999999999,-0.26,0.0007399999999999629,0.004999999999999893,-0.0036599999999999966,0.2450000000000001,-0.06000000000000005,0.42500000000000004,0.0008600000000000829,-0.0023200000000000998,0.012320000000000109,1742248821.124067
0.3999999999999999,-0.135,-0.26,0.006460000000000132,0.0008600000000000829,-0.015139999999999931,0.2450000000000001,-0.040000000000000036,0.43500000000000005,-0.006960000000000077,0.0,0.0047600000000000975,1742248821.240553
0.395,-0.14500000000000002,-0.265,-0.0026799999999999047,0.0030599999999998406,-0.0023200000000000998,0.25,-0.050000000000000044,0.43500000000000005,-0.0047599999999999865,0.005120000000000013,-0.0032999999999999696,1742248821.351315
0.405,-0.14,-0.26,-0.0026799999999999047,0.0014600000000000168,0.0013400000000001189,0.2450000000000001,-0.040000000000000036,0.42999999999999994,-0.0023200000000000998,-0.0008599999999999719,-0.0035399999999999876,1742248821.465259
0.3999999999999999,-0.135,-0.26,0.006599999999999939,-0.0045199999999999685,0.0043999999999999595,0.24,-0.050000000000000044,0.42999999999999994,0.009160000000000057,-0.023559999999999914,0.0042800000000000615,1742248821.5840771
0.3999999999999999,-0.135,-0.26,0.021120000000000028,-0.0024400000000001087,-0.0007399999999999629,0.21999999999999997,-0.05500000000000005,0.45500000000000007,0.015139999999999931,-0.0122000000000001,0.0019599999999999618,1742248821.693078
0.4099999999999999,-0.13,-0.26,0.01868000000000003,-0.01208000000000009,0.008059999999999956,0.23499999999999988,-0.07000000000000006,0.44500000000000006,0.022580000000000044,-0.00012000000000000899,-0.00036000000000002697,1742248821.806175
0.4099999999999999,-0.11499999999999999,-0.255,0.014780000000000015,-0.0050000000000000044,0.007319999999999993,0.22999999999999998,-0.07499999999999996,0.43999999999999995,0.013679999999999914,-0.01097999999999999,-0.010619999999999963,1742248821.920684
0.4099999999999999,-0.11499999999999999,-0.26,0.00878000000000001,0.0029200000000000337,0.013800000000000034,0.21500000000000008,-0.07499999999999996,0.44999999999999996,0.013800000000000034,-0.02088000000000001,0.009039999999999937,1742248822.0340638
0.4099999999999999,-0.09499999999999997,-0.26,0.02942,0.0021999999999999797,-0.01085999999999998,0.19999999999999996,-0.08999999999999997,0.44500000000000006,0.0032999999999998586,-0.013419999999999987,0.009519999999999973,1742248822.148143
0.405,-0.08499999999999996,-0.265,0.01746000000000003,-0.0008599999999999719,-0.014519999999999977,0.20999999999999996,-0.07999999999999996,0.44999999999999996,0.0008600000000000829,-0.00660000000000005,0.01305999999999985,1742248822.262115
0.41500000000000004,-0.10499999999999998,-0.265,0.013539999999999885,-0.0032999999999999696,-0.015499999999999958,0.20500000000000007,-0.07000000000000006,0.45500000000000007,-0.0009799999999999809,0.0018400000000000638,0.010380000000000056,1742248822.379982
0.405,-0.10499999999999998,-0.265,0.010739999999999972,-0.00537999999999994,-0.013539999999999996,0.20500000000000007,-0.06499999999999995,0.45500000000000007,0.0012199999999999989,0.0023200000000000998,0.01428000000000007,1742248822.489166
0.405,-0.125,-0.27,0.0048799999999999955,-0.00770000000000004,-0.009639999999999982,0.20999999999999996,-0.06499999999999995,0.43999999999999995,-0.00036000000000002697,0.0009799999999999809,0.009759999999999991,1742248822.604864
0.405,-0.125,-0.265,0.016720000000000068,-0.002080000000000082,-0.008539999999999992,0.20999999999999996,-0.06499999999999995,0.44999999999999996,0.0012199999999999989,-0.0008599999999999719,-0.0027999999999999137,1742248822.720835
0.405,-0.10999999999999999,-0.265,0.0023200000000000998,-0.00024000000000001798,0.0035399999999998766,0.20500000000000007,-0.07000000000000006,0.45500000000000007,0.0030599999999998406,-0.0008599999999999719,-0.0029199999999999227,1742248822.830178
0.4099999999999999,-0.10999999999999999,-0.275,-0.0042799999999999505,-0.002080000000000082,0.0029200000000000337,0.20999999999999996,-0.07999999999999996,0.44999999999999996,-0.0017000000000000348,-0.0048799999999999955,0.007319999999999993,1742248822.944191
0.4099999999999999,-0.10499999999999998,-0.26,0.005740000000000078,0.0013400000000001189,-0.011360000000000037,0.20500000000000007,-0.06499999999999995,0.44999999999999996,-0.0034199999999999786,0.0030599999999998406,0.006960000000000077,1742248823.06266
0.405,-0.11499999999999999,-0.27,0.0024399999999999977,0.0,-0.009759999999999991,0.20999999999999996,-0.06000000000000005,0.44999999999999996,-0.0009799999999999809,-0.0018400000000000638,0.0040199999999999125,1742248823.1722
0.405,-0.125,-0.265,0.0046399999999999775,-0.0013400000000000079,-0.0025599999999998957,0.20999999999999996,-0.05500000000000005,0.44999999999999996,-0.0012199999999999989,0.0039000000000000146,-0.008059999999999956,1742248823.286179
0.405,-0.12,-0.26,-0.0030599999999999516,0.00048000000000003595,0.010739999999999972,0.21500000000000008,-0.06499999999999995,0.44500000000000006,0.00024000000000001798,0.0012199999999999989,-0.016720000000000068,1742248823.400405
0.405,-0.10999999999999999,-0.26,-0.0039000000000000146,0.0047600000000000975,0.015260000000000051,0.20500000000000007,-0.07999999999999996,0.44999999999999996,-0.002080000000000082,-0.00024000000000001798,-0.01758000000000004,1742248823.51423
0.41500000000000004,-0.09999999999999998,-0.27,-0.011960000000000082,0.00782000000000016,0.01195999999999997,0.20500000000000007,-0.07999999999999996,0.45500000000000007,-0.0023200000000000998,0.0019599999999999618,-0.012820000000000054,1742248823.628177
0.4099999999999999,-0.09999999999999998,-0.27,-0.005499999999999949,-0.002080000000000082,0.009519999999999973,0.21500000000000008,-0.06499999999999995,0.44500000000000006,0.007319999999999993,0.0017000000000000348,-0.015739999999999976,1742248823.742065
0.405,-0.09999999999999998,-0.26,-0.0030599999999999516,0.005120000000000013,0.018320000000000114,0.19999999999999996,-0.09499999999999997,0.44500000000000006,0.009279999999999955,-0.008419999999999983,-0.02185999999999999,1742248823.860608
0.4099999999999999,-0.07499999999999996,-0.27,-0.0015800000000000258,0.009279999999999955,0.018320000000000114,0.18999999999999995,-0.09999999999999998,0.45500000000000007,-0.005120000000000013,-0.0008599999999999719,-0.0045199999999999685,1742248823.970304
0.41500000000000004,-0.07499999999999996,-0.28,-0.0024400000000001087,0.0017000000000000348,-0.0030599999999999516,0.20500000000000007,-0.08999999999999997,0.45500000000000007,-0.0037800000000000056,0.0040199999999999125,0.0021999999999999797,1742248824.0840771
0.4099999999999999,-0.08999999999999997,-0.27,-0.0018400000000000638,-0.0026799999999999047,-0.0032999999999999696,0.20500000000000007,-0.08499999999999996,0.43999999999999995,0.0008600000000000829,0.0024399999999999977,0.0012199999999999989,1742248824.199826
0.405,-0.08999999999999997,-0.265,0.00035999999999991594,-0.0012199999999999989,-0.0015800000000000258,0.20999999999999996,-0.08499999999999996,0.44500000000000006,-0.0022000000000000908,-0.0034199999999999786,-0.001960000000000073,1742248824.311304
0.4099999999999999,-0.08999999999999997,-0.275,-0.00048000000000003595,0.0034199999999999786,-0.0007399999999999629,0.20500000000000007,-0.08499999999999996,0.44500000000000006,-0.0032999999999999696,-0.005240000000000022,-0.0032999999999999696,1742248824.425195
0.405,-0.08999999999999997,-0.265,-0.0025599999999998957,0.006839999999999957,0.0014600000000000168,0.19999999999999996,-0.08499999999999996,0.44999999999999996,-0.0008599999999999719,-0.005619999999999958,-0.0027999999999999137,1742248824.541932
0.405,-0.09499999999999997,-0.275,0.0021999999999999797,0.0040199999999999125,0.0013400000000001189,0.19500000000000006,-0.08499999999999996,0.45500000000000007,0.0007399999999999629,-0.0037800000000000056,0.0006200000000000649,1742248824.6529868
0.4099999999999999,-0.08999999999999997,-0.275,0.0007399999999999629,0.001100000000000101,0.001100000000000101,0.19999999999999996,-0.08499999999999996,0.44999999999999996,-0.0008599999999999719,-0.0014600000000000168,0.00035999999999991594,1742248824.767092
0.405,-0.08999999999999997,-0.275,-0.00048000000000003595,0.0034199999999999786,-0.00048000000000003595,0.19500000000000006,-0.08499999999999996,0.44999999999999996,-0.00012000000000000899,-0.0036599999999999966,0.0007399999999999629,1742248824.881089
0.405,-0.08999999999999997,-0.275,0.0021999999999999797,0.0046399999999999775,0.00011999999999989797,0.19500000000000006,-0.08499999999999996,0.45500000000000007,0.00035999999999991594,-0.0041599999999999415,0.0015800000000001369,1742248825.000142
0.405,-0.08999999999999997,-0.28,0.0014600000000000168,0.0042800000000000615,-0.0017000000000000348,0.18999999999999995,-0.08499999999999996,0.45999999999999996,-0.0050000000000000044,-0.0027999999999999137,-0.0007399999999999629,1742248825.108199
0.405,-0.08499999999999996,-0.2849999999999999,-0.0010999999999999899,0.0043999999999999595,-0.0024400000000001087,0.18999999999999995,-0.07999999999999996,0.45999999999999996,-0.0040200000000000236,-0.0029199999999999227,0.0013400000000001189,1742248825.222065
0.405,-0.08999999999999997,-0.2849999999999999,-0.002080000000000082,0.0014600000000000168,-0.0026799999999999047,0.19500000000000006,-0.07999999999999996,0.45500000000000007,-0.0027999999999999137,-0.0014600000000000168,0.0017000000000000348,1742248825.34032
0.3999999999999999,-0.08999999999999997,-0.28,-0.00048000000000003595,0.001100000000000101,-0.0027999999999999137,0.18999999999999995,-0.07499999999999996,0.45500000000000007,-0.0013400000000000079,-0.0040200000000000236,-0.00012000000000000899,1742248825.4501572
0.3999999999999999,-0.08999999999999997,-0.2849999999999999,0.0014600000000000168,0.0048799999999999955,0.00035999999999991594,0.18999999999999995,-0.07999999999999996,0.45500000000000007,-0.0010999999999999899,-0.0039000000000000146,-0.002080000000000082,1742248825.5641909
0.395,-0.08999999999999997,-0.2849999999999999,0.0019599999999999618,0.005120000000000013,0.0007399999999999629,0.18500000000000005,-0.07999999999999996,0.45999999999999996,-0.0024400000000001087,-0.009159999999999946,-0.0017000000000000348,1742248825.679423
0.3999999999999999,-0.08999999999999997,-0.29000000000000004,0.00011999999999989797,0.007079999999999975,0.00035999999999991594,0.18500000000000005,-0.07999999999999996,0.4650000000000001,-0.0013400000000000079,-0.0036599999999999966,-0.0012199999999999989,1742248825.792194
0.3999999999999999,-0.08999999999999997,-0.29499999999999993,0.00024000000000001798,0.0025599999999998957,-0.00024000000000001798,0.17999999999999994,-0.07999999999999996,0.45999999999999996,0.0009799999999999809,-0.0006199999999999539,0.0014600000000000168,1742248825.905937
0.395,-0.08999999999999997,-0.29000000000000004,0.0013400000000001189,0.0013400000000001189,-0.0023200000000000998,0.17999999999999994,-0.07499999999999996,0.45999999999999996,0.0006200000000000649,-0.00036000000000002697,0.0013400000000001189,1742248826.020331
0.395,-0.08999999999999997,-0.29499999999999993,0.0008600000000000829,0.00024000000000001798,-0.0017000000000000348,0.18500000000000005,-0.07499999999999996,0.45999999999999996,0.0,-0.0022000000000000908,0.00048000000000003595,1742248826.133947
0.395,-0.09499999999999997,-0.29499999999999993,0.0009799999999999809,0.0029200000000000337,0.00024000000000001798,0.17999999999999994,-0.07999999999999996,0.4650000000000001,-0.0012199999999999989,-0.002080000000000082,-0.00048000000000003595,1742248826.2481768
0.395,-0.08999999999999997,-0.29499999999999993,0.00048000000000003595,-0.00024000000000001798,-0.0008599999999999719,0.17999999999999994,-0.07499999999999996,0.45999999999999996,-0.0013400000000000079,0.0012199999999999989,0.00011999999999989797,1742248826.361976
0.3900000000000001,-0.08999999999999997,-0.29000000000000004,-0.0006199999999999539,0.0006200000000000649,-0.0008599999999999719,0.17999999999999994,-0.07499999999999996,0.4650000000000001,-0.00048000000000003595,0.0014600000000000168,-0.00048000000000003595,1742248826.47957
0.395,-0.08999999999999997,-0.29499999999999993,-0.0009799999999999809,-0.0009799999999999809,-0.0013400000000000079,0.18500000000000005,-0.07499999999999996,0.45999999999999996,0.00011999999999989797,0.0023200000000000998,0.00035999999999991594,1742248826.58984
0.395,-0.08999999999999997,-0.29000000000000004,-0.00012000000000000899,-0.0010999999999999899,-0.00036000000000002697,0.18500000000000005,-0.07499999999999996,0.45999999999999996,0.00011999999999989797,0.0006200000000000649,0.0014600000000000168,1742248826.704714
0.3900000000000001,-0.08999999999999997,-0.29499999999999993,0.0007399999999999629,-0.00024000000000001798,-0.0013400000000000079,0.18500000000000005,-0.07499999999999996,0.45999999999999996,0.00011999999999989797,-0.00024000000000001798,0.001100000000000101,1742248826.8197582
0.395,-0.09499999999999997,-0.29000000000000004,0.00035999999999991594,0.0,0.00035999999999991594,0.17999999999999994,-0.07499999999999996,0.45999999999999996,-0.0006199999999999539,-0.0012199999999999989,-0.0012199999999999989,1742248826.9301848
0.395,-0.08999999999999997,-0.29499999999999993,-0.00024000000000001798,0.00048000000000003595,0.00011999999999989797,0.18500000000000005,-0.07999999999999996,0.45999999999999996,-0.00048000000000003595,0.0014600000000000168,0.0019599999999999618,1742248827.04398
0.395,-0.09499999999999997,-0.29000000000000004,-0.00048000000000003595,-0.0006199999999999539,-0.0027999999999999137,0.17999999999999994,-0.07499999999999996,0.45999999999999996,-0.0012199999999999989,0.00035999999999991594,0.0008600000000000829,1742248827.15936
0.395,-0.08999999999999997,-0.29499999999999993,-0.00012000000000000899,0.00024000000000001798,-0.0025599999999998957,0.18500000000000005,-0.07499999999999996,0.45999999999999996,-0.0008599999999999719,0.0017000000000000348,0.0006200000000000649,1742248827.271966
0.395,-0.09499999999999997,-0.29000000000000004,0.00035999999999991594,-0.0008599999999999719,-0.0017000000000000348,0.17999999999999994,-0.07499999999999996,0.45999999999999996,0.0007399999999999629,0.0,0.00048000000000003595,1742248827.385708
0.3900000000000001,-0.09499999999999997,-0.29499999999999993,0.0014600000000000168,0.0008600000000000829,-0.00036000000000002697,0.17999999999999994,-0.07499999999999996,0.45999999999999996,0.0024399999999999977,0.002080000000000082,-0.00036000000000002697,1742248827.499326
0.3900000000000001,-0.09499999999999997,-0.29000000000000004,-0.0013400000000000079,0.00011999999999989797,0.00024000000000001798,0.18500000000000005,-0.07999999999999996,0.45999999999999996,-0.0012199999999999989,-0.0039000000000000146,0.0009799999999999809,1742248827.611965
0.395,-0.09499999999999997,-0.29499999999999993,-0.0010999999999999899,0.0043999999999999595,-0.0023200000000000998,0.17999999999999994,-0.07000000000000006,0.4650000000000001,-0.0022000000000000908,-0.001960000000000073,0.0006200000000000649,1742248827.726091
0.3900000000000001,-0.09499999999999997,-0.29499999999999993,-0.0009799999999999809,0.0013400000000001189,-0.0022000000000000908,0.18500000000000005,-0.07000000000000006,0.45999999999999996,0.0006200000000000649,-0.0013400000000000079,0.00048000000000003595,1742248827.8398132
0.3900000000000001,-0.09499999999999997,-0.29499999999999993,0.0018400000000000638,0.0031799999999999606,0.0,0.17999999999999994,-0.07499999999999996,0.4650000000000001,0.0,-0.0014600000000000168,0.00048000000000003595,1742248827.952818
0.3900000000000001,-0.09499999999999997,-0.30000000000000004,0.0012199999999999989,0.00024000000000001798,-0.0018400000000000638,0.17999999999999994,-0.07000000000000006,0.45999999999999996,-0.0008599999999999719,0.00035999999999991594,0.0007399999999999629,1742248828.065857
0.3900000000000001,-0.09999999999999998,-0.29499999999999993,0.0008600000000000829,-0.00036000000000002697,-0.00012000000000000899,0.17999999999999994,-0.07000000000000006,0.45999999999999996,0.0012199999999999989,0.00024000000000001798,-0.0013400000000000079,1742248828.179829
0.3900000000000001,-0.09499999999999997,-0.30000000000000004,0.0,-0.0014600000000000168,0.0014600000000000168,0.17999999999999994,-0.07499999999999996,0.45999999999999996,0.0015800000000001369,0.0040199999999999125,-0.0022000000000000908,1742248828.293867
0.3900000000000001,-0.08999999999999997,-0.29499999999999993,-0.00048000000000003595,-0.0026799999999999047,0.0019599999999999618,0.18500000000000005,-0.07499999999999996,0.45999999999999996,-0.0006199999999999539,0.0007399999999999629,0.00048000000000003595,1742248828.406826
0.395,-0.08999999999999997,-0.29499999999999993,0.0,-0.00048000000000003595,-0.0008599999999999719,0.17999999999999994,-0.07499999999999996,0.4650000000000001,0.00035999999999991594,0.0019599999999999618,0.0017000000000000348,1742248828.520715
0.395,-0.09499999999999997,-0.29499999999999993,-0.0018400000000000638,-0.0035399999999999876,-0.001960000000000073,0.17999999999999994,-0.07000000000000006,0.47,0.001100000000000101,0.010259999999999936,-0.0007399999999999629,1742248828.633861
0.4099999999999999,-0.10499999999999998,-0.30499999999999994,-0.005619999999999958,-0.021120000000000028,0.00035999999999991594,0.19500000000000006,-0.07000000000000006,0.4650000000000001,0.006220000000000114,0.05078000000000005,0.0029200000000000337,1742248828.747821
0.405,-0.08999999999999997,-0.27,-0.008539999999999992,-0.04747999999999997,0.0021999999999999797,0.2250000000000001,-0.08499999999999996,0.43500000000000005,0.014399999999999968,0.04614000000000007,0.012460000000000138,1742248828.8609111
0.4099999999999999,-0.09499999999999997,-0.255,-0.00988,-0.031240000000000046,-0.0031799999999999606,0.22999999999999998,-0.07000000000000006,0.43999999999999995,0.0,0.03638000000000008,0.005239999999999911,1742248828.978545
0.42500000000000004,-0.11499999999999999,-0.245,-0.009639999999999982,-0.03465999999999991,-0.0015800000000000258,0.2450000000000001,-0.07999999999999996,0.42999999999999994,0.025020000000000042,0.06811999999999996,0.004999999999999893,1742248829.088678
0.42500000000000004,-0.11499999999999999,-0.22499999999999998,-0.028200000000000003,-0.03724000000000005,0.006960000000000077,0.28,-0.07999999999999996,0.3999999999999999,0.01758000000000015,0.046499999999999986,0.009879999999999889,1742248829.201708
0.43500000000000005,-0.10499999999999998,-0.19999999999999996,-0.008179999999999965,-0.02415999999999996,-0.0026799999999999047,0.29499999999999993,-0.08999999999999997,0.375,0.0026800000000000157,0.022699999999999942,0.0008600000000000829,1742248829.318733
0.43999999999999995,-0.10999999999999999,-0.19500000000000006,-0.007080000000000086,-0.010259999999999936,0.001100000000000101,0.30000000000000004,-0.08999999999999997,0.3799999999999999,0.004999999999999893,0.017220000000000013,-0.007320000000000104,1742248829.42787
0.44999999999999996,-0.09999999999999998,-0.19500000000000006,-0.0032999999999999696,-0.01085999999999998,0.00537999999999994,0.31000000000000005,-0.10499999999999998,0.3799999999999999,0.006720000000000059,0.020019999999999927,0.0,1742248829.5416498
0.45500000000000007,-0.09499999999999997,-0.18999999999999995,0.005239999999999911,-0.01770000000000005,-0.0041599999999999415,0.31499999999999995,-0.09499999999999997,0.3799999999999999,0.009879999999999889,0.018179999999999863,0.010499999999999954,1742248829.658386
0.45500000000000007,-0.10499999999999998,-0.17000000000000004,0.011600000000000055,-0.04149999999999998,-0.008179999999999965,0.33000000000000007,-0.09499999999999997,0.3599999999999999,0.018179999999999863,0.01977999999999991,0.00782000000000016,1742248829.7676558
0.44999999999999996,-0.10499999999999998,-0.16000000000000003,0.0040199999999999125,-0.012820000000000054,0.00024000000000001798,0.32499999999999996,-0.09999999999999998,0.3500000000000001,0.006720000000000059,0.0041599999999999415,-0.0031799999999999606,1742248829.880739
0.45500000000000007,-0.08999999999999997,-0.16000000000000003,0.0019599999999999618,-0.0015800000000000258,0.005980000000000096,0.32000000000000006,-0.135,0.3400000000000001,-0.0034199999999999786,-0.0122000000000001,0.0021999999999999797,1742248829.999264
0.45500000000000007,-0.08499999999999996,-0.16000000000000003,-0.007320000000000104,0.01415999999999995,-0.01746000000000003,0.33000000000000007,-0.10499999999999998,0.375,-0.019279999999999964,-0.013299999999999979,0.027700000000000058,1742248830.108878
0.47,-0.14,-0.17500000000000004,-0.006840000000000068,0.01770000000000005,-0.0343,0.3400000000000001,-0.06000000000000005,0.385,-0.0043999999999999595,-0.010499999999999954,0.01648000000000005,1742248830.222872
0.42500000000000004,-0.13,-0.15500000000000003,-0.0042799999999999505,0.022460000000000147,-0.012820000000000054,0.29000000000000004,-0.08499999999999996,0.3400000000000001,0.0030599999999998406,-0.02624000000000004,0.0035399999999998766,1742248830.337677
0.41999999999999993,-0.11499999999999999,-0.18999999999999995,0.007560000000000011,0.02855999999999992,-0.0036599999999999966,0.30499999999999994,-0.06499999999999995,0.3999999999999999,-0.01208000000000009,-0.011600000000000055,0.007440000000000113,1742248830.450858
0.44500000000000006,-0.15500000000000003,-0.21999999999999997,-0.0031799999999999606,0.011840000000000073,-0.006220000000000003,0.32000000000000006,-0.050000000000000044,0.4099999999999999,0.0015800000000001369,0.005619999999999958,0.0034199999999999786,1742248830.564702
0.43999999999999995,-0.16500000000000004,-0.20999999999999996,-0.00770000000000004,0.0,0.0007399999999999629,0.31499999999999995,-0.06000000000000005,0.3999999999999999,0.0040199999999999125,0.01305999999999985,-0.00660000000000005,1742248830.6788402
0.44500000000000006,-0.15000000000000002,-0.20499999999999996,-0.015859999999999985,-0.0045199999999999685,0.0026800000000000157,0.31000000000000005,-0.07499999999999996,0.3799999999999999,-0.0047599999999999865,0.01317999999999997,-0.0015800000000000258,1742248830.79185
0.42500000000000004,-0.135,-0.18999999999999995,-0.008299999999999974,-0.00012000000000000899,-0.0047599999999999865,0.31000000000000005,-0.07000000000000006,0.365,-0.0013400000000000079,0.0045200000000000795,-0.0039000000000000146,1742248830.905857
0.42500000000000004,-0.135,-0.18999999999999995,-0.007080000000000086,0.012939999999999952,0.0008600000000000829,0.32000000000000006,-0.07499999999999996,0.375,-0.010000000000000009,-0.005859999999999976,-0.006460000000000021,1742248831.020386
0.43999999999999995,-0.15000000000000002,-0.19999999999999996,-0.013919999999999932,0.017340000000000133,-0.00537999999999994,0.33000000000000007,-0.07000000000000006,0.395,-0.015139999999999931,-0.009639999999999982,0.0047600000000000975,1742248831.13385
0.44500000000000006,-0.16500000000000004,-0.20999999999999996,-0.0122000000000001,0.008920000000000039,-0.01317999999999997,0.32000000000000006,-0.050000000000000044,0.385,-0.01305999999999996,0.0007399999999999629,0.006460000000000132,1742248831.24781
0.42500000000000004,-0.16000000000000003,-0.19500000000000006,-0.010000000000000009,0.0014600000000000168,-0.009519999999999973,0.32000000000000006,-0.05500000000000005,0.3799999999999999,-0.005499999999999949,0.00782000000000016,0.0035399999999998766,1742248831.3618062
0.42500000000000004,-0.16500000000000004,-0.19500000000000006,-0.009639999999999982,-0.007200000000000095,-0.007940000000000058,0.32499999999999996,-0.03500000000000003,0.375,-0.0046399999999999775,0.005980000000000096,0.0041599999999999415,1742248831.478168
0.41999999999999993,-0.17500000000000004,-0.19500000000000006,-0.0040200000000000236,-0.0027999999999999137,-0.0031799999999999606,0.32000000000000006,-0.04500000000000004,0.3799999999999999,-0.0030599999999999516,0.002080000000000082,-0.0014600000000000168,1742248831.5898838
0.41999999999999993,-0.16500000000000004,-0.19500000000000006,-0.0023200000000000998,-0.0006199999999999539,0.0014600000000000168,0.32000000000000006,-0.050000000000000044,0.3799999999999999,-0.0006199999999999539,0.0007399999999999629,-0.0012199999999999989,1742248831.703899
0.42500000000000004,-0.16500000000000004,-0.19500000000000006,-0.0043999999999999595,0.0013400000000001189,-0.001960000000000073,0.32499999999999996,-0.04500000000000004,0.3799999999999999,-0.0024400000000001087,-0.00036000000000002697,0.0025599999999998957,1742248831.818617
0.42999999999999994,-0.17000000000000004,-0.19999999999999996,-0.0029199999999999227,0.001100000000000101,-0.0045199999999999685,0.32499999999999996,-0.04500000000000004,0.3799999999999999,0.0006200000000000649,0.001100000000000101,0.0025599999999998957,1742248831.931585
0.42500000000000004,-0.17000000000000004,-0.19500000000000006,-0.0024400000000001087,-0.0017000000000000348,-0.0032999999999999696,0.32499999999999996,-0.04500000000000004,0.3799999999999999,-0.0015800000000000258,0.0023200000000000998,0.0014600000000000168,1742248832.0447202
0.42500000000000004,-0.17000000000000004,-0.19500000000000006,-0.0035399999999999876,-0.00012000000000000899,-0.0036599999999999966,0.32499999999999996,-0.040000000000000036,0.3799999999999999,-0.0025599999999998957,0.00048000000000003595,0.0023200000000000998,1742248832.158777
0.42500000000000004,-0.17999999999999994,-0.19500000000000006,-0.0036599999999999966,0.0013400000000001189,-0.0046399999999999775,0.33000000000000007,-0.03500000000000003,0.375,-0.0041599999999999415,0.0023200000000000998,0.0013400000000001189,1742248832.272692
0.42500000000000004,-0.17999999999999994,-0.19500000000000006,-0.0036599999999999966,0.0031799999999999606,-0.0012199999999999989,0.32000000000000006,-0.03500000000000003,0.3799999999999999,-0.0031799999999999606,0.0006200000000000649,0.0,1742248832.386693
0.42500000000000004,-0.17999999999999994,-0.19999999999999996,-0.0032999999999999696,-0.0017000000000000348,-0.0010999999999999899,0.32499999999999996,-0.03500000000000003,0.375,-0.0007399999999999629,0.0018400000000000638,0.0017000000000000348,1742248832.500658
0.41999999999999993,-0.17999999999999994,-0.18999999999999995,-0.0008599999999999719,0.00024000000000001798,-0.0043999999999999595,0.33000000000000007,-0.03500000000000003,0.375,0.0019599999999999618,-0.002080000000000082,0.0024399999999999977,1742248832.6170828
0.41999999999999993,-0.18500000000000005,-0.19500000000000006,-0.00048000000000003595,0.0009799999999999809,-0.001960000000000073,0.32499999999999996,-0.03500000000000003,0.375,0.0,0.0006200000000000649,-0.00012000000000000899,1742248832.728746
0.42500000000000004,-0.17999999999999994,-0.19500000000000006,-0.001960000000000073,0.00048000000000003595,-0.0014600000000000168,0.33000000000000007,-0.03500000000000003,0.375,-0.0009799999999999809,-0.00012000000000000899,0.0,1742248832.842814
0.41999999999999993,-0.17999999999999994,-0.19500000000000006,-0.0015800000000000258,0.0041599999999999415,-0.0009799999999999809,0.32499999999999996,-0.030000000000000027,0.375,-0.0024400000000001087,-0.0006199999999999539,-0.001960000000000073,1742248832.957807
0.41999999999999993,-0.17999999999999994,-0.18999999999999995,-0.0007399999999999629,0.0025599999999998957,0.0012199999999999989,0.32499999999999996,-0.03500000000000003,0.375,-0.00048000000000003595,-0.0010999999999999899,-0.0032999999999999696,1742248833.070868
0.41999999999999993,-0.17999999999999994,-0.19999999999999996,0.002080000000000082,0.0036599999999999966,0.0026800000000000157,0.32499999999999996,-0.03500000000000003,0.3799999999999999,0.0006200000000000649,-0.001960000000000073,-0.0027999999999999137,1742248833.1847749
0.41999999999999993,-0.17999999999999994,-0.19999999999999996,-0.00048000000000003595,0.0024399999999999977,0.0030599999999998406,0.32499999999999996,-0.040000000000000036,0.385,0.0029200000000000337,-0.0018400000000000638,-0.0024400000000001087,1742248833.298787
0.41999999999999993,-0.17500000000000004,-0.19999999999999996,-0.0015800000000000258,0.0015800000000001369,0.0015800000000001369,0.32000000000000006,-0.040000000000000036,0.3799999999999999,-0.00024000000000001798,-0.0009799999999999809,-0.00048000000000003595,1742248833.41285
0.42500000000000004,-0.17999999999999994,-0.19999999999999996,-0.0022000000000000908,-0.00036000000000002697,-0.0015800000000000258,0.33000000000000007,-0.03500000000000003,0.3799999999999999,0.0035399999999998766,0.00550000000000006,0.0,1742248833.52661
0.41999999999999993,-0.17000000000000004,-0.18999999999999995,-0.00036000000000002697,-0.0010999999999999899,-0.002080000000000082,0.32000000000000006,-0.040000000000000036,0.3799999999999999,-0.0048799999999999955,-0.0046399999999999775,0.0031799999999999606,1742248833.639881
0.41999999999999993,-0.18500000000000005,-0.19999999999999996,-0.00024000000000001798,0.0021999999999999797,-0.0035399999999999876,0.32499999999999996,-0.030000000000000027,0.385,-0.0007399999999999629,0.0014600000000000168,0.00024000000000001798,1742248833.753717
0.41999999999999993,-0.17999999999999994,-0.19500000000000006,0.0,-0.0015800000000000258,0.00048000000000003595,0.32499999999999996,-0.040000000000000036,0.3799999999999999,-0.00024000000000001798,-0.00012000000000000899,0.0006200000000000649,1742248833.867799
0.41500000000000004,-0.18500000000000005,-0.19999999999999996,-0.0014600000000000168,-0.00036000000000002697,-0.0007399999999999629,0.32499999999999996,-0.03500000000000003,0.3799999999999999,-0.002080000000000082,0.00035999999999991594,-0.0008599999999999719,1742248833.9818282
0.41999999999999993,-0.17500000000000004,-0.19999999999999996,-0.0015800000000000258,0.0017000000000000348,-0.0008599999999999719,0.32000000000000006,-0.03500000000000003,0.3799999999999999,-0.0013400000000000079,-0.0008599999999999719,0.00024000000000001798,1742248834.095805
0.42500000000000004,-0.17999999999999994,-0.19999999999999996,-0.00024000000000001798,-0.002080000000000082,-0.0014600000000000168,0.33000000000000007,-0.03500000000000003,0.385,-0.0014600000000000168,0.001100000000000101,0.0021999999999999797,1742248834.209578
0.42500000000000004,-0.17999999999999994,-0.19500000000000006,0.00048000000000003595,0.00011999999999989797,-0.007440000000000002,0.32000000000000006,-0.030000000000000027,0.375,-0.0046399999999999775,-0.0026799999999999047,0.009400000000000075,1742248834.322728
0.41999999999999993,-0.18999999999999995,-0.19999999999999996,-0.0046399999999999775,0.0037799999999998946,-0.013419999999999987,0.32000000000000006,-0.025000000000000022,0.385,-0.006460000000000021,0.0013400000000001189,0.007440000000000113,1742248834.4374669
0.4099999999999999,-0.18500000000000005,-0.19999999999999996,-0.0043999999999999595,-0.0023200000000000998,-0.011480000000000046,0.32000000000000006,-0.020000000000000018,0.375,-0.0040200000000000236,0.0014600000000000168,0.009879999999999889,1742248834.550595
0.4099999999999999,-0.19999999999999996,-0.18999999999999995,-0.0048799999999999955,0.0037799999999998946,-0.010259999999999936,0.32000000000000006,-0.010000000000000009,0.3799999999999999,-0.0026799999999999047,-0.0017000000000000348,0.00537999999999994,1742248834.66371
0.41500000000000004,-0.20499999999999996,-0.19500000000000006,-0.0042799999999999505,0.0035399999999998766,-0.0025599999999998957,0.32499999999999996,-0.015000000000000013,0.3799999999999999,-0.0026799999999999047,-0.00024000000000001798,-0.0010999999999999899,1742248834.778538
0.4099999999999999,-0.19500000000000006,-0.19500000000000006,-0.001960000000000073,0.00537999999999994,0.0008600000000000829,0.32000000000000006,-0.020000000000000018,0.375,-0.0018400000000000638,-0.0050000000000000044,-0.0009799999999999809,1742248834.8918242
0.405,-0.19999999999999996,-0.20499999999999996,-0.0017000000000000348,0.006960000000000077,-0.001960000000000073,0.32000000000000006,-0.010000000000000009,0.385,-0.007320000000000104,-0.0039000000000000146,-0.0009799999999999809,1742248835.005763
0.4099999999999999,-0.20499999999999996,-0.19999999999999996,-0.0027999999999999137,0.006960000000000077,-0.0006199999999999539,0.32000000000000006,-0.010000000000000009,0.395,-0.008660000000000001,0.0014600000000000168,-0.0022000000000000908,1742248835.1196811
0.405,-0.20499999999999996,-0.20999999999999996,-0.008059999999999956,0.0017000000000000348,-0.0006199999999999539,0.31499999999999995,-0.0050000000000000044,0.3799999999999999,-0.001960000000000073,0.007200000000000095,-0.0026799999999999047,1742248835.233703
0.4099999999999999,-0.19999999999999996,-0.20499999999999996,-0.0047599999999999865,-0.005739999999999967,0.0037799999999998946,0.33000000000000007,-0.015000000000000013,0.375,-0.0037800000000000056,0.0034199999999999786,-0.0015800000000000258,1742248835.347706
0.405,-0.20999999999999996,-0.19500000000000006,-0.002080000000000082,0.00011999999999989797,-0.0046399999999999775,0.33000000000000007,0.010000000000000009,0.3900000000000001,-0.008419999999999983,0.0018400000000000638,0.0008600000000000829,1742248835.461448
0.4099999999999999,-0.21499999999999997,-0.19999999999999996,-0.0042799999999999505,-0.0032999999999999696,0.006839999999999957,0.32499999999999996,-0.010000000000000009,0.375,-0.0025599999999998957,0.008299999999999974,-0.006220000000000003,1742248835.574681
0.405,-0.18999999999999995,-0.18500000000000005,-0.008059999999999956,0.0009799999999999809,-0.0022000000000000908,0.33000000000000007,-0.0050000000000000044,0.3700000000000001,-0.0039000000000000146,-0.006460000000000021,0.006599999999999939,1742248835.688705
0.405,-0.20499999999999996,-0.19999999999999996,0.0006200000000000649,0.008539999999999992,-0.009519999999999973,0.32000000000000006,0.004999999999999893,0.385,-0.006720000000000059,-0.010499999999999954,0.005740000000000078,1742248835.802513
0.405,-0.21999999999999997,-0.20999999999999996,-0.001960000000000073,0.0017000000000000348,-0.0042799999999999505,0.32000000000000006,0.004999999999999893,0.3900000000000001,-0.0050000000000000044,0.0015800000000001369,-0.0025599999999998957,1742248835.917836
0.4099999999999999,-0.20999999999999996,-0.19999999999999996,-0.006220000000000003,-0.0023200000000000998,0.0030599999999998406,0.32499999999999996,0.0,0.375,-0.0031799999999999606,0.0027999999999999137,-0.0041599999999999415,1742248836.029682
0.405,-0.19999999999999996,-0.18999999999999995,-0.0037800000000000056,0.0046399999999999775,-0.0039000000000000146,0.32000000000000006,0.0,0.3900000000000001,-0.0027999999999999137,-0.0015800000000000258,0.0034199999999999786,1742248836.1436229
0.405,-0.21999999999999997,-0.19999999999999996,-0.0042799999999999505,-0.0018400000000000638,-0.006340000000000012,0.33000000000000007,0.014999999999999902,0.375,-0.0032999999999999696,0.0013400000000001189,0.0027999999999999137,1742248836.2586
0.3999999999999999,-0.21499999999999997,-0.19500000000000006,-0.0017000000000000348,0.0013400000000001189,-0.0024400000000001087,0.32000000000000006,0.010000000000000009,0.375,-0.005120000000000013,-0.0030599999999999516,0.00035999999999991594,1742248836.370576
0.3999999999999999,-0.21999999999999997,-0.18999999999999995,0.0008600000000000829,0.006340000000000012,0.00035999999999991594,0.32499999999999996,0.010000000000000009,0.385,-0.0037800000000000056,-0.007940000000000058,-0.002080000000000082,1742248836.484651
0.405,-0.21999999999999997,-0.19999999999999996,0.0019599999999999618,0.0014600000000000168,-0.0008599999999999719,0.32000000000000006,0.014999999999999902,0.385,0.0007399999999999629,-0.00048000000000003595,0.0006200000000000649,1742248836.599227
0.3999999999999999,-0.21999999999999997,-0.19500000000000006,0.00011999999999989797,0.00048000000000003595,0.00011999999999989797,0.32000000000000006,0.010000000000000009,0.3900000000000001,0.0013400000000001189,0.0015800000000001369,-0.0007399999999999629,1742248836.7114508
0.3999999999999999,-0.21499999999999997,-0.19999999999999996,-0.0009799999999999809,-0.0022000000000000908,0.0006200000000000649,0.32000000000000006,0.010000000000000009,0.3799999999999999,0.0012199999999999989,0.0017000000000000348,-0.00036000000000002697,1742248836.824411
0.3999999999999999,-0.21499999999999997,-0.19999999999999996,0.0017000000000000348,0.0006200000000000649,-0.0026799999999999047,0.32000000000000006,0.014999999999999902,0.385,0.0009799999999999809,-0.0008599999999999719,-0.00048000000000003595,1742248836.9374669
0.3999999999999999,-0.21999999999999997,-0.19500000000000006,-0.00024000000000001798,-0.00024000000000001798,0.00024000000000001798,0.32000000000000006,0.010000000000000009,0.3799999999999999,-0.00024000000000001798,-0.0037800000000000056,-0.0025599999999998957,1742248837.0507772
0.405,-0.21499999999999997,-0.20499999999999996,0.002080000000000082,0.00048000000000003595,0.0023200000000000998,0.32000000000000006,0.010000000000000009,0.3900000000000001,-0.0006199999999999539,0.0017000000000000348,-0.0014600000000000168,1742248837.164729
0.405,-0.21999999999999997,-0.19500000000000006,-0.0012199999999999989,-0.0036599999999999966,0.0023200000000000998,0.32000000000000006,0.014999999999999902,0.3799999999999999,0.0026800000000000157,0.0019599999999999618,-0.0043999999999999595,1742248837.27836
0.405,-0.20999999999999996,-0.19500000000000006,0.008179999999999854,0.00048000000000003595,0.006340000000000012,0.32499999999999996,0.004999999999999893,0.3900000000000001,0.006220000000000114,-0.0043999999999999595,-0.0040200000000000236,1742248837.391486
0.4099999999999999,-0.20999999999999996,-0.20499999999999996,0.0014600000000000168,-0.0039000000000000146,0.0037799999999998946,0.32499999999999996,0.004999999999999893,0.385,0.0018400000000000638,0.005980000000000096,-0.0022000000000000908,1742248837.504365
0.4099999999999999,-0.19999999999999996,-0.18500000000000005,0.0017000000000000348,-0.0036599999999999966,0.0026800000000000157,0.32499999999999996,0.0,0.375,0.001100000000000101,0.0006200000000000649,-0.0007399999999999629,1742248837.617404
0.4099999999999999,-0.20999999999999996,-0.19500000000000006,0.0047600000000000975,0.0013400000000001189,0.0031799999999999606,0.32000000000000006,0.0,0.385,0.0043999999999999595,-0.0008599999999999719,-0.0048799999999999955,1742248837.730475
0.4099999999999999,-0.20499999999999996,-0.20499999999999996,0.0024399999999999977,0.0032999999999998586,0.00865999999999989,0.32000000000000006,-0.010000000000000009,0.385,0.0037799999999998946,-0.0012199999999999989,-0.005619999999999958,1742248837.844544
0.4099999999999999,-0.19999999999999996,-0.20499999999999996,0.00024000000000001798,-0.0022000000000000908,0.005239999999999911,0.32000000000000006,-0.010000000000000009,0.385,0.0012199999999999989,0.0025599999999998957,-0.001960000000000073,1742248837.9584792
0.4099999999999999,-0.19999999999999996,-0.19999999999999996,-0.00012000000000000899,0.00035999999999991594,0.0009799999999999809,0.32000000000000006,-0.0050000000000000044,0.3799999999999999,0.00024000000000001798,-0.0014600000000000168,-0.0024400000000001087,1742248838.072581
0.4099999999999999,-0.21499999999999997,-0.19999999999999996,-0.006460000000000021,0.0017000000000000348,0.008299999999999974,0.32499999999999996,0.004999999999999893,0.3799999999999999,-0.005979999999999985,-0.0023200000000000998,-0.016720000000000068,1742248838.186545
0.4099999999999999,-0.18999999999999995,-0.19999999999999996,-0.002080000000000082,0.00878000000000001,0.011479999999999935,0.31499999999999995,-0.015000000000000013,0.385,-0.0009799999999999809,-0.005619999999999958,-0.011480000000000046,1742248838.300722
0.41500000000000004,-0.19500000000000006,-0.20999999999999996,-0.0035399999999999876,0.006220000000000114,0.008059999999999956,0.32000000000000006,-0.015000000000000013,0.385,-0.002080000000000082,-0.0027999999999999137,-0.010619999999999963,1742248838.4173582
0.41500000000000004,-0.17999999999999994,-0.19999999999999996,-0.0026799999999999047,0.005859999999999976,0.007200000000000095,0.31499999999999995,-0.025000000000000022,0.385,-0.0048799999999999955,-0.0075599999999999,-0.005979999999999985,1742248838.528734
0.41500000000000004,-0.17999999999999994,-0.21499999999999997,0.0008600000000000829,0.0045200000000000795,0.0006200000000000649,0.31000000000000005,-0.015000000000000013,0.3999999999999999,-0.0040200000000000236,-0.00024000000000001798,-0.0024400000000001087,1742248838.642645
0.4099999999999999,-0.19500000000000006,-0.20999999999999996,0.0029200000000000337,-0.0023200000000000998,0.00537999999999994,0.31499999999999995,-0.015000000000000013,0.3900000000000001,-0.0009799999999999809,0.0009799999999999809,-0.007440000000000002,1742248838.75858
0.41500000000000004,-0.18999999999999995,-0.19999999999999996,0.0040199999999999125,-0.0014600000000000168,0.006340000000000012,0.32499999999999996,-0.010000000000000009,0.385,0.006720000000000059,-0.011600000000000055,-0.009519999999999973,1742248838.870582
0.41500000000000004,-0.17000000000000004,-0.21499999999999997,0.013800000000000034,0.006960000000000077,0.007079999999999975,0.30000000000000004,-0.030000000000000027,0.3900000000000001,0.0006200000000000649,-0.011600000000000055,-0.006960000000000077,1742248838.98462
0.41500000000000004,-0.16000000000000003,-0.21999999999999997,0.005740000000000078,-0.0036599999999999966,0.00048000000000003595,0.30499999999999994,-0.030000000000000027,0.395,-0.0025599999999998957,-0.0037800000000000056,0.0030599999999998406,1742248839.100026
0.41500000000000004,-0.16500000000000004,-0.20999999999999996,0.005120000000000013,0.0042800000000000615,-0.006340000000000012,0.30000000000000004,-0.025000000000000022,0.3999999999999999,-0.0018400000000000638,-0.00770000000000004,0.0047600000000000975,1742248839.212683
0.41500000000000004,-0.17500000000000004,-0.21999999999999997,0.0043999999999999595,0.00011999999999989797,-0.006460000000000021,0.30000000000000004,-0.020000000000000018,0.3999999999999999,-0.00048000000000003595,-0.0041599999999999415,0.005619999999999958,1742248839.326594
0.4099999999999999,-0.17500000000000004,-0.20999999999999996,0.0042800000000000615,0.0040199999999999125,-0.001960000000000073,0.30000000000000004,-0.015000000000000013,0.3999999999999999,-0.006340000000000012,-0.00782000000000005,-0.0009799999999999809,1742248839.4407098
0.4099999999999999,-0.17500000000000004,-0.21499999999999997,0.00024000000000001798,0.018440000000000012,0.00048000000000003595,0.29000000000000004,-0.015000000000000013,0.405,-0.01427999999999996,-0.029299999999999993,-0.00012000000000000899,1742248839.554694
0.405,-0.17500000000000004,-0.235,0.0021999999999999797,0.02442000000000011,-0.0027999999999999137,0.2749999999999999,-0.0050000000000000044,0.41500000000000004,-0.008179999999999965,-0.01990000000000003,-0.0039000000000000146,1742248839.668674
0.385,-0.17500000000000004,-0.22999999999999998,0.005859999999999976,0.026980000000000004,-0.005499999999999949,0.2650000000000001,0.0,0.4099999999999999,-0.008660000000000001,-0.03161999999999998,-0.0013400000000000079,1742248839.782486
0.3900000000000001,-0.17999999999999994,-0.24,0.00878000000000001,0.03527999999999998,0.0026800000000000157,0.2549999999999999,0.0,0.42500000000000004,0.0018400000000000638,-0.03186,-0.007940000000000058,1742248839.898612
0.395,-0.17999999999999994,-0.275,0.013299999999999867,0.023679999999999923,0.008920000000000039,0.24,-0.010000000000000009,0.44999999999999996,0.005980000000000096,-0.02501999999999993,-0.011600000000000055,1742248840.0104582
0.3799999999999999,-0.16000000000000003,-0.275,0.0037799999999998946,0.02198000000000011,0.00878000000000001,0.21999999999999997,-0.020000000000000018,0.43999999999999995,0.005859999999999976,-0.026739999999999986,-0.010000000000000009,1742248840.124481
0.375,-0.15500000000000003,-0.29000000000000004,0.007560000000000011,0.025640000000000107,0.006960000000000077,0.20999999999999996,-0.025000000000000022,0.44999999999999996,0.0048799999999999955,-0.03355999999999992,-0.009639999999999982,1742248840.238503
0.355,-0.15500000000000003,-0.30499999999999994,0.008059999999999956,0.03492000000000006,-0.005619999999999958,0.19500000000000006,-0.015000000000000013,0.45500000000000007,0.005120000000000013,-0.035640000000000005,-0.006099999999999994,1742248840.352472
0.3500000000000001,-0.15500000000000003,-0.32000000000000006,0.012460000000000138,0.025020000000000042,0.0047600000000000975,0.18500000000000005,-0.020000000000000018,0.4750000000000001,0.012320000000000109,-0.024780000000000024,-0.010259999999999936,1742248840.466471
0.365,-0.15500000000000003,-0.32499999999999996,0.011239999999999917,0.010380000000000056,0.015859999999999985,0.18500000000000005,-0.040000000000000036,0.4750000000000001,0.01097999999999999,-0.013919999999999932,-0.01537999999999995,1742248840.5819368
0.3599999999999999,-0.125,-0.33000000000000007,0.007940000000000058,0.009279999999999955,0.01208000000000009,0.16999999999999993,-0.05500000000000005,0.4650000000000001,0.010380000000000056,-0.00782000000000005,-0.010140000000000038,1742248840.697724
0.3500000000000001,-0.135,-0.3400000000000001,0.011600000000000055,0.00865999999999989,0.006340000000000012,0.18500000000000005,-0.04500000000000004,0.4750000000000001,0.01990000000000003,-0.0075599999999999,-0.012820000000000054,1742248840.808486
0.355,-0.12,-0.3400000000000001,0.008059999999999956,0.016960000000000086,0.010140000000000038,0.15999999999999992,-0.06499999999999995,0.4750000000000001,0.006839999999999957,-0.01317999999999997,-0.013299999999999979,1742248840.922515
0.355,-0.11499999999999999,-0.3400000000000001,0.011840000000000073,-0.0010999999999999899,0.008059999999999956,0.16500000000000004,-0.07499999999999996,0.4650000000000001,0.015740000000000087,0.0014600000000000168,-0.0047599999999999865,1742248841.0399911
0.3500000000000001,-0.09999999999999998,-0.3400000000000001,0.006340000000000012,-0.00537999999999994,0.008179999999999854,0.15999999999999992,-0.07999999999999996,0.47,0.0031799999999999606,0.00035999999999991594,-0.005859999999999976,1742248841.150388
0.3500000000000001,-0.10499999999999998,-0.3400000000000001,0.0013400000000001189,-0.0027999999999999137,0.0017000000000000348,0.16500000000000004,-0.07999999999999996,0.47,-0.0014600000000000168,0.005619999999999958,-0.0030599999999999516,1742248841.264479
0.345,-0.10499999999999998,-0.33499999999999996,0.0006200000000000649,-0.0039000000000000146,-0.0013400000000000079,0.17500000000000004,-0.07499999999999996,0.45999999999999996,0.0025599999999998957,0.0009799999999999809,-0.0008599999999999719,1742248841.3785138
0.3500000000000001,-0.10999999999999999,-0.33499999999999996,0.0007399999999999629,0.0024399999999999977,-0.0013400000000000079,0.16999999999999993,-0.07499999999999996,0.47,-0.0006199999999999539,-0.005859999999999976,0.0012199999999999989,1742248841.492628
0.345,-0.10999999999999999,-0.3400000000000001,0.0023200000000000998,0.00770000000000004,-0.0023200000000000998,0.15999999999999992,-0.07000000000000006,0.4650000000000001,-0.0018400000000000638,-0.005979999999999985,-0.0012199999999999989,1742248841.606524
0.3500000000000001,-0.11499999999999999,-0.345,0.0024399999999999977,0.0042800000000000615,0.0043999999999999595,0.15999999999999992,-0.07000000000000006,0.4750000000000001,0.00035999999999991594,-0.002080000000000082,-0.007440000000000002,1742248841.720581
0.355,-0.09499999999999997,-0.345,0.0035399999999998766,0.0015800000000001369,0.0029200000000000337,0.1499999999999999,-0.08499999999999996,0.47,0.005120000000000013,0.0047600000000000975,0.0,1742248841.834261
0.355,-0.10499999999999998,-0.3400000000000001,0.0035399999999998766,-0.0022000000000000908,-0.0027999999999999137,0.16999999999999993,-0.07499999999999996,0.4650000000000001,0.0009799999999999809,0.005239999999999911,-0.00024000000000001798,1742248841.947302
0.3500000000000001,-0.10499999999999998,-0.3400000000000001,0.005239999999999911,0.0048799999999999955,-0.0023200000000000998,0.15999999999999992,-0.07999999999999996,0.47,0.006220000000000114,0.0012199999999999989,-0.0015800000000000258,1742248842.061274
0.3500000000000001,-0.09499999999999997,-0.35,0.0042800000000000615,-0.002080000000000082,0.0012199999999999989,0.16500000000000004,-0.08999999999999997,0.4650000000000001,0.008299999999999974,0.005740000000000078,0.0024399999999999977,1742248842.177494
0.3500000000000001,-0.09999999999999998,-0.345,0.005239999999999911,0.0035399999999998766,-0.0025599999999998957,0.16500000000000004,-0.08499999999999996,0.4650000000000001,0.010140000000000038,0.00550000000000006,0.0030599999999998406,1742248842.288231
0.345,-0.09999999999999998,-0.345,0.005859999999999976,0.0023200000000000998,-0.00024000000000001798,0.16999999999999993,-0.09499999999999997,0.4650000000000001,-0.0006199999999999539,-0.0037800000000000056,-0.0015800000000000258,1742248842.4014442
0.345,-0.09499999999999997,-0.35,0.0019599999999999618,0.0037799999999998946,-0.0009799999999999809,0.16999999999999993,-0.08999999999999997,0.4650000000000001,-0.0042799999999999505,-0.0029199999999999227,0.00024000000000001798,1742248842.5184991
0.3500000000000001,-0.09999999999999998,-0.355,0.00865999999999989,-0.01208000000000009,0.0008600000000000829,0.16500000000000004,-0.08999999999999997,0.4650000000000001,0.0026800000000000157,0.0008600000000000829,0.0007399999999999629,1742248842.629238
0.345,-0.09499999999999997,-0.345,0.0027999999999999137,-0.0039000000000000146,-0.00012000000000000899,0.16999999999999993,-0.08999999999999997,0.45999999999999996,-0.0006199999999999539,-0.0017000000000000348,-0.0015800000000000258,1742248842.742484
0.3500000000000001,-0.08999999999999997,-0.345,0.0031799999999999606,-0.0024400000000001087,-0.00012000000000000899,0.16999999999999993,-0.08999999999999997,0.4650000000000001,0.0034199999999999786,0.0008600000000000829,-0.0006199999999999539,1742248842.858026
0.3400000000000001,-0.09499999999999997,-0.345,0.0008600000000000829,0.0046399999999999775,-0.0006199999999999539,0.16999999999999993,-0.09499999999999997,0.4650000000000001,-0.0040200000000000236,-0.005120000000000013,-0.0023200000000000998,1742248842.970537
0.3500000000000001,-0.08999999999999997,-0.35,0.002080000000000082,0.0026800000000000157,0.00035999999999991594,0.16500000000000004,-0.09499999999999997,0.4650000000000001,0.002080000000000082,0.00048000000000003595,0.0008600000000000829,1742248843.084182
0.3500000000000001,-0.08999999999999997,-0.345,0.00035999999999991594,0.0015800000000001369,-0.0032999999999999696,0.15999999999999992,-0.08999999999999997,0.47,-0.002080000000000082,0.00035999999999991594,0.0019599999999999618,1742248843.198422
0.3500000000000001,-0.09499999999999997,-0.345,0.0037799999999998946,-0.008299999999999974,-0.0018400000000000638,0.16999999999999993,-0.08999999999999997,0.4650000000000001,-0.0013400000000000079,0.0006200000000000649,0.0007399999999999629,1742248843.311271
0.355,-0.09499999999999997,-0.3400000000000001,-0.00024000000000001798,0.0007399999999999629,0.0014600000000000168,0.16500000000000004,-0.08999999999999997,0.4650000000000001,-0.0008599999999999719,-0.0032999999999999696,-0.0035399999999999876,1742248843.425505
0.345,-0.08999999999999997,-0.35,0.0021999999999999797,0.001100000000000101,0.00048000000000003595,0.16500000000000004,-0.08999999999999997,0.45999999999999996,0.0007399999999999629,-0.0013400000000000079,-0.0008599999999999719,1742248843.5395682
0.355,-0.08999999999999997,-0.345,0.0008600000000000829,0.0034199999999999786,0.0013400000000001189,0.16500000000000004,-0.09499999999999997,0.4650000000000001,0.0006200000000000649,-0.0007399999999999629,-0.00036000000000002697,1742248843.653423
0.3500000000000001,-0.08999999999999997,-0.35,0.0014600000000000168,0.001100000000000101,0.00035999999999991594,0.15999999999999992,-0.08999999999999997,0.4650000000000001,0.0035399999999998766,0.00011999999999989797,-0.00024000000000001798,1742248843.767305
0.3500000000000001,-0.08999999999999997,-0.35,0.00011999999999989797,-0.0023200000000000998,0.006460000000000132,0.15999999999999992,-0.09499999999999997,0.47,0.0043999999999999595,0.006460000000000132,-0.006220000000000003,1742248843.881349
0.3500000000000001,-0.07999999999999996,-0.345,-0.0012199999999999989,-0.00537999999999994,0.007079999999999975,0.16500000000000004,-0.09999999999999998,0.4650000000000001,0.0012199999999999989,0.0018400000000000638,-0.005619999999999958,1742248843.997824
0.3500000000000001,-0.08499999999999996,-0.35,-0.0024400000000001087,-0.008179999999999965,0.00537999999999994,0.16500000000000004,-0.09499999999999997,0.4650000000000001,-0.00048000000000003595,0.00782000000000016,-0.0032999999999999696,1742248844.1092951
0.355,-0.08499999999999996,-0.33499999999999996,0.00011999999999989797,-0.012940000000000063,0.007940000000000058,0.16999999999999993,-0.09499999999999997,0.45500000000000007,0.006220000000000114,0.012580000000000036,-0.008059999999999956,1742248844.223365
0.3599999999999999,-0.07999999999999996,-0.33499999999999996,-0.008059999999999956,-0.014639999999999986,0.017079999999999984,0.17500000000000004,-0.09999999999999998,0.45999999999999996,-0.001960000000000073,0.017940000000000067,-0.012580000000000036,1742248844.337417
0.375,-0.08999999999999997,-0.33000000000000007,-0.022580000000000044,-0.021600000000000064,0.03051999999999988,0.18500000000000005,-0.12,0.45999999999999996,-0.032480000000000064,0.05090000000000017,-0.04188000000000003,1742248844.451339
0.3999999999999999,-0.050000000000000044,-0.31499999999999995,-0.029059999999999975,-0.04137999999999997,0.024660000000000126,0.21500000000000008,-0.10499999999999998,0.44500000000000006,0.026619999999999866,0.04625999999999997,-0.0012199999999999989,1742248844.565332
0.395,-0.06000000000000005,-0.29000000000000004,-0.0043999999999999595,-0.03186,0.00865999999999989,0.2250000000000001,-0.10999999999999999,0.41500000000000004,0.01537999999999995,0.014780000000000015,0.00035999999999991594,1742248844.679093
0.395,-0.06499999999999995,-0.29499999999999993,-0.002080000000000082,-0.016240000000000032,0.00048000000000003595,0.21999999999999997,-0.10999999999999999,0.42999999999999994,-0.0007399999999999629,0.00782000000000016,-0.0009799999999999809,1742248844.7923222
0.3999999999999999,-0.06499999999999995,-0.28,0.00035999999999991594,-0.011840000000000073,0.0019599999999999618,0.22999999999999998,-0.11499999999999999,0.42500000000000004,0.015260000000000051,0.018320000000000114,-0.0010999999999999899,1742248844.9062269
0.4099999999999999,-0.06499999999999995,-0.28,-0.0048799999999999955,-0.022460000000000035,0.007440000000000113,0.24,-0.12,0.43500000000000005,0.0013400000000001189,0.008920000000000039,-0.009039999999999937,1742248845.020185
0.41999999999999993,-0.06000000000000005,-0.27,-0.006340000000000012,-0.018059999999999965,0.0027999999999999137,0.24,-0.12,0.41999999999999993,0.009879999999999889,0.01537999999999995,-0.0024400000000001087,1742248845.1346822
0.41999999999999993,-0.06499999999999995,-0.26,-0.0010999999999999899,-0.023799999999999932,0.006599999999999939,0.25,-0.12,0.41500000000000004,0.010620000000000074,0.016240000000000032,-0.0027999999999999137,1742248845.2482429
0.41999999999999993,-0.06499999999999995,-0.25,0.0013400000000001189,-0.02525999999999995,0.01097999999999999,0.25,-0.125,0.4099999999999999,0.02429999999999999,0.02648000000000006,-0.005739999999999967,1742248845.3622122
0.42500000000000004,-0.05500000000000005,-0.245,0.0,-0.008539999999999992,0.00878000000000001,0.2650000000000001,-0.15000000000000002,0.395,0.01415999999999995,0.013679999999999914,-0.0027999999999999137,1742248845.478844
0.43500000000000005,-0.05500000000000005,-0.24,0.0,-0.011240000000000028,-0.0013400000000000079,0.27,-0.14,0.3900000000000001,0.017220000000000013,0.01195999999999997,0.0025599999999998957,1742248845.590135
0.44999999999999996,-0.050000000000000044,-0.22499999999999998,0.0017000000000000348,-0.016960000000000086,0.008920000000000039,0.27,-0.15500000000000003,0.3900000000000001,0.020019999999999927,0.01635999999999993,0.0014600000000000168,1742248845.703083
0.44500000000000006,-0.04500000000000004,-0.22999999999999998,0.005120000000000013,-0.009639999999999982,0.0035399999999998766,0.2749999999999999,-0.16500000000000004,0.3900000000000001,0.015619999999999967,0.012460000000000138,0.0040199999999999125,1742248845.817625
0.43500000000000005,-0.050000000000000044,-0.22999999999999998,-0.00048000000000003595,-0.01660000000000006,-0.0022000000000000908,0.29000000000000004,-0.14500000000000002,0.385,0.001100000000000101,0.01415999999999995,0.00865999999999989,1742248845.93002
0.47,-0.06000000000000005,-0.20999999999999996,-0.006720000000000059,-0.016960000000000086,0.006839999999999957,0.2849999999999999,-0.18500000000000005,0.3799999999999999,-0.021120000000000028,0.045660000000000034,-0.002080000000000082,1742248846.043301
0.45500000000000007,-0.030000000000000027,-0.17500000000000004,-0.011720000000000064,-0.018440000000000012,-0.005240000000000022,0.29499999999999993,-0.16000000000000003,0.375,-0.02100000000000002,-0.008419999999999983,0.006839999999999957,1742248846.1579242
0.47,-0.04500000000000004,-0.18999999999999995,-0.031000000000000028,-0.02513999999999994,-0.010140000000000038,0.30000000000000004,-0.11499999999999999,0.3900000000000001,-0.032480000000000064,-0.0022000000000000908,0.014040000000000052,1742248846.2712169
0.45999999999999996,-0.06000000000000005,-0.17000000000000004,0.012820000000000054,-0.00782000000000005,-0.012820000000000054,0.30000000000000004,-0.10999999999999999,0.3900000000000001,-0.0009799999999999809,-0.0043999999999999595,0.018179999999999863,1742248846.385237
0.45500000000000007,-0.07999999999999996,-0.18999999999999995,0.01415999999999995,-0.00878000000000001,0.001100000000000101,0.29499999999999993,-0.10999999999999999,0.41500000000000004,0.006839999999999957,-0.007320000000000104,-0.0006199999999999539,1742248846.499239
0.45999999999999996,-0.06000000000000005,-0.17999999999999994,-0.006460000000000021,-0.0035399999999999876,0.006599999999999939,0.2849999999999999,-0.12,0.385,-0.017820000000000058,-0.01085999999999998,0.0039000000000000146,1742248846.6132312
0.44999999999999996,-0.06499999999999995,-0.18500000000000005,0.010140000000000038,-0.0032999999999999696,-0.008419999999999983,0.2749999999999999,-0.12,0.395,-0.009519999999999973,-0.0026799999999999047,0.0035399999999998766,1742248846.7272398
0.4650000000000001,-0.050000000000000044,-0.17999999999999994,-0.0031799999999999606,-0.0013400000000000079,-0.006720000000000059,0.26,-0.10499999999999998,0.41999999999999993,-0.007080000000000086,0.0008600000000000829,0.00550000000000006,1742248846.841107
0.4650000000000001,-0.050000000000000044,-0.17500000000000004,0.0021999999999999797,-0.014519999999999977,-0.010739999999999972,0.2749999999999999,-0.09999999999999998,0.405,0.01110000000000011,0.012320000000000109,0.011360000000000037,1742248846.958004
0.4650000000000001,-0.06000000000000005,-0.17000000000000004,0.005120000000000013,-0.020139999999999936,-0.012700000000000045,0.2849999999999999,-0.11499999999999999,0.395,0.005740000000000078,0.014639999999999986,0.00865999999999989,1742248847.06801
0.47,-0.07000000000000006,-0.15000000000000002,-0.0006199999999999539,-0.01208000000000009,-0.012700000000000045,0.30499999999999994,-0.09499999999999997,0.3900000000000001,0.011600000000000055,0.018440000000000012,0.014399999999999968,1742248847.1810088
0.47,-0.07999999999999996,-0.15000000000000002,0.0037799999999998946,-0.0035399999999999876,-0.00988,0.29499999999999993,-0.09999999999999998,0.385,0.00024000000000001798,0.0039000000000000146,-0.00012000000000000899,1742248847.296416
0.47,-0.07999999999999996,-0.15000000000000002,-0.00660000000000005,-0.0041599999999999415,0.006340000000000012,0.30000000000000004,-0.11499999999999999,0.385,-0.00878000000000001,0.0023200000000000998,-0.01746000000000003,1742248847.408225
0.4750000000000001,-0.07000000000000006,-0.15000000000000002,-0.024780000000000024,-0.008059999999999956,0.010739999999999972,0.30499999999999994,-0.10499999999999998,0.3799999999999999,0.01317999999999997,0.013919999999999932,-0.006460000000000021,1742248847.5221372
0.47,-0.07999999999999996,-0.14500000000000002,0.0021999999999999797,0.001100000000000101,-0.008419999999999983,0.30000000000000004,-0.12,0.385,0.008059999999999956,0.0006200000000000649,-0.00024000000000001798,1742248847.638771
0.4650000000000001,-0.08499999999999996,-0.14,-0.00537999999999994,0.00011999999999989797,-0.006460000000000021,0.29499999999999993,-0.12,0.375,0.005859999999999976,-0.0014600000000000168,-0.0122000000000001,1742248847.749231
0.4750000000000001,-0.07000000000000006,-0.14500000000000002,-0.006460000000000021,-0.006460000000000021,-0.016240000000000032,0.30000000000000004,-0.13,0.3799999999999999,-0.0029199999999999227,0.0015800000000001369,0.0014600000000000168,1742248847.8630998
0.4650000000000001,-0.08999999999999997,-0.135,-0.0034199999999999786,-0.0012199999999999989,-0.011480000000000046,0.30000000000000004,-0.125,0.3799999999999999,-0.006340000000000012,-0.001960000000000073,-0.00048000000000003595,1742248847.978222
0.47,-0.09499999999999997,-0.14,-0.010499999999999954,0.008419999999999872,-0.007200000000000095,0.31000000000000005,-0.11499999999999999,0.375,0.0039000000000000146,-0.002080000000000082,0.013299999999999867,1742248848.091132
0.45999999999999996,-0.08999999999999997,-0.14,0.008179999999999854,0.0029200000000000337,-0.0029199999999999227,0.29499999999999993,-0.12,0.385,-0.0015800000000000258,-0.029899999999999927,0.01648000000000005,1742248848.205232
0.4750000000000001,-0.08999999999999997,-0.15000000000000002,-0.00024000000000001798,0.0030599999999998406,-0.0014600000000000168,0.29000000000000004,-0.10999999999999999,0.3900000000000001,-0.0042799999999999505,-0.0040200000000000236,0.009039999999999937,1742248848.3192089
0.47,-0.10499999999999998,-0.15000000000000002,0.006720000000000059,-0.008179999999999965,0.011479999999999935,0.29000000000000004,-0.12,0.375,-0.034420000000000006,-0.008660000000000001,-0.00012000000000000899,1742248848.4332988
0.4750000000000001,-0.07999999999999996,-0.16000000000000003,0.0008600000000000829,0.005980000000000096,0.0027999999999999137,0.2849999999999999,-0.10499999999999998,0.3999999999999999,-0.0012199999999999989,0.00770000000000004,-0.019540000000000002,1742248848.5472262
0.4650000000000001,-0.07000000000000006,-0.15000000000000002,-0.019279999999999964,0.0024399999999999977,-0.005979999999999985,0.29000000000000004,-0.10499999999999998,0.395,-0.016000000000000014,0.0048799999999999955,-0.009759999999999991,1742248848.661217
0.47,-0.07999999999999996,-0.15500000000000003,-0.013679999999999914,0.0006200000000000649,-0.0046399999999999775,0.2849999999999999,-0.10999999999999999,0.3999999999999999,-0.0018400000000000638,0.0014600000000000168,-0.0013400000000000079,1742248848.777948
0.47,-0.08999999999999997,-0.14500000000000002,-0.01085999999999998,-0.0022000000000000908,-0.006340000000000012,0.29499999999999993,-0.09999999999999998,0.3900000000000001,-0.0027999999999999137,0.0035399999999998766,0.0039000000000000146,1742248848.889131
0.4650000000000001,-0.08999999999999997,-0.14500000000000002,0.0013400000000001189,-0.0017000000000000348,-0.0030599999999999516,0.29499999999999993,-0.09999999999999998,0.3900000000000001,0.0015800000000001369,-0.00036000000000002697,-0.0006199999999999539,1742248849.0031092
0.4650000000000001,-0.09499999999999997,-0.15000000000000002,0.00770000000000004,0.0014600000000000168,0.001100000000000101,0.29000000000000004,-0.09999999999999998,0.395,0.006220000000000114,-0.001960000000000073,-0.0025599999999998957,1742248849.117718
0.47,-0.08999999999999997,-0.15000000000000002,0.0024399999999999977,-0.0027999999999999137,0.0021999999999999797,0.29000000000000004,-0.10999999999999999,0.395,0.0017000000000000348,-0.0010999999999999899,-0.0010999999999999899,1742248849.23112
0.45999999999999996,-0.08499999999999996,-0.14500000000000002,0.0048799999999999955,0.0031799999999999606,-0.00048000000000003595,0.2849999999999999,-0.10499999999999998,0.3900000000000001,0.0034199999999999786,-0.007200000000000095,0.00048000000000003595,1742248849.3450098
0.47,-0.09499999999999997,-0.15000000000000002,0.00782000000000016,-0.0029199999999999227,-0.0018400000000000638,0.29499999999999993,-0.10999999999999999,0.395,-0.0013400000000000079,-0.0007399999999999629,0.0015800000000001369,1742248849.459101
0.45999999999999996,-0.07999999999999996,-0.15000000000000002,0.020259999999999945,0.015619999999999967,-0.010140000000000038,0.29000000000000004,-0.10499999999999998,0.3900000000000001,0.0017000000000000348,-0.013299999999999979,0.007200000000000095,1742248849.572983
0.47,-0.09499999999999997,-0.17500000000000004,0.021479999999999944,0.025020000000000042,-0.015499999999999958,0.28,-0.09999999999999998,0.4099999999999999,0.0013400000000001189,-0.01636000000000004,0.008539999999999992,1742248849.6860218
0.44500000000000006,-0.09499999999999997,-0.18500000000000005,0.02088000000000001,0.021239999999999926,-0.015499999999999958,0.2749999999999999,-0.08999999999999997,0.395,0.015260000000000051,-0.011600000000000055,0.0032999999999998586,1742248849.799995
0.43999999999999995,-0.09499999999999997,-0.18999999999999995,0.012700000000000156,0.011840000000000073,0.0025599999999998957,0.2650000000000001,-0.11499999999999999,0.405,0.010499999999999954,-0.0040200000000000236,-0.0047599999999999865,1742248849.915723
0.44999999999999996,-0.09499999999999997,-0.20499999999999996,0.0042800000000000615,0.0039000000000000146,-0.00036000000000002697,0.2749999999999999,-0.11499999999999999,0.405,0.007079999999999975,0.0040199999999999125,0.00011999999999989797,1742248850.027927
0.44500000000000006,-0.09499999999999997,-0.19500000000000006,0.0019599999999999618,0.009879999999999889,-0.001960000000000073,0.2849999999999999,-0.12,0.3900000000000001,0.0031799999999999606,0.0006200000000000649,-0.0031799999999999606,1742248850.1409888
0.44500000000000006,-0.09499999999999997,-0.20499999999999996,0.014040000000000052,0.02855999999999992,-0.009759999999999991,0.2650000000000001,-0.11499999999999999,0.405,0.006099999999999994,-0.010739999999999972,0.001100000000000101,1742248850.25795
0.43999999999999995,-0.09499999999999997,-0.22999999999999998,0.02391999999999994,0.018059999999999965,-0.007320000000000104,0.2650000000000001,-0.125,0.4099999999999999,0.00537999999999994,-0.00537999999999994,0.0018400000000000638,1742248850.368959
0.43999999999999995,-0.08999999999999997,-0.235,0.012820000000000054,0.0039000000000000146,-0.010140000000000038,0.2650000000000001,-0.12,0.3999999999999999,0.006460000000000132,-0.0015800000000000258,0.007319999999999993,1742248850.483022
0.43500000000000005,-0.09499999999999997,-0.22999999999999998,0.005740000000000078,0.0039000000000000146,-0.0031799999999999606,0.27,-0.12,0.405,0.0037799999999998946,-0.0014600000000000168,0.0036599999999999966,1742248850.596964
0.42500000000000004,-0.09499999999999997,-0.235,0.00550000000000006,-0.001960000000000073,-0.0024400000000001087,0.2650000000000001,-0.12,0.405,0.001100000000000101,-0.0008599999999999719,0.0021999999999999797,1742248850.710943
0.43500000000000005,-0.09499999999999997,-0.235,0.0021999999999999797,-0.00024000000000001798,0.0009799999999999809,0.2650000000000001,-0.125,0.405,0.004999999999999893,-0.00048000000000003595,-0.0013400000000000079,1742248850.825115
0.42999999999999994,-0.08999999999999997,-0.24,0.0023200000000000998,0.00011999999999989797,0.0017000000000000348,0.2650000000000001,-0.13,0.4099999999999999,0.008179999999999854,-0.0009799999999999809,0.0009799999999999809,1742248850.939016
0.42999999999999994,-0.09499999999999997,-0.24,0.0008600000000000829,0.0007399999999999629,-0.0013400000000000079,0.2650000000000001,-0.125,0.4099999999999999,0.0009799999999999809,-0.0006199999999999539,-0.0017000000000000348,1742248851.05312
0.42500000000000004,-0.09499999999999997,-0.24,-0.0029199999999999227,0.002080000000000082,0.0007399999999999629,0.27,-0.125,0.4099999999999999,-0.0018400000000000638,-0.0017000000000000348,-0.0034199999999999786,1742248851.1672058
0.42500000000000004,-0.09499999999999997,-0.235,0.0026800000000000157,0.00550000000000006,0.0006200000000000649,0.2650000000000001,-0.13,0.395,-0.001960000000000073,-0.0031799999999999606,-0.0036599999999999966,1742248851.281201
0.43500000000000005,-0.08999999999999997,-0.245,0.0039000000000000146,0.0026800000000000157,0.0,0.26,-0.125,0.4099999999999999,0.0034199999999999786,-0.0006199999999999539,-0.00036000000000002697,1742248851.3978062
0.42999999999999994,-0.09999999999999998,-0.245,0.0012199999999999989,-0.00036000000000002697,0.0018400000000000638,0.2650000000000001,-0.125,0.4099999999999999,0.0012199999999999989,0.0031799999999999606,-0.0048799999999999955,1742248851.509027
0.41999999999999993,-0.08499999999999996,-0.24,0.0018400000000000638,0.0034199999999999786,0.0031799999999999606,0.26,-0.13,0.405,0.0037799999999998946,-0.0048799999999999955,-0.0037800000000000056,1742248851.62313
0.42500000000000004,-0.08499999999999996,-0.245,0.005239999999999911,-0.007200000000000095,0.0046399999999999775,0.2650000000000001,-0.14,0.405,0.005980000000000096,0.00048000000000003595,-0.0039000000000000146,1742248851.738761
0.42999999999999994,-0.08499999999999996,-0.24,0.0048799999999999955,-0.0026799999999999047,-0.001960000000000073,0.26,-0.14,0.3999999999999999,0.0017000000000000348,0.002080000000000082,0.0019599999999999618,1742248851.850772
0.42500000000000004,-0.08499999999999996,-0.24,-0.005120000000000013,0.010860000000000092,-0.005979999999999985,0.2549999999999999,-0.135,0.405,-0.006099999999999994,-0.0040200000000000236,-0.0010999999999999899,1742248851.964171
0.43999999999999995,-0.08999999999999997,-0.245,-0.0037800000000000056,0.013800000000000034,-0.0030599999999999516,0.26,-0.135,0.4099999999999999,-0.00660000000000005,-0.0018400000000000638,0.0021999999999999797,1742248852.08161
0.42999999999999994,-0.08999999999999997,-0.245,-0.0040200000000000236,0.008299999999999974,-0.011720000000000064,0.26,-0.12,0.4099999999999999,-0.005739999999999967,0.0007399999999999629,0.007560000000000011,1742248852.191891
0.41999999999999993,-0.09999999999999998,-0.25,0.00770000000000004,0.0031799999999999606,-0.008299999999999974,0.2549999999999999,-0.12,0.41500000000000004,0.0009799999999999809,-0.0046399999999999775,0.005120000000000013,1742248852.304864
0.41999999999999993,-0.09999999999999998,-0.25,0.009279999999999955,-0.0031799999999999606,-0.008419999999999983,0.2650000000000001,-0.125,0.4099999999999999,0.0018400000000000638,-0.0029199999999999227,0.0042800000000000615,1742248852.417898
0.41500000000000004,-0.09499999999999997,-0.25,0.0030599999999998406,0.007560000000000011,-0.0046399999999999775,0.25,-0.125,0.405,0.0007399999999999629,-0.007200000000000095,0.0013400000000001189,1742248852.5318642
0.41500000000000004,-0.10499999999999998,-0.26,0.00011999999999989797,0.0015800000000001369,-0.0023200000000000998,0.2549999999999999,-0.12,0.41500000000000004,-0.00024000000000001798,0.0007399999999999629,-0.0029199999999999227,1742248852.645988
0.41500000000000004,-0.08999999999999997,-0.25,0.00011999999999989797,0.006340000000000012,0.0013400000000001189,0.2450000000000001,-0.125,0.4099999999999999,-0.001960000000000073,-0.005619999999999958,-0.0018400000000000638,1742248852.760118
0.41500000000000004,-0.09999999999999998,-0.26,-0.00036000000000002697,0.0023200000000000998,-0.0010999999999999899,0.2549999999999999,-0.12,0.41500000000000004,0.0021999999999999797,-0.002080000000000082,-0.00036000000000002697,1742248852.8775392
0.41500000000000004,-0.09499999999999997,-0.26,0.0012199999999999989,0.005619999999999958,-0.0008599999999999719,0.2450000000000001,-0.125,0.41999999999999993,0.00048000000000003595,-0.0018400000000000638,0.00011999999999989797,1742248852.987851
0.4099999999999999,-0.09499999999999997,-0.26,0.0040199999999999125,0.0012199999999999989,0.00011999999999989797,0.25,-0.13,0.41500000000000004,0.006460000000000132,-0.0018400000000000638,-0.0024400000000001087,1742248853.1036448
0.41500000000000004,-0.09499999999999997,-0.26,0.007560000000000011,0.0006200000000000649,-0.006099999999999994,0.25,-0.13,0.41500000000000004,0.0031799999999999606,-0.001960000000000073,0.00024000000000001798,1742248853.217653
0.41500000000000004,-0.09999999999999998,-0.26,-0.00036000000000002697,0.0014600000000000168,0.0008600000000000829,0.25,-0.125,0.4099999999999999,0.00024000000000001798,-0.0009799999999999809,-0.0036599999999999966,1742248853.330125
0.41500000000000004,-0.09499999999999997,-0.265,0.00035999999999991594,0.0041599999999999415,0.0006200000000000649,0.2450000000000001,-0.13,0.41500000000000004,-0.0006199999999999539,-0.0026799999999999047,-0.00012000000000000899,1742248853.44409
0.4099999999999999,-0.09499999999999997,-0.27,0.0015800000000001369,-0.0007399999999999629,-0.0023200000000000998,0.25,-0.125,0.41999999999999993,-0.0015800000000000258,-0.00012000000000000899,0.0009799999999999809,1742248853.561541
0.4099999999999999,-0.09999999999999998,-0.265,-0.0015800000000000258,0.0006200000000000649,0.0029200000000000337,0.2450000000000001,-0.13,0.41500000000000004,0.00011999999999989797,0.0007399999999999629,-0.0039000000000000146,1742248853.671894
0.41500000000000004,-0.09499999999999997,-0.265,-0.00024000000000001798,-0.00024000000000001798,0.0031799999999999606,0.25,-0.13,0.41500000000000004,0.00011999999999989797,0.00048000000000003595,-0.0027999999999999137,1742248853.785831
0.41500000000000004,-0.09499999999999997,-0.26,0.0046399999999999775,-0.00036000000000002697,0.0014600000000000168,0.2450000000000001,-0.13,0.4099999999999999,0.0043999999999999595,0.0015800000000001369,-0.005979999999999985,1742248853.898774
0.41500000000000004,-0.08999999999999997,-0.265,0.0031799999999999606,-0.0023200000000000998,0.0023200000000000998,0.2450000000000001,-0.135,0.41500000000000004,0.005239999999999911,0.0013400000000001189,-0.0029199999999999227,1742248854.012966
0.41500000000000004,-0.08499999999999996,-0.265,-0.00024000000000001798,-0.0014600000000000168,0.0013400000000001189,0.2450000000000001,-0.14500000000000002,0.4099999999999999,0.0006200000000000649,0.0,0.00035999999999991594,1742248854.12716
0.4099999999999999,-0.09499999999999997,-0.265,0.00048000000000003595,-0.002080000000000082,-0.002080000000000082,0.25,-0.13,0.4099999999999999,-0.0014600000000000168,-0.0013400000000000079,0.0013400000000001189,1742248854.239864
0.41500000000000004,-0.08999999999999997,-0.265,0.00048000000000003595,0.0026800000000000157,0.0014600000000000168,0.2450000000000001,-0.135,0.41500000000000004,0.0,-0.0009799999999999809,-0.0022000000000000908,1742248854.353915
0.41500000000000004,-0.08999999999999997,-0.26,0.0,0.0017000000000000348,-0.00048000000000003595,0.2450000000000001,-0.135,0.41500000000000004,0.0021999999999999797,0.0006200000000000649,0.0,1742248854.467689
0.4099999999999999,-0.08999999999999997,-0.265,0.0008600000000000829,0.0007399999999999629,0.0015800000000001369,0.2450000000000001,-0.14,0.41500000000000004,0.0012199999999999989,0.00011999999999989797,-0.0025599999999998957,1742248854.581686
0.41500000000000004,-0.08999999999999997,-0.265,0.0006200000000000649,-0.00048000000000003595,0.0019599999999999618,0.25,-0.14,0.41500000000000004,0.00024000000000001798,0.001100000000000101,-0.0023200000000000998,1742248854.698306
0.41500000000000004,-0.08499999999999996,-0.265,-0.00012000000000000899,0.0030599999999998406,0.0015800000000001369,0.2450000000000001,-0.14500000000000002,0.4099999999999999,-0.0009799999999999809,-0.0012199999999999989,-0.0008599999999999719,1742248854.8142478
0.41500000000000004,-0.08499999999999996,-0.265,0.0009799999999999809,-0.0013400000000000079,-0.001960000000000073,0.25,-0.14,0.41500000000000004,0.00011999999999989797,0.0014600000000000168,0.0014600000000000168,1742248854.927698
0.41500000000000004,-0.08999999999999997,-0.26,-0.00024000000000001798,0.0012199999999999989,0.0008600000000000829,0.2450000000000001,-0.14,0.4099999999999999,0.002080000000000082,-0.00024000000000001798,-0.0017000000000000348,1742248855.041069
0.41500000000000004,-0.08499999999999996,-0.26,0.00035999999999991594,0.001100000000000101,-0.00012000000000000899,0.2450000000000001,-0.14500000000000002,0.4099999999999999,0.0007399999999999629,-0.00012000000000000899,0.0006200000000000649,1742248855.15836
0.41500000000000004,-0.08999999999999997,-0.265,0.0012199999999999989,-0.00036000000000002697,-0.0007399999999999629,0.2450000000000001,-0.14,0.41500000000000004,0.0008600000000000829,0.00048000000000003595,-0.0008599999999999719,1742248855.2688031
0.41999999999999993,-0.08999999999999997,-0.265,-0.00024000000000001798,0.00011999999999989797,0.001100000000000101,0.2450000000000001,-0.14,0.41500000000000004,0.00024000000000001798,0.001100000000000101,-0.0014600000000000168,1742248855.382765
0.41999999999999993,-0.08499999999999996,-0.26,-0.0006199999999999539,-0.0014600000000000168,0.0032999999999998586,0.25,-0.14500000000000002,0.4099999999999999,0.0035399999999998766,0.0039000000000000146,-0.0034199999999999786,1742248855.4983091
0.41500000000000004,-0.08499999999999996,-0.26,0.0007399999999999629,-0.0018400000000000638,0.0021999999999999797,0.2450000000000001,-0.14500000000000002,0.4099999999999999,0.0015800000000001369,0.0012199999999999989,-0.002080000000000082,1742248855.610794
0.41500000000000004,-0.08499999999999996,-0.26,0.001100000000000101,-0.00024000000000001798,-0.00024000000000001798,0.2450000000000001,-0.14,0.4099999999999999,0.001100000000000101,-0.00024000000000001798,-0.0009799999999999809,1742248855.72492
0.41999999999999993,-0.07999999999999996,-0.26,0.0009799999999999809,-0.001960000000000073,0.0017000000000000348,0.25,-0.15000000000000002,0.4099999999999999,0.001100000000000101,0.001100000000000101,-0.0009799999999999809,1742248855.83882
0.41999999999999993,-0.08499999999999996,-0.26,0.0008600000000000829,0.00048000000000003595,-0.0007399999999999629,0.2450000000000001,-0.14500000000000002,0.4099999999999999,0.00024000000000001798,0.0015800000000001369,-0.00012000000000000899,1742248855.952781
0.41500000000000004,-0.07999999999999996,-0.26,0.0,0.0013400000000001189,-0.0008599999999999719,0.2450000000000001,-0.14500000000000002,0.4099999999999999,0.0019599999999999618,0.00011999999999989797,0.0007399999999999629,1742248856.0666392
0.41500000000000004,-0.08499999999999996,-0.26,0.0013400000000001189,0.00048000000000003595,-0.0010999999999999899,0.2450000000000001,-0.14500000000000002,0.4099999999999999,0.00024000000000001798,-0.0006199999999999539,-0.00024000000000001798,1742248856.179898
0.41500000000000004,-0.07999999999999996,-0.26,-0.0009799999999999809,0.0023200000000000998,0.0039000000000000146,0.25,-0.14500000000000002,0.4099999999999999,0.0009799999999999809,-0.0010999999999999899,-0.0025599999999998957,1742248856.2977788
0.41999999999999993,-0.07999999999999996,-0.26,0.00035999999999991594,-0.0015800000000000258,0.0024399999999999977,0.25,-0.15000000000000002,0.4099999999999999,0.0013400000000001189,0.00035999999999991594,-0.0013400000000000079,1742248856.407706
0.41500000000000004,-0.07999999999999996,-0.255,0.00035999999999991594,-0.0013400000000000079,0.00048000000000003595,0.25,-0.15000000000000002,0.4099999999999999,0.0007399999999999629,0.0008600000000000829,-0.0010999999999999899,1742248856.520801
0.41999999999999993,-0.07999999999999996,-0.26,0.0013400000000001189,-0.0013400000000000079,-0.00048000000000003595,0.25,-0.15000000000000002,0.405,0.00024000000000001798,0.0007399999999999629,-0.00024000000000001798,1742248856.637894
0.41500000000000004,-0.07999999999999996,-0.26,0.00048000000000003595,-0.0006199999999999539,-0.00012000000000000899,0.25,-0.15000000000000002,0.4099999999999999,0.00011999999999989797,0.0008600000000000829,-0.0008599999999999719,1742248856.748707
0.41999999999999993,-0.07999999999999996,-0.255,0.00035999999999991594,-0.00012000000000000899,0.0006200000000000649,0.25,-0.15000000000000002,0.405,0.0008600000000000829,-0.00036000000000002697,-0.00036000000000002697,1742248856.861824
0.41999999999999993,-0.07999999999999996,-0.255,0.00035999999999991594,0.00035999999999991594,-0.0010999999999999899,0.25,-0.14500000000000002,0.405,0.00024000000000001798,0.0013400000000001189,0.00011999999999989797,1742248856.9778
0.41999999999999993,-0.07999999999999996,-0.26,0.0006200000000000649,-0.00012000000000000899,-0.00024000000000001798,0.25,-0.15500000000000003,0.405,-0.001960000000000073,-0.00024000000000001798,-0.00012000000000000899,1742248857.088908
0.41500000000000004,-0.08499999999999996,-0.26,0.00035999999999991594,-0.00024000000000001798,-0.0017000000000000348,0.25,-0.14500000000000002,0.405,-0.0030599999999999516,-0.0009799999999999809,0.0,1742248857.202938
0.41999999999999993,-0.07999999999999996,-0.26,0.00011999999999989797,0.0008600000000000829,-0.0012199999999999989,0.25,-0.15000000000000002,0.405,-0.0006199999999999539,0.00011999999999989797,0.0008600000000000829,1742248857.318433
0.42500000000000004,-0.07999999999999996,-0.255,0.00048000000000003595,0.0007399999999999629,-0.0015800000000000258,0.25,-0.15000000000000002,0.4099999999999999,-0.0006199999999999539,-0.00048000000000003595,0.0021999999999999797,1742248857.4308338
0.41999999999999993,-0.08499999999999996,-0.26,0.0,-0.0010999999999999899,-0.0023200000000000998,0.25,-0.14500000000000002,0.4099999999999999,-0.0017000000000000348,0.0009799999999999809,0.001100000000000101,1742248857.544864
0.41999999999999993,-0.07999999999999996,-0.26,0.0,-0.00048000000000003595,-0.001960000000000073,0.25,-0.15000000000000002,0.405,-0.0026799999999999047,-0.00024000000000001798,0.0006200000000000649,1742248857.6588118
0.41999999999999993,-0.07999999999999996,-0.255,-0.0006199999999999539,-0.0014600000000000168,0.00024000000000001798,0.25,-0.15000000000000002,0.4099999999999999,0.0019599999999999618,0.0041599999999999415,-0.0006199999999999539,1742248857.772765
0.41999999999999993,-0.07999999999999996,-0.255,-0.0025599999999998957,-0.0013400000000000079,-0.0006199999999999539,0.25,-0.14500000000000002,0.4099999999999999,0.0015800000000001369,0.006720000000000059,0.0025599999999998957,1742248857.886618
0.41999999999999993,-0.08499999999999996,-0.25,-0.0010999999999999899,-0.0041599999999999415,-0.0015800000000000258,0.26,-0.15000000000000002,0.395,-0.0030599999999999516,0.0032999999999998586,0.0036599999999999966,1742248857.9997382
0.42500000000000004,-0.08499999999999996,-0.245,-0.016840000000000077,0.0015800000000001369,0.00024000000000001798,0.2549999999999999,-0.16000000000000003,0.395,-0.039919999999999956,-0.034420000000000006,0.0039000000000000146,1742248858.11698
0.42500000000000004,-0.07999999999999996,-0.265,-0.010140000000000038,-0.005859999999999976,-0.020379999999999954,0.23499999999999988,-0.12,0.44999999999999996,-0.019039999999999946,-0.02648000000000006,0.02088000000000001,1742248858.227865
0.41999999999999993,-0.09999999999999998,-0.255,-0.015139999999999931,-0.011360000000000037,-0.016000000000000014,0.23499999999999988,-0.10499999999999998,0.42999999999999994,-0.018440000000000012,-0.00660000000000005,0.016960000000000086,1742248858.341832
0.42500000000000004,-0.11499999999999999,-0.22499999999999998,0.0032999999999998586,-0.00660000000000005,-0.012820000000000054,0.2450000000000001,-0.08499999999999996,0.41999999999999993,-0.0007399999999999629,-0.007320000000000104,0.009039999999999937,1742248858.4578938
0.41999999999999993,-0.12,-0.22999999999999998,0.0042800000000000615,0.0037799999999998946,0.0014600000000000168,0.23499999999999988,-0.09999999999999998,0.42500000000000004,0.006340000000000012,-0.007080000000000086,-0.0030599999999999516,1742248858.569865
0.41999999999999993,-0.10999999999999999,-0.245,0.008299999999999974,-0.00048000000000003595,0.0042800000000000615,0.22999999999999998,-0.09499999999999997,0.42999999999999994,0.01550000000000007,-0.008660000000000001,-0.0029199999999999227,1742248858.683846
0.405,-0.13,-0.265,0.027839999999999865,-0.010739999999999972,0.01305999999999985,0.2250000000000001,-0.10999999999999999,0.45500000000000007,0.02624000000000004,-0.00036000000000002697,-0.014399999999999968,1742248858.797869
0.42999999999999994,-0.08499999999999996,-0.245,0.0017000000000000348,-0.009759999999999991,0.023440000000000127,0.22999999999999998,-0.14,0.43500000000000005,0.015260000000000051,0.004999999999999893,-0.008539999999999992,1742248858.9116302
0.43999999999999995,-0.07000000000000006,-0.24,-0.009519999999999973,-0.009279999999999955,0.013800000000000034,0.24,-0.135,0.42999999999999994,0.013539999999999885,0.023320000000000007,0.008299999999999974,1742248859.024492
0.42500000000000004,-0.08999999999999997,-0.21999999999999997,-0.012700000000000045,-0.01525999999999994,0.028939999999999966,0.2650000000000001,-0.125,0.395,0.0014600000000000168,0.006220000000000114,-0.0075599999999999,1742248859.141553
0.41500000000000004,-0.08499999999999996,-0.255,-0.028320000000000012,0.00550000000000006,0.04809999999999981,0.2549999999999999,-0.125,0.41500000000000004,-0.03186,0.021360000000000046,-0.013539999999999996,1742248859.251737
0.43999999999999995,-0.05500000000000005,-0.235,-0.024780000000000024,-0.027700000000000058,-0.0025599999999998957,0.2849999999999999,-0.13,0.395,0.007560000000000011,0.011479999999999935,0.01195999999999997,1742249808.807967
0.42500000000000004,-0.06000000000000005,-0.24,-0.016720000000000068,-0.012580000000000036,-0.017340000000000022,0.30000000000000004,-0.10999999999999999,0.3799999999999999,0.024540000000000006,0.0046399999999999775,0.012820000000000054,1742249808.917523
0.44500000000000006,-0.06499999999999995,-0.21999999999999997,-0.012580000000000036,-0.0042799999999999505,-0.02076,0.30000000000000004,-0.10999999999999999,0.365,0.00024000000000001798,0.018320000000000114,0.022460000000000147,1742249809.030488
0.43500000000000005,-0.07999999999999996,-0.21999999999999997,-0.00782000000000005,-0.0009799999999999809,-0.022220000000000018,0.30499999999999994,-0.10999999999999999,0.3599999999999999,-0.0022000000000000908,0.0039000000000000146,0.013679999999999914,1742249809.148184
0.42500000000000004,-0.07000000000000006,-0.21499999999999997,-0.005739999999999967,0.006460000000000132,-0.013919999999999932,0.28,-0.15000000000000002,0.365,-0.006340000000000012,-0.010379999999999945,0.030279999999999863,1742249809.257731
0.42500000000000004,-0.09999999999999998,-0.24,0.004999999999999893,-0.0022000000000000908,-0.026000000000000023,0.30499999999999994,-0.09999999999999998,0.3900000000000001,-0.007080000000000086,-0.002080000000000082,0.01770000000000005,1742249809.372169
0.42999999999999994,-0.09999999999999998,-0.245,0.0,-0.0023200000000000998,-0.022580000000000044,0.30000000000000004,-0.07999999999999996,0.3999999999999999,-0.023440000000000016,0.03956000000000004,0.02746000000000004,1742249809.48608
0.43500000000000005,-0.135,-0.22999999999999998,-0.026619999999999977,-0.03283999999999998,-0.028679999999999928,0.33499999999999996,-0.040000000000000036,0.3700000000000001,-0.021720000000000073,0.031380000000000186,0.010739999999999972,1742249809.606484
0.43999999999999995,-0.14,-0.19500000000000006,-0.022580000000000044,-0.020019999999999927,-0.02415999999999996,0.355,-0.015000000000000013,0.3599999999999999,0.00550000000000006,0.00770000000000004,-0.007080000000000086,1742249809.71354
0.44500000000000006,-0.15000000000000002,-0.17500000000000004,0.011479999999999935,-0.0045199999999999685,0.010380000000000056,0.30499999999999994,-0.10499999999999998,0.375,-0.011960000000000082,-0.005240000000000022,-0.011480000000000046,1742249809.827759
0.44500000000000006,-0.125,-0.20499999999999996,-0.006340000000000012,-0.0050000000000000044,0.008179999999999854,0.33499999999999996,-0.07000000000000006,0.365,-0.013799999999999923,0.008920000000000039,-0.01525999999999994,1742249809.945935
0.43999999999999995,-0.135,-0.18500000000000005,-0.015739999999999976,-0.0035399999999999876,0.01208000000000009,0.33000000000000007,-0.06000000000000005,0.365,0.020380000000000065,-0.0015800000000000258,-0.024419999999999997,1742249810.055692
0.43999999999999995,-0.14500000000000002,-0.17999999999999994,0.005980000000000096,-0.001960000000000073,0.022820000000000062,0.32499999999999996,-0.07000000000000006,0.375,0.00537999999999994,-0.017080000000000095,-0.027840000000000087,1742249810.169651
0.44999999999999996,-0.12,-0.18999999999999995,0.009039999999999937,0.013299999999999867,0.023560000000000025,0.30499999999999994,-0.10499999999999998,0.3700000000000001,0.017340000000000133,-0.017340000000000022,-0.03308,1742249810.2867892
0.44999999999999996,-0.09999999999999998,-0.19500000000000006,0.00878000000000001,0.011360000000000037,0.032480000000000064,0.2849999999999999,-0.15500000000000003,0.375,0.011360000000000037,-0.00782000000000005,-0.01305999999999996,1742249810.397694
0.45999999999999996,-0.06499999999999995,-0.21499999999999997,0.0031799999999999606,0.0015800000000001369,0.007560000000000011,0.29499999999999993,-0.12,0.3799999999999999,-0.0043999999999999595,0.0006200000000000649,0.005619999999999958,1742249810.5115168
0.44500000000000006,-0.09499999999999997,-0.20499999999999996,-0.0041599999999999415,-0.0046399999999999775,-0.008919999999999928,0.30499999999999994,-0.10999999999999999,0.385,0.014899999999999913,0.005120000000000013,-0.0037800000000000056,1742249810.626821
0.43999999999999995,-0.10499999999999998,-0.19999999999999996,0.006220000000000114,-0.0037800000000000056,0.010380000000000056,0.30499999999999994,-0.135,0.375,0.00782000000000016,-0.006340000000000012,-0.008059999999999956,1742249810.7464309
0.44999999999999996,-0.08999999999999997,-0.19999999999999996,0.0047600000000000975,0.005120000000000013,0.007560000000000011,0.30499999999999994,-0.13,0.375,0.0042800000000000615,-0.005619999999999958,-0.006960000000000077,1742249810.8537002
0.44500000000000006,-0.08499999999999996,-0.19999999999999996,0.009759999999999991,0.0018400000000000638,0.0047600000000000975,0.29000000000000004,-0.14,0.385,0.010860000000000092,-0.00024000000000001798,-0.009399999999999964,1742249810.967684
0.44500000000000006,-0.07499999999999996,-0.20999999999999996,0.006960000000000077,-0.0048799999999999955,0.012939999999999952,0.29499999999999993,-0.14500000000000002,0.3799999999999999,0.001100000000000101,0.0035399999999998766,-0.009279999999999955,1742249811.0852668
0.45500000000000007,-0.07000000000000006,-0.19999999999999996,0.0,-0.010140000000000038,0.010259999999999936,0.29000000000000004,-0.15500000000000003,0.375,-0.0007399999999999629,0.0024399999999999977,-0.008059999999999956,1742249811.195692
0.45999999999999996,-0.06000000000000005,-0.19500000000000006,-0.0041599999999999415,-0.0027999999999999137,0.00550000000000006,0.30000000000000004,-0.15000000000000002,0.3700000000000001,0.0008600000000000829,0.0043999999999999595,-0.0015800000000000258,1742249811.309592
0.45500000000000007,-0.06499999999999995,-0.18999999999999995,-0.0024400000000001087,-0.0034199999999999786,0.0017000000000000348,0.29499999999999993,-0.15000000000000002,0.3700000000000001,0.0018400000000000638,0.0006200000000000649,-0.002080000000000082,1742249811.4253252
0.45500000000000007,-0.07000000000000006,-0.19500000000000006,-0.0010999999999999899,0.00011999999999989797,0.0026800000000000157,0.30000000000000004,-0.15500000000000003,0.3700000000000001,0.0008600000000000829,0.0018400000000000638,-0.005499999999999949,1742249811.537698
0.45999999999999996,-0.06000000000000005,-0.18999999999999995,-0.0018400000000000638,-0.0022000000000000908,0.005859999999999976,0.30000000000000004,-0.15000000000000002,0.375,0.0029200000000000337,0.0015800000000001369,-0.0029199999999999227,1742249811.651587
0.45999999999999996,-0.06000000000000005,-0.18999999999999995,0.0047600000000000975,-0.0045199999999999685,0.0048799999999999955,0.29499999999999993,-0.15500000000000003,0.3700000000000001,0.00048000000000003595,-0.0008599999999999719,-0.0025599999999998957,1742249811.765884
0.45500000000000007,-0.06000000000000005,-0.18999999999999995,0.0,0.002080000000000082,0.002080000000000082,0.30000000000000004,-0.15500000000000003,0.3700000000000001,-0.0008599999999999719,-0.00012000000000000899,-0.0026799999999999047,1742249811.8848891
0.45999999999999996,-0.06000000000000005,-0.18999999999999995,-0.0014600000000000168,0.00048000000000003595,0.0014600000000000168,0.29499999999999993,-0.15500000000000003,0.3700000000000001,-0.001960000000000073,0.0007399999999999629,-0.001960000000000073,1742249811.993611
0.45500000000000007,-0.06000000000000005,-0.18999999999999995,-0.0025599999999998957,0.0024399999999999977,0.0,0.29499999999999993,-0.15000000000000002,0.375,-0.0017000000000000348,-0.0017000000000000348,-0.0023200000000000998,1742249812.107651
0.45500000000000007,-0.06000000000000005,-0.18999999999999995,-0.0007399999999999629,0.0019599999999999618,0.0017000000000000348,0.29000000000000004,-0.15500000000000003,0.375,0.0008600000000000829,0.0,-0.0022000000000000908,1742249812.223875
0.44999999999999996,-0.06000000000000005,-0.19500000000000006,-0.0010999999999999899,0.0032999999999998586,0.0026800000000000157,0.29000000000000004,-0.15000000000000002,0.375,-0.0013400000000000079,-0.0012199999999999989,-0.0022000000000000908,1742249812.335712
0.45500000000000007,-0.06000000000000005,-0.19999999999999996,-0.0007399999999999629,0.0040199999999999125,0.002080000000000082,0.29000000000000004,-0.15500000000000003,0.375,0.0,-0.0015800000000000258,-0.0024400000000001087,1742249812.449591
0.45500000000000007,-0.06000000000000005,-0.19999999999999996,0.0,0.0029200000000000337,0.0019599999999999618,0.29000000000000004,-0.16000000000000003,0.375,0.0015800000000001369,-0.0012199999999999989,-0.0025599999999998957,1742249812.5646348
0.45500000000000007,-0.05500000000000005,-0.19500000000000006,-0.0006199999999999539,0.002080000000000082,0.0012199999999999989,0.2849999999999999,-0.16000000000000003,0.375,-0.0006199999999999539,-0.0010999999999999899,-0.0018400000000000638,1742249812.6776462
0.45500000000000007,-0.05500000000000005,-0.20499999999999996,-0.0014600000000000168,0.002080000000000082,0.00048000000000003595,0.29000000000000004,-0.15500000000000003,0.375,-0.0027999999999999137,0.00048000000000003595,0.001100000000000101,1742249812.791418
0.45500000000000007,-0.06000000000000005,-0.19999999999999996,-0.0023200000000000998,-0.0014600000000000168,-0.0013400000000000079,0.29000000000000004,-0.15500000000000003,0.375,-0.0010999999999999899,0.00011999999999989797,-0.0018400000000000638,1742249812.905532
0.44999999999999996,-0.06000000000000005,-0.19500000000000006,-0.0014600000000000168,0.001100000000000101,0.0008600000000000829,0.29000000000000004,-0.16000000000000003,0.375,-0.00012000000000000899,-0.0018400000000000638,-0.002080000000000082,1742249813.025355
0.45500000000000007,-0.05500000000000005,-0.19999999999999996,0.00035999999999991594,0.0019599999999999618,0.0009799999999999809,0.29000000000000004,-0.16000000000000003,0.375,-0.0010999999999999899,-0.002080000000000082,0.001100000000000101,1742249813.133566
0.45500000000000007,-0.05500000000000005,-0.19999999999999996,0.0007399999999999629,0.0019599999999999618,-0.0024400000000001087,0.29000000000000004,-0.15500000000000003,0.375,-0.0017000000000000348,0.0007399999999999629,0.0006200000000000649,1742249813.247474
0.44999999999999996,-0.06000000000000005,-0.19999999999999996,-0.0010999999999999899,-0.0008599999999999719,-0.00048000000000003595,0.2849999999999999,-0.15500000000000003,0.375,-0.0018400000000000638,-0.0013400000000000079,0.00011999999999989797,1742249813.364913
0.45500000000000007,-0.05500000000000005,-0.19999999999999996,0.00048000000000003595,0.0009799999999999809,-0.0018400000000000638,0.29000000000000004,-0.15500000000000003,0.375,-0.0017000000000000348,0.00011999999999989797,0.0015800000000001369,1742249813.484658
0.44999999999999996,-0.06000000000000005,-0.19999999999999996,-0.0009799999999999809,0.00011999999999989797,-0.0018400000000000638,0.29000000000000004,-0.15500000000000003,0.375,-0.0015800000000000258,-0.0007399999999999629,0.0014600000000000168,1742249813.589565
0.44999999999999996,-0.06000000000000005,-0.19999999999999996,0.00024000000000001798,0.0006200000000000649,-0.0023200000000000998,0.2849999999999999,-0.15500000000000003,0.375,-0.0024400000000001087,-0.001960000000000073,0.0008600000000000829,1742249813.708822
0.44999999999999996,-0.06000000000000005,-0.19999999999999996,-0.00036000000000002697,0.0024399999999999977,-0.0025599999999998957,0.2849999999999999,-0.15000000000000002,0.3799999999999999,-0.0009799999999999809,-0.001960000000000073,0.0031799999999999606,1742249813.817575
0.44999999999999996,-0.06499999999999995,-0.20499999999999996,0.0008600000000000829,0.0021999999999999797,-0.0035399999999999876,0.29000000000000004,-0.14500000000000002,0.3799999999999999,-0.0013400000000000079,-0.0022000000000000908,0.00035999999999991594,1742249813.931523
0.44999999999999996,-0.06499999999999995,-0.20499999999999996,-0.0007399999999999629,0.0043999999999999595,-0.00048000000000003595,0.2849999999999999,-0.15000000000000002,0.3799999999999999,-0.0008599999999999719,-0.0036599999999999966,-0.00048000000000003595,1742249814.045664
0.44999999999999996,-0.06000000000000005,-0.20499999999999996,0.0012199999999999989,0.0034199999999999786,-0.00048000000000003595,0.28,-0.15500000000000003,0.385,-0.00012000000000000899,-0.0007399999999999629,0.0027999999999999137,1742249814.159584
0.45500000000000007,-0.06000000000000005,-0.20999999999999996,0.002080000000000082,-0.0048799999999999955,-0.0031799999999999606,0.29000000000000004,-0.15000000000000002,0.3900000000000001,0.00048000000000003595,0.008920000000000039,0.0032999999999998586,1742249814.273429
0.45999999999999996,-0.06499999999999995,-0.20999999999999996,-0.0009799999999999809,-0.007200000000000095,-0.0024400000000001087,0.29000000000000004,-0.15000000000000002,0.375,-0.0037800000000000056,0.012320000000000109,0.010259999999999936,1742249814.387479
0.44999999999999996,-0.07000000000000006,-0.19999999999999996,-0.005120000000000013,-0.009639999999999982,-0.011480000000000046,0.29000000000000004,-0.14500000000000002,0.3700000000000001,-0.0012199999999999989,0.010860000000000092,0.0036599999999999966,1742249814.50366
0.44500000000000006,-0.07000000000000006,-0.19500000000000006,-0.0050000000000000044,-0.00660000000000005,-0.0040200000000000236,0.30000000000000004,-0.14,0.365,0.002080000000000082,0.004999999999999893,0.0012199999999999989,1742249814.615266
0.45500000000000007,-0.07499999999999996,-0.18500000000000005,0.00011999999999989797,-0.008419999999999983,0.0014600000000000168,0.30499999999999994,-0.14500000000000002,0.375,0.0013400000000001189,0.00048000000000003595,0.0017000000000000348,1742249814.7284548
0.45500000000000007,-0.07000000000000006,-0.18999999999999995,0.0032999999999998586,-0.0034199999999999786,-0.0012199999999999989,0.30000000000000004,-0.14,0.3700000000000001,0.0009799999999999809,0.0013400000000001189,0.0023200000000000998,1742249814.843423
0.44999999999999996,-0.07499999999999996,-0.18999999999999995,0.0009799999999999809,-0.0023200000000000998,-0.0014600000000000168,0.30499999999999994,-0.14,0.3700000000000001,0.0009799999999999809,-0.0009799999999999809,-0.0018400000000000638,1742249814.956502
0.45500000000000007,-0.07499999999999996,-0.18999999999999995,0.0007399999999999629,-0.0006199999999999539,0.0018400000000000638,0.30499999999999994,-0.14500000000000002,0.365,-0.0012199999999999989,-0.00048000000000003595,-0.0008599999999999719,1742249815.0705678
0.45500000000000007,-0.07499999999999996,-0.18500000000000005,-0.0006199999999999539,0.00024000000000001798,0.0006200000000000649,0.30000000000000004,-0.14500000000000002,0.3700000000000001,-0.00012000000000000899,-0.0018400000000000638,-0.0014600000000000168,1742249815.1862888
0.45500000000000007,-0.07000000000000006,-0.18500000000000005,0.00048000000000003595,0.00024000000000001798,0.0008600000000000829,0.30000000000000004,-0.14500000000000002,0.3700000000000001,0.0008600000000000829,-0.0031799999999999606,-0.00024000000000001798,1742249815.298514
0.45500000000000007,-0.07000000000000006,-0.18999999999999995,0.0025599999999998957,0.0006200000000000649,-0.00048000000000003595,0.30499999999999994,-0.14500000000000002,0.3700000000000001,0.0014600000000000168,-0.0039000000000000146,-0.0015800000000000258,1742249815.41252
0.45500000000000007,-0.07499999999999996,-0.18999999999999995,0.0018400000000000638,0.0045200000000000795,0.0007399999999999629,0.29499999999999993,-0.15000000000000002,0.375,-0.0010999999999999899,-0.0010999999999999899,-0.001960000000000073,1742249815.5265548
0.45500000000000007,-0.06499999999999995,-0.19500000000000006,0.00011999999999989797,0.0007399999999999629,0.0007399999999999629,0.30000000000000004,-0.14500000000000002,0.3700000000000001,-0.0010999999999999899,-0.0022000000000000908,-0.0013400000000000079,1742249815.640762
0.45500000000000007,-0.07000000000000006,-0.19500000000000006,0.0015800000000001369,0.0009799999999999809,0.00035999999999991594,0.29499999999999993,-0.15000000000000002,0.375,0.0007399999999999629,-0.0013400000000000079,-0.00036000000000002697,1742249815.7545102
0.45500000000000007,-0.07000000000000006,-0.19500000000000006,0.00048000000000003595,0.0015800000000001369,-0.00024000000000001798,0.29499999999999993,-0.14500000000000002,0.375,0.00011999999999989797,-0.00036000000000002697,0.00011999999999989797,1742249815.868236
0.44999999999999996,-0.07499999999999996,-0.19500000000000006,-0.0007399999999999629,0.0008600000000000829,-0.00024000000000001798,0.29499999999999993,-0.15000000000000002,0.375,-0.00036000000000002697,-0.0010999999999999899,-0.0009799999999999809,1742249815.982229
0.45500000000000007,-0.07000000000000006,-0.19500000000000006,0.00011999999999989797,0.0009799999999999809,-0.0008599999999999719,0.29499999999999993,-0.15000000000000002,0.375,0.0007399999999999629,-0.0010999999999999899,0.00024000000000001798,1742249816.095364
0.44999999999999996,-0.07000000000000006,-0.19500000000000006,-0.00036000000000002697,0.0034199999999999786,-0.0008599999999999719,0.29499999999999993,-0.14500000000000002,0.375,-0.0009799999999999809,-0.0037800000000000056,0.00035999999999991594,1742249816.209364
0.45500000000000007,-0.07000000000000006,-0.19500000000000006,0.002080000000000082,0.0018400000000000638,-0.0009799999999999809,0.29499999999999993,-0.15000000000000002,0.375,0.0015800000000001369,-0.00012000000000000899,-0.00036000000000002697,1742249816.323447
0.45500000000000007,-0.07000000000000006,-0.19500000000000006,0.001100000000000101,-0.0006199999999999539,0.00024000000000001798,0.29499999999999993,-0.15000000000000002,0.375,-0.0015800000000000258,-0.00012000000000000899,-0.00012000000000000899,1742249816.43745
0.45500000000000007,-0.07000000000000006,-0.19500000000000006,-0.0008599999999999719,0.0017000000000000348,-0.00024000000000001798,0.29499999999999993,-0.15000000000000002,0.375,-0.0008599999999999719,-0.00048000000000003595,0.00011999999999989797,1742249816.5513449
0.45500000000000007,-0.07000000000000006,-0.19500000000000006,0.00048000000000003595,0.00035999999999991594,-0.0010999999999999899,0.29499999999999993,-0.14500000000000002,0.375,0.00011999999999989797,0.0,0.0009799999999999809,1742249816.6651351
0.45500000000000007,-0.07000000000000006,-0.19500000000000006,0.002080000000000082,-0.0013400000000000079,-0.0014600000000000168,0.29499999999999993,-0.14500000000000002,0.3799999999999999,0.0,0.0013400000000001189,0.0006200000000000649,1742249816.781762
0.45999999999999996,-0.07000000000000006,-0.19999999999999996,0.00024000000000001798,-0.0014600000000000168,-0.0014600000000000168,0.30000000000000004,-0.15000000000000002,0.375,-0.0015800000000000258,0.006720000000000059,0.0030599999999998406,1742249816.891254
0.45500000000000007,-0.06499999999999995,-0.19500000000000006,-0.0025599999999998957,-0.0031799999999999606,-0.005120000000000013,0.30000000000000004,-0.14500000000000002,0.3700000000000001,-0.0026799999999999047,0.006220000000000114,0.00537999999999994,1742249817.005283
0.44999999999999996,-0.07499999999999996,-0.18999999999999995,-0.0030599999999999516,-0.0045199999999999685,-0.005739999999999967,0.30499999999999994,-0.14,0.3700000000000001,-0.0024400000000001087,0.0032999999999998586,0.0034199999999999786,1742249817.1231391
0.45500000000000007,-0.07999999999999996,-0.18500000000000005,-0.0010999999999999899,-0.0032999999999999696,-0.0037800000000000056,0.30499999999999994,-0.14,0.3700000000000001,-0.0023200000000000998,0.0026800000000000157,0.0023200000000000998,1742249817.23325
0.45500000000000007,-0.07499999999999996,-0.18500000000000005,-0.0009799999999999809,-0.001960000000000073,-0.0032999999999999696,0.30499999999999994,-0.135,0.3700000000000001,-0.0026799999999999047,0.0013400000000001189,0.0026800000000000157,1742249817.347255
0.44999999999999996,-0.08499999999999996,-0.18500000000000005,-0.0010999999999999899,-0.0010999999999999899,-0.0030599999999999516,0.30499999999999994,-0.135,0.3700000000000001,-0.0012199999999999989,-0.00024000000000001798,0.0013400000000001189,1742249817.462466
0.45500000000000007,-0.07999999999999996,-0.18999999999999995,0.0009799999999999809,-0.0007399999999999629,-0.0024400000000001087,0.30499999999999994,-0.13,0.3700000000000001,0.00011999999999989797,0.0008600000000000829,0.00048000000000003595,1742249817.5751512
0.45500000000000007,-0.08499999999999996,-0.18500000000000005,-0.0006199999999999539,0.00011999999999989797,0.00011999999999989797,0.30499999999999994,-0.14,0.3700000000000001,-0.0017000000000000348,-0.0009799999999999809,0.0017000000000000348,1742249817.688342
0.45500000000000007,-0.08499999999999996,-0.18999999999999995,-0.00036000000000002697,0.0006200000000000649,-0.0023200000000000998,0.30499999999999994,-0.13,0.3700000000000001,0.0008600000000000829,-0.0012199999999999989,0.0,1742249817.802891
0.44999999999999996,-0.08499999999999996,-0.18500000000000005,0.0009799999999999809,0.0009799999999999809,0.001100000000000101,0.30499999999999994,-0.135,0.375,0.0015800000000001369,-0.00048000000000003595,-0.0008599999999999719,1742249817.916373
0.45500000000000007,-0.07999999999999996,-0.18999999999999995,0.0007399999999999629,-0.00024000000000001798,0.00011999999999989797,0.30499999999999994,-0.135,0.375,0.0014600000000000168,-0.0010999999999999899,-0.0006199999999999539,1742249818.0303302
0.45500000000000007,-0.08499999999999996,-0.18500000000000005,0.0008600000000000829,0.0015800000000001369,0.001100000000000101,0.30499999999999994,-0.14,0.3700000000000001,0.002080000000000082,-0.0015800000000000258,-0.0015800000000000258,1742249818.144395
0.45500000000000007,-0.07999999999999996,-0.18500000000000005,0.00035999999999991594,0.0017000000000000348,0.0014600000000000168,0.30499999999999994,-0.135,0.3700000000000001,0.00035999999999991594,-0.00024000000000001798,-0.0010999999999999899,1742249818.2601202
0.45500000000000007,-0.07999999999999996,-0.18500000000000005,0.0,0.00035999999999991594,0.0013400000000001189,0.30499999999999994,-0.14,0.3700000000000001,0.00048000000000003595,-0.0025599999999998957,-0.0014600000000000168,1742249818.3723829
0.45500000000000007,-0.07499999999999996,-0.18999999999999995,0.0019599999999999618,0.0017000000000000348,0.00011999999999989797,0.30499999999999994,-0.135,0.375,0.001100000000000101,-0.0006199999999999539,-0.00036000000000002697,1742249818.486358
0.45500000000000007,-0.07999999999999996,-0.18999999999999995,0.0024399999999999977,-0.00012000000000000899,0.00048000000000003595,0.30499999999999994,-0.14,0.375,-0.00036000000000002697,-0.0013400000000000079,-0.0006199999999999539,1742249818.602139
0.45500000000000007,-0.07499999999999996,-0.18999999999999995,0.00024000000000001798,0.00035999999999991594,-0.0007399999999999629,0.30499999999999994,-0.14,0.3700000000000001,-0.00024000000000001798,-0.0012199999999999989,-0.00024000000000001798,1742249818.7144792
0.45500000000000007,-0.07999999999999996,-0.18999999999999995,0.0013400000000001189,0.00048000000000003595,-0.00024000000000001798,0.30000000000000004,-0.14,0.375,-0.0008599999999999719,-0.00012000000000000899,-0.0006199999999999539,1742249818.828439
0.45500000000000007,-0.07499999999999996,-0.18999999999999995,0.0006200000000000649,0.00048000000000003595,0.00024000000000001798,0.30000000000000004,-0.14,0.375,-0.0007399999999999629,-0.0009799999999999809,0.0,1742249818.942233
0.45500000000000007,-0.07999999999999996,-0.18999999999999995,-0.00024000000000001798,0.0008600000000000829,-0.0007399999999999629,0.30499999999999994,-0.14,0.375,0.0007399999999999629,-0.0009799999999999809,-0.0017000000000000348,1742249819.056378
0.45500000000000007,-0.07499999999999996,-0.18999999999999995,0.0018400000000000638,0.00048000000000003595,0.0014600000000000168,0.30000000000000004,-0.14,0.375,-0.0006199999999999539,0.00048000000000003595,-0.00012000000000000899,1742249819.170269
0.45500000000000007,-0.07499999999999996,-0.19500000000000006,-0.00012000000000000899,0.0006200000000000649,-0.0006199999999999539,0.30000000000000004,-0.14,0.375,-0.0007399999999999629,-0.00012000000000000899,-0.00048000000000003595,1742249819.284437
0.45500000000000007,-0.07999999999999996,-0.19500000000000006,-0.00024000000000001798,0.00011999999999989797,0.0009799999999999809,0.30000000000000004,-0.14,0.375,-0.0009799999999999809,0.00035999999999991594,-0.00048000000000003595,1742249819.398278
0.45500000000000007,-0.07499999999999996,-0.18999999999999995,-0.0008599999999999719,0.0006200000000000649,-0.00024000000000001798,0.30000000000000004,-0.14,0.375,0.00024000000000001798,-0.00036000000000002697,-0.0007399999999999629,1742249819.512395
0.45500000000000007,-0.07499999999999996,-0.18999999999999995,0.00035999999999991594,-0.00012000000000000899,0.0,0.30000000000000004,-0.14,0.375,-0.00048000000000003595,-0.0015800000000000258,-0.00048000000000003595,1742249819.626369
0.45500000000000007,-0.07499999999999996,-0.18999999999999995,0.0015800000000001369,0.00035999999999991594,-0.00024000000000001798,0.30000000000000004,-0.14,0.3700000000000001,0.0018400000000000638,0.0,-0.0023200000000000998,1742249819.742195
0.45500000000000007,-0.07499999999999996,-0.18999999999999995,0.0008600000000000829,0.0,0.0026800000000000157,0.29499999999999993,-0.14,0.375,0.00024000000000001798,-0.00048000000000003595,-0.0010999999999999899,1742249819.8542678
0.45500000000000007,-0.07499999999999996,-0.19500000000000006,0.0007399999999999629,-0.00048000000000003595,0.00035999999999991594,0.29499999999999993,-0.14,0.3799999999999999,0.001100000000000101,-0.00024000000000001798,-0.00024000000000001798,1742249819.968249
0.44999999999999996,-0.07499999999999996,-0.18999999999999995,0.0014600000000000168,0.0,0.00048000000000003595,0.29499999999999993,-0.14500000000000002,0.3799999999999999,0.00024000000000001798,-0.0009799999999999809,-0.00036000000000002697,1742249820.0822551
0.45500000000000007,-0.07499999999999996,-0.19500000000000006,-0.00024000000000001798,0.00048000000000003595,-0.00048000000000003595,0.29499999999999993,-0.14500000000000002,0.375,0.00011999999999989797,-0.0007399999999999629,0.00024000000000001798,1742249820.196173
0.45500000000000007,-0.07499999999999996,-0.19500000000000006,-0.00036000000000002697,0.00011999999999989797,-0.0013400000000000079,0.30000000000000004,-0.14500000000000002,0.375,-0.00048000000000003595,0.0,0.00024000000000001798,1742249820.310187
0.45500000000000007,-0.07499999999999996,-0.19500000000000006,0.00024000000000001798,0.0,-0.0015800000000000258,0.30000000000000004,-0.14500000000000002,0.375,-0.00012000000000000899,0.001100000000000101,0.00035999999999991594,1742249820.424192
0.45500000000000007,-0.07499999999999996,-0.18999999999999995,-0.0009799999999999809,-0.0010999999999999899,-0.0014600000000000168,0.30000000000000004,-0.14500000000000002,0.375,-0.0006199999999999539,-0.0007399999999999629,0.0015800000000001369,1742249820.538822
0.45500000000000007,-0.07499999999999996,-0.19500000000000006,0.00024000000000001798,0.0009799999999999809,-0.002080000000000082,0.30000000000000004,-0.14,0.375,-0.00036000000000002697,0.0006200000000000649,0.0009799999999999809,1742249820.652195
0.45500000000000007,-0.07499999999999996,-0.18999999999999995,0.0008600000000000829,-0.0012199999999999989,-0.001960000000000073,0.30000000000000004,-0.14,0.375,-0.0022000000000000908,0.0,0.00011999999999989797,1742249820.7660549
0.45500000000000007,-0.07499999999999996,-0.19500000000000006,0.0,-0.00036000000000002697,-0.0018400000000000638,0.30000000000000004,-0.14,0.375,-0.00048000000000003595,0.00048000000000003595,0.0008600000000000829,1742249820.8821278
0.44999999999999996,-0.07999999999999996,-0.19500000000000006,0.00011999999999989797,0.00024000000000001798,-0.0009799999999999809,0.30000000000000004,-0.14,0.375,-0.0014600000000000168,-0.00036000000000002697,0.001100000000000101,1742249820.993154
0.45500000000000007,-0.07999999999999996,-0.19500000000000006,0.0007399999999999629,-0.00012000000000000899,-0.0010999999999999899,0.30000000000000004,-0.14,0.375,0.00011999999999989797,-0.0015800000000000258,0.00048000000000003595,1742249821.107061
0.45500000000000007,-0.07999999999999996,-0.19500000000000006,-0.00012000000000000899,0.00048000000000003595,-0.0010999999999999899,0.30000000000000004,-0.14,0.375,-0.00024000000000001798,-0.0017000000000000348,0.0009799999999999809,1742249821.2211049
0.44999999999999996,-0.07499999999999996,-0.18999999999999995,0.0013400000000001189,0.0,-0.0014600000000000168,0.29499999999999993,-0.14,0.375,0.00035999999999991594,-0.0006199999999999539,-0.00036000000000002697,1742249821.334192
0.44999999999999996,-0.07499999999999996,-0.19500000000000006,0.0009799999999999809,0.00011999999999989797,-0.0006199999999999539,0.30000000000000004,-0.14,0.3799999999999999,-0.0008599999999999719,-0.0010999999999999899,-0.00036000000000002697,1742249821.4482849
0.45500000000000007,-0.07999999999999996,-0.19500000000000006,0.00035999999999991594,0.0019599999999999618,-0.00036000000000002697,0.30000000000000004,-0.135,0.375,-0.00024000000000001798,-0.0007399999999999629,0.00048000000000003595,1742249821.562133
0.45500000000000007,-0.07999999999999996,-0.19500000000000006,0.0013400000000001189,0.0006200000000000649,-0.0008599999999999719,0.30000000000000004,-0.14,0.375,0.0008600000000000829,0.00035999999999991594,0.00035999999999991594,1742249821.6759622
0.45500000000000007,-0.07999999999999996,-0.19500000000000006,0.0006200000000000649,-0.0014600000000000168,-0.00036000000000002697,0.29499999999999993,-0.14,0.375,0.0008600000000000829,0.0,0.00024000000000001798,1742249821.788978
0.45500000000000007,-0.07999999999999996,-0.18999999999999995,0.00035999999999991594,-0.0022000000000000908,-0.0008599999999999719,0.30000000000000004,-0.14,0.375,0.0007399999999999629,-0.00024000000000001798,-0.0006199999999999539,1742249821.902184
0.45500000000000007,-0.07499999999999996,-0.19500000000000006,0.0009799999999999809,-0.001960000000000073,0.0,0.30000000000000004,-0.14,0.375,0.0009799999999999809,0.0023200000000000998,-0.00024000000000001798,1742249822.016043
0.45500000000000007,-0.07499999999999996,-0.18999999999999995,0.0007399999999999629,-0.0029199999999999227,0.0,0.30000000000000004,-0.14,0.375,-0.00024000000000001798,0.001100000000000101,0.00048000000000003595,1742249822.1290612
0.45500000000000007,-0.07999999999999996,-0.18999999999999995,0.0,-0.001960000000000073,-0.0012199999999999989,0.30000000000000004,-0.135,0.375,-0.00012000000000000899,0.001100000000000101,-0.00024000000000001798,1742249822.242147
0.45500000000000007,-0.07999999999999996,-0.18500000000000005,0.00024000000000001798,-0.0012199999999999989,0.001100000000000101,0.30000000000000004,-0.14500000000000002,0.375,0.0006200000000000649,0.00024000000000001798,-0.0006199999999999539,1742249822.356065
0.45500000000000007,-0.07499999999999996,-0.18999999999999995,0.00024000000000001798,-0.00024000000000001798,-0.0008599999999999719,0.30000000000000004,-0.14,0.375,0.00011999999999989797,-0.00036000000000002697,-0.00048000000000003595,1742249822.4691489
0.45500000000000007,-0.07999999999999996,-0.18999999999999995,0.00048000000000003595,-0.00048000000000003595,0.00048000000000003595,0.30000000000000004,-0.14,0.375,0.0013400000000001189,-0.0008599999999999719,-0.0015800000000000258,1742249822.583136
0.45500000000000007,-0.07499999999999996,-0.18500000000000005,0.0012199999999999989,0.00048000000000003595,0.001100000000000101,0.30000000000000004,-0.14500000000000002,0.375,0.0,-0.00012000000000000899,-0.00024000000000001798,1742249822.697141
0.45500000000000007,-0.07499999999999996,-0.18999999999999995,-0.0012199999999999989,0.001100000000000101,-0.0009799999999999809,0.30000000000000004,-0.14,0.3700000000000001,0.00024000000000001798,-0.0012199999999999989,-0.00048000000000003595,1742249822.811098
0.45500000000000007,-0.07999999999999996,-0.18999999999999995,-0.00024000000000001798,0.0019599999999999618,0.0006200000000000649,0.30000000000000004,-0.14500000000000002,0.375,0.0009799999999999809,-0.00024000000000001798,-0.00012000000000000899,1742249822.925152
0.45500000000000007,-0.07499999999999996,-0.18999999999999995,-0.00024000000000001798,-0.00036000000000002697,0.00011999999999989797,0.30000000000000004,-0.14,0.375,-0.0010999999999999899,-0.00048000000000003595,-0.00048000000000003595,1742249823.0417678
0.45500000000000007,-0.07499999999999996,-0.18999999999999995,-0.0010999999999999899,0.00048000000000003595,0.00011999999999989797,0.29499999999999993,-0.14,0.375,-0.00024000000000001798,-0.0015800000000000258,0.0008600000000000829,1742249823.153173
0.44999999999999996,-0.07499999999999996,-0.19500000000000006,-0.008919999999999928,0.0024399999999999977,0.0012199999999999989,0.29499999999999993,-0.14500000000000002,0.3700000000000001,0.007940000000000058,0.0031799999999999606,-0.0008599999999999719,1742249823.267041
0.45500000000000007,-0.07999999999999996,-0.18999999999999995,-0.009639999999999982,0.0025599999999998957,-0.0046399999999999775,0.29499999999999993,-0.15000000000000002,0.3700000000000001,0.0026800000000000157,0.0015800000000001369,0.0014600000000000168,1742249823.380289
0.45500000000000007,-0.07499999999999996,-0.19500000000000006,0.0,-0.002080000000000082,-0.001960000000000073,0.30499999999999994,-0.14,0.3700000000000001,-0.00660000000000005,0.002080000000000082,-0.0029199999999999227,1742249823.493093
