L-AccX,L-AccY,L-AccZ,L-GyrX,L-GyrY,L-GyrZ,R-AccX,R-AccY,R-AccZ,R-GyrX,R-GyrY,R-GyrZ,timestamp
-0.125,0.2549999999999999,-0.485,0.016720000000000068,-0.06518000000000002,-0.0697000000000001,-0.42500000000000004,-0.21499999999999997,0.33499999999999996,0.08288000000000006,0.05030000000000001,0.058339999999999836,1742248614.173177
-0.015000000000000013,0.20999999999999996,-0.37,-0.0010999999999999899,-0.03308,-0.08287999999999995,-0.355,-0.21999999999999997,0.30000000000000004,-0.06164000000000003,0.08972000000000002,0.06006,1742248614.287276
-0.06000000000000005,0.18999999999999995,-0.44500000000000006,-0.05896000000000001,-0.022820000000000062,-0.04271999999999998,-0.28,-0.17000000000000004,0.29000000000000004,-0.06446000000000007,0.036619999999999875,-0.03625999999999996,1742248614.401716
-0.010000000000000009,0.22999999999999998,-0.4099999999999999,-0.07591999999999999,0.03272000000000008,0.01097999999999999,-0.30000000000000004,-0.19999999999999996,0.33000000000000007,-0.04418,0.017220000000000013,-0.0697000000000001,1742248614.522419
-0.05500000000000005,0.2749999999999999,-0.45500000000000007,-0.053220000000000045,0.04735999999999985,-0.032340000000000035,-0.33000000000000007,-0.235,0.29499999999999993,-0.051019999999999954,-0.020379999999999954,-0.008419999999999983,1742248614.629526
-0.08999999999999997,0.21999999999999997,-0.44999999999999996,-0.05479999999999996,0.04638000000000009,-0.053340000000000054,-0.355,-0.16000000000000003,0.33499999999999996,-0.04515999999999998,-0.006099999999999994,0.00782000000000016,1742248614.7434392
-0.07000000000000006,0.19999999999999996,-0.47,-0.018059999999999965,0.007940000000000058,-0.049679999999999946,-0.355,-0.14500000000000002,0.3500000000000001,-0.02636000000000005,0.02416000000000018,0.04479999999999995,1742248614.861526
-0.06000000000000005,0.16500000000000004,-0.5,0.0019599999999999618,-0.03503999999999996,-0.07740000000000002,-0.32499999999999996,-0.16000000000000003,0.3799999999999999,-0.048960000000000004,0.037959999999999994,0.04418000000000011,1742248614.9712498
-0.025000000000000022,0.1299999999999999,-0.485,-0.05506,-0.005859999999999976,-0.07323999999999997,-0.28,-0.10999999999999999,0.3799999999999999,-0.05065999999999993,0.04809999999999981,0.025880000000000125,1742248615.085299
-0.025000000000000022,0.09499999999999997,-0.44500000000000006,-0.046499999999999986,0.013539999999999885,-0.05932000000000004,-0.24,-0.10499999999999998,0.355,-0.033440000000000025,0.0027999999999999137,-0.0007399999999999629,1742248615.201613
-0.010000000000000009,0.10499999999999998,-0.485,-0.01990000000000003,0.022820000000000062,-0.03539999999999999,-0.275,-0.13,0.395,-0.02954000000000001,-0.006720000000000059,0.0017000000000000348,1742248615.313371
-0.010000000000000009,0.135,-0.49,-0.013299999999999979,0.014899999999999913,-0.04747999999999997,-0.275,-0.14,0.395,-0.01855999999999991,-0.013419999999999987,0.034660000000000135,1742248615.427377
-0.020000000000000018,0.125,-0.49,-0.005739999999999967,0.0017000000000000348,-0.0858199999999999,-0.2849999999999999,-0.13,0.3799999999999999,-0.025519999999999987,-0.010499999999999954,0.04688000000000003,1742248615.542741
-0.020000000000000018,0.08000000000000007,-0.4650000000000001,0.002080000000000082,0.011360000000000037,-0.08118000000000003,-0.26,-0.07999999999999996,0.3900000000000001,-0.01208000000000009,-0.0075599999999999,0.03516000000000008,1742248615.661429
-0.015000000000000013,0.05499999999999994,-0.5,0.0014600000000000168,-0.0006199999999999539,0.0,-0.265,-0.11499999999999999,0.405,-0.0010999999999999899,0.017819999999999947,-0.03272000000000008,1742248615.769374
0.0,0.11499999999999999,-0.49,0.0039000000000000146,-0.011840000000000073,0.00878000000000001,-0.265,-0.14500000000000002,0.395,-0.0036599999999999966,0.008539999999999992,-0.0017000000000000348,1742248615.883327
0.0,0.10499999999999998,-0.5,0.0032999999999998586,-0.00660000000000005,-0.015020000000000033,-0.28,-0.135,0.3999999999999999,-0.0037800000000000056,0.0007399999999999629,0.010000000000000009,1742248616.006272
-0.0050000000000000044,0.08499999999999996,-0.48,-0.0017000000000000348,-0.011360000000000037,-0.014900000000000024,-0.27,-0.125,0.405,-0.0031799999999999606,-0.007080000000000086,0.0018400000000000638,1742248616.111434
-0.015000000000000013,0.08499999999999996,-0.49,-0.007080000000000086,0.011479999999999935,0.021600000000000064,-0.255,-0.08999999999999997,0.395,-0.02966000000000002,0.00537999999999994,-0.05479999999999996,1742248616.2253702
-0.0050000000000000044,0.135,-0.505,-0.009159999999999946,0.02966000000000002,0.07153999999999994,-0.30000000000000004,-0.13,0.4099999999999999,-0.00048000000000003595,-0.027959999999999985,-0.019039999999999946,1742248616.341055
-0.030000000000000027,0.10499999999999998,-0.5,-0.014039999999999941,0.009400000000000075,0.01758000000000015,-0.28,-0.07000000000000006,0.3900000000000001,0.007079999999999975,-0.009639999999999982,0.01648000000000005,1742248616.4532852
-0.040000000000000036,0.05499999999999994,-0.48,-0.005240000000000022,0.0007399999999999629,0.04370000000000007,-0.275,-0.06499999999999995,0.375,0.011479999999999935,-0.006960000000000077,-0.04394000000000009,1742248616.5672598
-0.050000000000000044,0.09000000000000008,-0.5,-0.0023200000000000998,0.01317999999999997,0.07201999999999997,-0.33499999999999996,-0.09499999999999997,0.395,0.006720000000000059,-0.022700000000000053,-0.0393,1742248616.681288
-0.07000000000000006,0.1100000000000001,-0.52,0.012460000000000138,0.0030599999999998406,0.01415999999999995,-0.32499999999999996,-0.07000000000000006,0.395,0.0048799999999999955,-0.0027999999999999137,0.0009799999999999809,1742248616.801077
-0.05500000000000005,0.08499999999999996,-0.49,-0.0017000000000000348,0.0036599999999999966,0.018320000000000114,-0.30000000000000004,-0.06000000000000005,0.3799999999999999,0.007560000000000011,-0.001960000000000073,-0.01427999999999996,1742248616.909276
-0.04500000000000004,0.10499999999999998,-0.485,0.01537999999999995,-0.0009799999999999809,0.012460000000000138,-0.32499999999999996,-0.09499999999999997,0.375,0.010140000000000038,-0.005979999999999985,-0.005120000000000013,1742248617.023238
-0.06499999999999995,0.09499999999999997,-0.495,0.006099999999999994,0.006099999999999994,-0.0009799999999999809,-0.32499999999999996,-0.06499999999999995,0.3700000000000001,-0.00770000000000004,-0.010619999999999963,-0.008919999999999928,1742248617.1413188
-0.06499999999999995,0.10000000000000009,-0.49,0.006099999999999994,0.008539999999999992,0.0007399999999999629,-0.33000000000000007,-0.07499999999999996,0.3700000000000001,0.00024000000000001798,-0.009759999999999991,-0.0048799999999999955,1742248617.2512808
-0.07000000000000006,0.10499999999999998,-0.49,0.0017000000000000348,0.0029200000000000337,-0.0041599999999999415,-0.32000000000000006,-0.06499999999999995,0.3700000000000001,-0.0013400000000000079,-0.006460000000000021,0.004999999999999893,1742248617.3652768
-0.07000000000000006,0.10499999999999998,-0.485,0.006220000000000114,0.0013400000000001189,-0.0018400000000000638,-0.32499999999999996,-0.06000000000000005,0.365,0.005120000000000013,-0.0046399999999999775,0.0009799999999999809,1742248617.4807
-0.07000000000000006,0.10499999999999998,-0.49,0.011840000000000073,0.0045200000000000795,-0.0007399999999999629,-0.33000000000000007,-0.06499999999999995,0.3700000000000001,0.007440000000000113,-0.010619999999999963,0.00011999999999989797,1742248617.59325
-0.07000000000000006,0.1200000000000001,-0.49,0.006960000000000077,0.0045200000000000795,-0.0025599999999998957,-0.3400000000000001,-0.07999999999999996,0.365,0.006099999999999994,-0.0050000000000000044,0.0048799999999999955,1742248617.707188
-0.07499999999999996,0.11499999999999999,-0.49,0.009279999999999955,0.0,-0.0006199999999999539,-0.345,-0.07999999999999996,0.3700000000000001,0.0042800000000000615,-0.0023200000000000998,0.0032999999999998586,1742248617.821155
-0.07499999999999996,0.11499999999999999,-0.48,0.005859999999999976,-0.0042799999999999505,0.0013400000000001189,-0.32499999999999996,-0.06000000000000005,0.355,0.013539999999999885,-0.006340000000000012,-0.0006199999999999539,1742248617.940264
-0.07000000000000006,0.1200000000000001,-0.48,0.022580000000000044,0.0042800000000000615,0.00770000000000004,-0.345,-0.08999999999999997,0.355,0.02210000000000001,-0.006099999999999994,-0.006720000000000059,1742248618.049204
-0.06499999999999995,0.1299999999999999,-0.48,0.017940000000000067,-0.0042799999999999505,0.0026800000000000157,-0.3400000000000001,-0.09499999999999997,0.3500000000000001,0.016839999999999966,-0.0046399999999999775,-0.0027999999999999137,1742248618.163264
-0.07000000000000006,0.135,-0.49,0.014639999999999986,0.00011999999999989797,0.00537999999999994,-0.355,-0.10999999999999999,0.3500000000000001,0.006220000000000114,-0.0045199999999999685,-0.0027999999999999137,1742248618.279983
-0.07499999999999996,0.1499999999999999,-0.485,0.0032999999999998586,-0.0034199999999999786,-0.0015800000000000258,-0.3400000000000001,-0.09499999999999997,0.3500000000000001,0.0032999999999998586,0.00550000000000006,0.0023200000000000998,1742248618.390924
-0.06000000000000005,0.14000000000000012,-0.475,0.005120000000000013,-0.001960000000000073,0.0043999999999999595,-0.3400000000000001,-0.10999999999999999,0.3400000000000001,0.0037799999999998946,0.0007399999999999629,-0.0042799999999999505,1742248618.5050838
-0.06499999999999995,0.14000000000000012,-0.485,0.0030599999999998406,-0.00036000000000002697,0.0029200000000000337,-0.3400000000000001,-0.09499999999999997,0.345,0.00035999999999991594,0.0031799999999999606,-0.009039999999999937,1742248618.620016
-0.06499999999999995,0.1299999999999999,-0.475,-0.001960000000000073,0.0046399999999999775,0.021120000000000028,-0.33499999999999996,-0.09499999999999997,0.3500000000000001,0.010000000000000009,-0.008059999999999956,-0.010000000000000009,1742248618.733178
-0.06499999999999995,0.15999999999999992,-0.47,0.014399999999999968,0.00865999999999989,0.0035399999999998766,-0.35,-0.11499999999999999,0.345,0.00782000000000016,-0.015739999999999976,0.00865999999999989,1742248618.8470662
-0.07999999999999996,0.15500000000000003,-0.48,0.0012199999999999989,0.00865999999999989,-0.006340000000000012,-0.355,-0.08999999999999997,0.3400000000000001,-0.0013400000000000079,-0.0036599999999999966,0.0027999999999999137,1742248618.961132
-0.07999999999999996,0.1299999999999999,-0.47,0.0034199999999999786,0.0021999999999999797,0.0048799999999999955,-0.33499999999999996,-0.07999999999999996,0.33499999999999996,0.007560000000000011,-0.0014600000000000168,-0.009159999999999946,1742248619.075166
-0.07000000000000006,0.135,-0.47,0.010860000000000092,0.00782000000000016,0.03956000000000004,-0.32499999999999996,-0.08499999999999996,0.33000000000000007,0.02404000000000006,0.0017000000000000348,-0.036739999999999995,1742248619.189051
-0.09499999999999997,0.19500000000000006,-0.48,0.013299999999999867,0.012820000000000054,0.02171999999999996,-0.39,-0.13,0.33499999999999996,0.013419999999999987,-0.03917999999999999,0.01097999999999999,1742248619.3032022
-0.12,0.16999999999999993,-0.48,-0.0015800000000000258,0.0027999999999999137,-0.012820000000000054,-0.37,-0.08499999999999996,0.32000000000000006,-0.0050000000000000044,0.0023200000000000998,0.01195999999999997,1742248619.4208698
-0.10999999999999999,0.1499999999999999,-0.45999999999999996,-0.0018400000000000638,0.0026800000000000157,-0.0043999999999999595,-0.365,-0.08499999999999996,0.31499999999999995,0.00011999999999989797,-0.0012199999999999989,-0.00878000000000001,1742248619.531168
-0.09999999999999998,0.16500000000000004,-0.4650000000000001,0.005239999999999911,0.00537999999999994,0.0039000000000000146,-0.37,-0.09999999999999998,0.32000000000000006,-0.001960000000000073,0.0007399999999999629,-0.007940000000000058,1742248619.645164
-0.10499999999999998,0.15999999999999992,-0.4650000000000001,0.0009799999999999809,0.0037799999999998946,-0.0023200000000000998,-0.375,-0.09499999999999997,0.32000000000000006,-0.0008599999999999719,-0.0031799999999999606,-0.0015800000000000258,1742248619.760972
-0.11499999999999999,0.16500000000000004,-0.47,0.0021999999999999797,-0.0032999999999999696,0.002080000000000082,-0.375,-0.09499999999999997,0.32000000000000006,0.0031799999999999606,-0.0006199999999999539,0.0018400000000000638,1742248619.8732722
-0.10499999999999998,0.1499999999999999,-0.45500000000000007,0.0045200000000000795,-0.0026799999999999047,0.007079999999999975,-0.36,-0.08999999999999997,0.31499999999999995,0.006460000000000132,0.00024000000000001798,-0.00782000000000005,1742248619.9870908
-0.09999999999999998,0.16500000000000004,-0.47,0.007319999999999993,0.00035999999999991594,0.011840000000000073,-0.375,-0.11499999999999999,0.32000000000000006,0.0046399999999999775,-0.0036599999999999966,-0.006220000000000003,1742248620.104832
-0.09499999999999997,0.16500000000000004,-0.47,-0.002080000000000082,-0.0007399999999999629,0.0041599999999999415,-0.375,-0.10499999999999998,0.32000000000000006,-0.0008599999999999719,0.0040199999999999125,-0.0030599999999999516,1742248620.220713
-0.09999999999999998,0.15999999999999992,-0.4650000000000001,-0.0022000000000000908,-0.0015800000000000258,0.0014600000000000168,-0.375,-0.09999999999999998,0.32000000000000006,-0.002080000000000082,0.0009799999999999809,-0.0030599999999999516,1742248620.331108
-0.10999999999999999,0.16500000000000004,-0.4650000000000001,-0.0012199999999999989,-0.0035399999999999876,0.0007399999999999629,-0.37,-0.08999999999999997,0.32000000000000006,0.00048000000000003595,-0.0007399999999999629,-0.006099999999999994,1742248620.445699
-0.10999999999999999,0.15999999999999992,-0.4650000000000001,0.0027999999999999137,0.0026800000000000157,0.017079999999999984,-0.37,-0.08999999999999997,0.32000000000000006,0.009160000000000057,-0.006099999999999994,-0.009759999999999991,1742248620.563222
-0.10499999999999998,0.16999999999999993,-0.45999999999999996,0.00550000000000006,0.0012199999999999989,0.008059999999999956,-0.38,-0.09999999999999998,0.31499999999999995,0.005740000000000078,-0.0032999999999999696,-0.0030599999999999516,1742248620.67309
-0.10499999999999998,0.16999999999999993,-0.4650000000000001,0.0024399999999999977,-0.00012000000000000899,0.001100000000000101,-0.375,-0.09499999999999997,0.31499999999999995,0.0017000000000000348,-0.0007399999999999629,-0.00024000000000001798,1742248620.787113
-0.10499999999999998,0.15999999999999992,-0.45999999999999996,-0.00012000000000000899,-0.0015800000000000258,0.0025599999999998957,-0.36,-0.08499999999999996,0.31000000000000005,0.004999999999999893,-0.0010999999999999899,-0.006720000000000059,1742248620.901092
-0.10499999999999998,0.1499999999999999,-0.45999999999999996,0.0037799999999998946,0.0042800000000000615,0.022580000000000044,-0.365,-0.08999999999999997,0.31000000000000005,0.009759999999999991,-0.005859999999999976,-0.02403999999999995,1742248621.020479
-0.12,0.17500000000000004,-0.45999999999999996,0.005619999999999958,0.010000000000000009,0.02966000000000002,-0.385,-0.10499999999999998,0.31000000000000005,0.01110000000000011,-0.011960000000000082,-0.014519999999999977,1742248621.1290948
-0.12,0.16999999999999993,-0.4650000000000001,0.01305999999999985,0.007079999999999975,0.009640000000000093,-0.385,-0.08999999999999997,0.31000000000000005,0.008539999999999992,-0.0039000000000000146,-0.005739999999999967,1742248621.243079
-0.125,0.15999999999999992,-0.45999999999999996,0.00865999999999989,-0.0012199999999999989,-0.00024000000000001798,-0.38,-0.08499999999999996,0.30499999999999994,0.0006200000000000649,0.00770000000000004,-0.007320000000000104,1742248621.360439
-0.13,0.15500000000000003,-0.45999999999999996,-0.012460000000000027,-0.0008599999999999719,0.030160000000000187,-0.385,-0.07000000000000006,0.31499999999999995,-0.014639999999999986,0.04370000000000007,-0.06689999999999996,1742248621.471107
-0.135,0.1499999999999999,-0.49,-0.0907,0.018440000000000012,0.12695999999999996,-0.36,-0.06000000000000005,0.345,-0.040159999999999973,0.06407999999999991,-0.09105999999999992,1742248621.585077
-0.12,0.09000000000000008,-0.44500000000000006,-0.06823999999999997,0.007560000000000011,0.07250000000000001,-0.32499999999999996,-0.020000000000000018,0.32000000000000006,0.014639999999999986,0.00035999999999991594,-0.0013400000000000079,1742248621.700293
-0.15500000000000003,0.05499999999999994,-0.45999999999999996,0.03198000000000012,0.01770000000000005,-0.012700000000000045,-0.36,-0.0050000000000000044,0.33000000000000007,0.026859999999999884,-0.0393,0.0017000000000000348,1742248621.81303
-0.18500000000000005,0.040000000000000036,-0.44999999999999996,0.015619999999999967,0.0034199999999999786,0.012700000000000156,-0.365,0.020000000000000018,0.32499999999999996,0.017079999999999984,-0.024780000000000024,-0.04724000000000006,1742248621.926974
-0.21999999999999997,0.09000000000000008,-0.44999999999999996,-0.022820000000000062,0.027839999999999865,0.13256,-0.4,-0.06000000000000005,0.33000000000000007,0.02942,0.0015800000000001369,-0.09777999999999998,1742248622.041835
-0.20499999999999996,0.09499999999999997,-0.45500000000000007,0.045539999999999914,-0.020259999999999945,0.07359999999999989,-0.36,-0.015000000000000013,0.31000000000000005,0.05090000000000017,-0.015020000000000033,-0.01855999999999991,1742248622.160137
-0.21999999999999997,0.050000000000000044,-0.485,0.05261999999999989,0.01966000000000001,0.048699999999999966,-0.39,0.014999999999999902,0.32000000000000006,0.025640000000000107,-0.03173999999999999,-0.008919999999999928,1742248622.269036
-0.19500000000000006,0.010000000000000009,-0.45500000000000007,0.033320000000000016,0.04956000000000005,0.06567999999999996,-0.39,0.014999999999999902,0.2849999999999999,-0.031240000000000046,-0.031000000000000028,-0.016960000000000086,1742248622.3830678
-0.19999999999999996,0.040000000000000036,-0.4650000000000001,-0.027959999999999985,-0.002080000000000082,0.13476,-0.475,-0.010000000000000009,0.31000000000000005,0.03747999999999996,-0.05944000000000005,0.01550000000000007,1742248622.5002592
-0.235,0.0,-0.48,0.020140000000000047,-0.05003999999999997,0.05848000000000009,-0.385,-0.030000000000000027,0.23499999999999988,0.024780000000000024,-0.025519999999999987,-0.006720000000000059,1742248622.611126
-0.22999999999999998,0.04499999999999993,-0.42500000000000004,-0.02076,-0.005979999999999985,0.05908000000000002,-0.39,-0.03500000000000003,0.29499999999999993,0.007079999999999975,0.0030599999999998406,0.02320000000000011,1742248622.724872
-0.19999999999999996,0.020000000000000018,-0.42999999999999994,0.0623800000000001,0.009279999999999955,0.020019999999999927,-0.4,-0.020000000000000018,0.25,0.09094000000000002,0.0034199999999999786,0.012460000000000138,1742248622.839787
-0.235,-0.010000000000000009,-0.42500000000000004,0.02198000000000011,0.010739999999999972,0.013679999999999914,-0.41999999999999993,-0.010000000000000009,0.27,0.012199999999999989,-0.030019999999999936,-0.033440000000000025,1742248622.953082
-0.245,-0.025000000000000022,-0.395,-0.06053999999999993,-0.0027999999999999137,0.06469999999999998,-0.41500000000000004,0.010000000000000009,0.24,-0.014639999999999986,-0.009159999999999946,-0.06835999999999998,1742248623.066996
-0.25,0.050000000000000044,-0.43500000000000005,0.0031799999999999606,0.04516000000000009,0.04468000000000005,-0.45500000000000007,-0.025000000000000022,0.27,0.04968000000000017,-0.0040200000000000236,-0.0041599999999999415,1742248623.1809971
-0.265,0.040000000000000036,-0.44500000000000006,-0.005120000000000013,0.0019599999999999618,0.006720000000000059,-0.43500000000000005,-0.030000000000000027,0.27,0.051140000000000185,0.02391999999999994,0.012199999999999989,1742248623.299333
-0.29000000000000004,0.010000000000000009,-0.43500000000000005,0.010259999999999936,-0.023799999999999932,-0.008179999999999965,-0.43999999999999995,-0.015000000000000013,0.26,0.012700000000000156,0.0037799999999998946,0.0027999999999999137,1742248623.408928
-0.27,-0.010000000000000009,-0.43999999999999995,-0.0041599999999999415,0.0029200000000000337,-0.0050000000000000044,-0.405,0.0,0.2749999999999999,-0.024660000000000015,0.026000000000000023,-0.0018400000000000638,1742248623.522939
-0.265,0.02499999999999991,-0.42999999999999994,0.0027999999999999137,-0.0012199999999999989,0.005980000000000096,-0.44999999999999996,-0.030000000000000027,0.2650000000000001,0.013419999999999987,0.0041599999999999415,0.0014600000000000168,1742248623.640358
-0.26,0.014999999999999902,-0.41999999999999993,-0.0039000000000000146,-0.029779999999999918,0.005239999999999911,-0.4,-0.025000000000000022,0.2549999999999999,0.014399999999999968,0.015740000000000087,0.015020000000000033,1742248623.74979
-0.25,0.010000000000000009,-0.42999999999999994,0.00035999999999991594,-0.01085999999999998,0.0021999999999999797,-0.42500000000000004,-0.03500000000000003,0.2849999999999999,0.005740000000000078,0.0031799999999999606,0.0018400000000000638,1742248623.862804
-0.22999999999999998,0.010000000000000009,-0.45999999999999996,0.0014600000000000168,-0.02734000000000003,-0.006340000000000012,-0.41999999999999993,-0.03500000000000003,0.30000000000000004,-0.0041599999999999415,0.028799999999999937,0.006720000000000059,1742248623.979798
-0.21999999999999997,0.004999999999999893,-0.43999999999999995,-0.011720000000000064,-0.025399999999999978,-0.008419999999999983,-0.38,-0.020000000000000018,0.2849999999999999,0.0039000000000000146,0.03980000000000006,0.007319999999999993,1742248624.090902
-0.22999999999999998,0.0,-0.43500000000000005,-0.008539999999999992,-0.01746000000000003,0.0021999999999999797,-0.395,-0.020000000000000018,0.30499999999999994,0.007560000000000011,0.029059999999999864,-0.0027999999999999137,1742248624.204934
-0.21999999999999997,-0.020000000000000018,-0.45999999999999996,0.0030599999999998406,-0.018059999999999965,0.01635999999999993,-0.365,-0.020000000000000018,0.31000000000000005,0.01770000000000005,0.018920000000000048,-0.0034199999999999786,1742248624.320338
-0.21499999999999997,0.030000000000000027,-0.43999999999999995,0.006460000000000132,0.0046399999999999775,0.009640000000000093,-0.38,-0.06499999999999995,0.31499999999999995,0.021479999999999944,-0.005619999999999958,0.00024000000000001798,1742248624.432964
-0.20999999999999996,0.020000000000000018,-0.43500000000000005,-0.02061999999999997,0.03492000000000006,0.008419999999999872,-0.375,-0.06499999999999995,0.30000000000000004,-0.0024400000000001087,-0.01537999999999995,0.0006200000000000649,1742248624.546913
-0.235,-0.0050000000000000044,-0.485,-0.005619999999999958,0.011719999999999953,0.00537999999999994,-0.4099999999999999,-0.050000000000000044,0.345,0.030160000000000187,0.014780000000000015,0.015139999999999931,1742248624.660769
-0.21999999999999997,-0.030000000000000027,-0.44999999999999996,0.0029200000000000337,-0.02624000000000004,0.0015800000000001369,-0.37,-0.04500000000000004,0.33499999999999996,-0.013539999999999996,0.0031799999999999606,-0.0008599999999999719,1742248624.7790852
-0.21999999999999997,0.010000000000000009,-0.45500000000000007,0.00878000000000001,-0.006340000000000012,-0.0034199999999999786,-0.38,-0.050000000000000044,0.32000000000000006,0.04370000000000007,-0.005739999999999967,0.005120000000000013,1742248624.888876
-0.22499999999999998,-0.0050000000000000044,-0.44999999999999996,0.01648000000000005,-0.005120000000000013,0.0045200000000000795,-0.375,-0.08999999999999997,0.32000000000000006,0.024540000000000006,-0.008419999999999983,0.0032999999999998586,1742248625.002872
-0.19999999999999996,0.020000000000000018,-0.44999999999999996,0.0043999999999999595,0.005120000000000013,0.0009799999999999809,-0.38,-0.09499999999999997,0.30000000000000004,-0.00036000000000002697,-0.0041599999999999415,0.0041599999999999415,1742248625.119089
-0.21499999999999997,0.020000000000000018,-0.44999999999999996,-0.02100000000000002,0.01635999999999993,-0.0027999999999999137,-0.375,-0.07499999999999996,0.30499999999999994,-0.0050000000000000044,0.0006200000000000649,0.0048799999999999955,1742248625.230882
-0.21999999999999997,-0.0050000000000000044,-0.45999999999999996,-0.0042799999999999505,0.0041599999999999415,-0.0031799999999999606,-0.38,-0.07000000000000006,0.31499999999999995,-0.0046399999999999775,-0.0015800000000000258,-0.0031799999999999606,1742248625.3450692
-0.21499999999999997,-0.0050000000000000044,-0.45500000000000007,0.0032999999999998586,-0.0025599999999998957,-0.005739999999999967,-0.385,-0.07999999999999996,0.32000000000000006,-0.011360000000000037,-0.0022000000000000908,-0.0036599999999999966,1742248625.459029
-0.21999999999999997,0.0,-0.45999999999999996,-0.00878000000000001,-0.00537999999999994,-0.009519999999999973,-0.38,-0.06499999999999995,0.31000000000000005,-0.01770000000000005,0.0046399999999999775,-0.00036000000000002697,1742248625.572869
-0.21499999999999997,-0.015000000000000013,-0.45999999999999996,-0.013799999999999923,0.0017000000000000348,-0.012580000000000036,-0.38,-0.05500000000000005,0.32000000000000006,-0.011240000000000028,0.007319999999999993,0.00024000000000001798,1742248625.68679
-0.21499999999999997,-0.0050000000000000044,-0.45999999999999996,-0.015139999999999931,-0.011480000000000046,-0.008179999999999965,-0.385,-0.06000000000000005,0.32000000000000006,-0.015499999999999958,0.016839999999999966,0.0024399999999999977,1742248625.8008
-0.21499999999999997,-0.015000000000000013,-0.45500000000000007,-0.014900000000000024,-0.008660000000000001,0.0013400000000001189,-0.37,-0.04500000000000004,0.32000000000000006,-0.008660000000000001,0.020999999999999908,0.00048000000000003595,1742248625.915284
-0.20499999999999996,-0.025000000000000022,-0.44999999999999996,-0.0042799999999999505,-0.006720000000000059,0.0046399999999999775,-0.355,-0.050000000000000044,0.32499999999999996,0.0012199999999999989,0.010860000000000092,-0.0041599999999999415,1742248626.028799
-0.20499999999999996,-0.030000000000000027,-0.45500000000000007,-0.0014600000000000168,0.007940000000000058,0.0036599999999999966,-0.365,-0.050000000000000044,0.345,0.0018400000000000638,-0.00770000000000004,-0.006099999999999994,1742248626.142984
-0.20499999999999996,-0.025000000000000022,-0.47,-0.0012199999999999989,0.0017000000000000348,-0.00036000000000002697,-0.37,-0.06000000000000005,0.3400000000000001,-0.00537999999999994,-0.00024000000000001798,-0.0009799999999999809,1742248626.258933
-0.21499999999999997,-0.025000000000000022,-0.44999999999999996,-0.0048799999999999955,-0.00048000000000003595,-0.0035399999999999876,-0.365,-0.050000000000000044,0.33000000000000007,-0.006960000000000077,-0.0032999999999999696,0.0019599999999999618,1742248626.371961
-0.20999999999999996,-0.030000000000000027,-0.45500000000000007,-0.0027999999999999137,0.008539999999999992,-0.005739999999999967,-0.37,-0.050000000000000044,0.33499999999999996,-0.006840000000000068,-0.0047599999999999865,-0.00012000000000000899,1742248626.485976
-0.20999999999999996,-0.030000000000000027,-0.45500000000000007,0.0034199999999999786,-0.008179999999999965,-0.0034199999999999786,-0.365,-0.04500000000000004,0.33000000000000007,-0.0037800000000000056,0.0015800000000001369,-0.0037800000000000056,1742248626.603581
-0.20999999999999996,-0.03500000000000003,-0.45500000000000007,-0.00770000000000004,-0.0007399999999999629,0.00782000000000016,-0.37,-0.040000000000000036,0.3400000000000001,-0.002080000000000082,-0.0015800000000000258,-0.005859999999999976,1742248626.713943
-0.21499999999999997,-0.03500000000000003,-0.45999999999999996,-0.0012199999999999989,-0.002080000000000082,-0.00024000000000001798,-0.37,-0.040000000000000036,0.33000000000000007,-0.00048000000000003595,0.0027999999999999137,-0.0009799999999999809,1742248626.827873
-0.20999999999999996,-0.03500000000000003,-0.44500000000000006,0.00024000000000001798,-0.0006199999999999539,0.0017000000000000348,-0.365,-0.040000000000000036,0.32499999999999996,0.005980000000000096,0.00024000000000001798,-0.0013400000000000079,1742248626.941788
-0.20999999999999996,-0.030000000000000027,-0.45500000000000007,-0.0007399999999999629,0.006220000000000114,0.0009799999999999809,-0.37,-0.04500000000000004,0.33499999999999996,0.0045200000000000795,-0.0030599999999999516,-0.0039000000000000146,1742248627.0558798
-0.20999999999999996,-0.03500000000000003,-0.4650000000000001,-0.005979999999999985,0.00035999999999991594,0.0034199999999999786,-0.37,-0.04500000000000004,0.33499999999999996,-0.0025599999999998957,0.00537999999999994,0.0006200000000000649,1742248627.1698072
-0.20499999999999996,-0.03500000000000003,-0.45500000000000007,-0.0015800000000000258,-0.0010999999999999899,-0.00048000000000003595,-0.36,-0.040000000000000036,0.33000000000000007,-0.0013400000000000079,0.0007399999999999629,0.00048000000000003595,1742248627.283811
-0.20499999999999996,-0.040000000000000036,-0.44999999999999996,-0.0025599999999998957,-0.0008599999999999719,-0.0023200000000000998,-0.365,-0.03500000000000003,0.33000000000000007,0.0,0.0006200000000000649,-0.0014600000000000168,1742248627.398655
-0.20999999999999996,-0.040000000000000036,-0.44999999999999996,0.00011999999999989797,0.005980000000000096,0.0,-0.37,-0.03500000000000003,0.33000000000000007,0.007440000000000113,-0.0035399999999999876,-0.0031799999999999606,1742248627.51188
-0.20999999999999996,-0.03500000000000003,-0.45500000000000007,0.0034199999999999786,0.007200000000000095,0.0024399999999999977,-0.37,-0.04500000000000004,0.33000000000000007,0.005120000000000013,-0.0023200000000000998,-0.0025599999999998957,1742248627.62591
-0.21499999999999997,-0.03500000000000003,-0.45500000000000007,-0.0010999999999999899,0.0027999999999999137,-0.00012000000000000899,-0.37,-0.04500000000000004,0.33000000000000007,0.00035999999999991594,-0.0015800000000000258,-0.00024000000000001798,1742248627.739868
-0.21999999999999997,-0.03500000000000003,-0.45500000000000007,-0.0035399999999999876,0.00048000000000003595,-0.0032999999999999696,-0.37,-0.040000000000000036,0.33000000000000007,-0.001960000000000073,-0.00036000000000002697,0.0009799999999999809,1742248627.8538911
-0.21499999999999997,-0.040000000000000036,-0.45500000000000007,-0.00048000000000003595,-0.00036000000000002697,-0.0013400000000000079,-0.37,-0.040000000000000036,0.33000000000000007,0.00024000000000001798,0.00035999999999991594,0.0,1742248627.967534
-0.21499999999999997,-0.03500000000000003,-0.44999999999999996,0.0008600000000000829,0.00048000000000003595,0.00048000000000003595,-0.37,-0.040000000000000036,0.33000000000000007,-0.0017000000000000348,0.0008600000000000829,-0.00012000000000000899,1742248628.082428
-0.21999999999999997,-0.040000000000000036,-0.44999999999999996,-0.00024000000000001798,-0.0009799999999999809,-0.00036000000000002697,-0.37,-0.040000000000000036,0.33000000000000007,-0.0007399999999999629,0.00011999999999989797,-0.00012000000000000899,1742248628.195531
-0.21499999999999997,-0.03500000000000003,-0.44999999999999996,0.0,0.0009799999999999809,-0.0015800000000000258,-0.37,-0.040000000000000036,0.33000000000000007,-0.0007399999999999629,0.0007399999999999629,-0.00036000000000002697,1742248628.308794
-0.20999999999999996,-0.030000000000000027,-0.45500000000000007,-0.0009799999999999809,0.0007399999999999629,-0.0017000000000000348,-0.375,-0.04500000000000004,0.33000000000000007,0.00048000000000003595,0.0023200000000000998,0.0007399999999999629,1742248628.4227111
-0.21499999999999997,-0.03500000000000003,-0.44999999999999996,0.00024000000000001798,0.0008600000000000829,-0.0024400000000001087,-0.37,-0.040000000000000036,0.33000000000000007,-0.0017000000000000348,-0.0006199999999999539,0.00024000000000001798,1742248628.541537
-0.21999999999999997,-0.040000000000000036,-0.44999999999999996,-0.0012199999999999989,0.0012199999999999989,-0.0009799999999999809,-0.37,-0.040000000000000036,0.33000000000000007,-0.002080000000000082,-0.0012199999999999989,-0.00036000000000002697,1742248628.650998
-0.21999999999999997,-0.040000000000000036,-0.44999999999999996,-0.0008599999999999719,0.001100000000000101,-0.00048000000000003595,-0.37,-0.040000000000000036,0.33000000000000007,-0.00036000000000002697,-0.00048000000000003595,-0.0013400000000000079,1742248628.76486
-0.21999999999999997,-0.03500000000000003,-0.44999999999999996,-0.002080000000000082,0.001100000000000101,-0.0009799999999999809,-0.37,-0.04500000000000004,0.33000000000000007,0.00024000000000001798,-0.00036000000000002697,0.0007399999999999629,1742248628.878706
-0.21999999999999997,-0.04500000000000004,-0.44500000000000006,-0.00036000000000002697,0.0015800000000001369,-0.0006199999999999539,-0.37,-0.040000000000000036,0.33499999999999996,-0.002080000000000082,-0.0027999999999999137,-0.0018400000000000638,1742248628.9928792
-0.21999999999999997,-0.040000000000000036,-0.45500000000000007,-0.0013400000000000079,-0.0024400000000001087,-0.001960000000000073,-0.37,-0.040000000000000036,0.33000000000000007,-0.0027999999999999137,0.0014600000000000168,0.0018400000000000638,1742248629.106699
-0.21999999999999997,-0.040000000000000036,-0.44500000000000006,-0.0023200000000000998,-0.00048000000000003595,-0.0026799999999999047,-0.37,-0.03500000000000003,0.33000000000000007,-0.0007399999999999629,-0.0007399999999999629,0.0008600000000000829,1742248629.220791
-0.21999999999999997,-0.040000000000000036,-0.44999999999999996,-0.00048000000000003595,0.0013400000000001189,0.0,-0.375,-0.040000000000000036,0.33000000000000007,-0.00048000000000003595,-0.0030599999999999516,-0.0015800000000000258,1742248629.339051
-0.21999999999999997,-0.04500000000000004,-0.44999999999999996,0.0019599999999999618,0.0015800000000001369,0.0014600000000000168,-0.37,-0.040000000000000036,0.33000000000000007,0.0006200000000000649,-0.0007399999999999629,-0.0015800000000000258,1742248629.448801
-0.21999999999999997,-0.040000000000000036,-0.44999999999999996,0.00024000000000001798,0.0025599999999998957,0.001100000000000101,-0.37,-0.03500000000000003,0.32499999999999996,0.0006200000000000649,-0.00036000000000002697,-0.0014600000000000168,1742248629.562785
-0.21999999999999997,-0.040000000000000036,-0.45500000000000007,-0.0017000000000000348,0.0031799999999999606,0.0008600000000000829,-0.375,-0.040000000000000036,0.33000000000000007,-0.0006199999999999539,0.00024000000000001798,-0.0009799999999999809,1742248629.679523
-0.21999999999999997,-0.040000000000000036,-0.44500000000000006,-0.0029199999999999227,-0.0017000000000000348,-0.00048000000000003595,-0.37,-0.030000000000000027,0.32499999999999996,0.0013400000000001189,-0.0017000000000000348,-0.0014600000000000168,1742248629.790795
-0.21999999999999997,-0.04500000000000004,-0.44999999999999996,-0.001960000000000073,0.0031799999999999606,0.0014600000000000168,-0.375,-0.03500000000000003,0.33499999999999996,0.00024000000000001798,0.00024000000000001798,-0.0041599999999999415,1742248629.9049
-0.21999999999999997,-0.040000000000000036,-0.45500000000000007,-0.00048000000000003595,-0.0046399999999999775,0.0024399999999999977,-0.375,-0.04500000000000004,0.33000000000000007,-0.0018400000000000638,0.0021999999999999797,-0.0014600000000000168,1742248630.019796
-0.21999999999999997,-0.040000000000000036,-0.44500000000000006,0.00011999999999989797,-0.0030599999999999516,-0.0009799999999999809,-0.37,-0.03500000000000003,0.33000000000000007,0.00035999999999991594,0.0017000000000000348,0.0007399999999999629,1742248630.13259
-0.21999999999999997,-0.04500000000000004,-0.44999999999999996,0.0014600000000000168,0.0007399999999999629,-0.00012000000000000899,-0.37,-0.03500000000000003,0.33499999999999996,-0.002080000000000082,-0.0009799999999999809,-0.00012000000000000899,1742248630.246911
-0.21999999999999997,-0.040000000000000036,-0.45500000000000007,0.0,0.00011999999999989797,-0.0012199999999999989,-0.37,-0.03500000000000003,0.33000000000000007,-0.002080000000000082,0.0024399999999999977,0.0009799999999999809,1742248630.3607109
-0.21999999999999997,-0.04500000000000004,-0.44500000000000006,-0.0009799999999999809,-0.0008599999999999719,-0.0023200000000000998,-0.37,-0.03500000000000003,0.33000000000000007,-0.001960000000000073,-0.00012000000000000899,0.00035999999999991594,1742248630.479408
-0.21999999999999997,-0.04500000000000004,-0.44999999999999996,-0.00036000000000002697,-0.0009799999999999809,-0.0010999999999999899,-0.37,-0.03500000000000003,0.33000000000000007,-0.0010999999999999899,0.0006200000000000649,0.0,1742248630.588671
-0.21999999999999997,-0.04500000000000004,-0.44999999999999996,-0.0013400000000000079,-0.00012000000000000899,-0.00024000000000001798,-0.37,-0.03500000000000003,0.33000000000000007,-0.0015800000000000258,0.00011999999999989797,-0.00024000000000001798,1742248630.702785
-0.21499999999999997,-0.04500000000000004,-0.44500000000000006,0.00048000000000003595,0.0029200000000000337,0.00011999999999989797,-0.375,-0.03500000000000003,0.33000000000000007,0.0040199999999999125,-0.0010999999999999899,-0.00012000000000000899,1742248630.81938
-0.22499999999999998,-0.050000000000000044,-0.44500000000000006,0.001100000000000101,0.0048799999999999955,0.0012199999999999989,-0.375,-0.040000000000000036,0.33499999999999996,-0.0030599999999999516,-0.0026799999999999047,-0.0025599999999998957,1742248630.930795
-0.22499999999999998,-0.04500000000000004,-0.45500000000000007,-0.00036000000000002697,0.0024399999999999977,-0.00048000000000003595,-0.375,-0.040000000000000036,0.33499999999999996,-0.0015800000000000258,-0.00024000000000001798,0.0006200000000000649,1742248631.044663
-0.22499999999999998,-0.050000000000000044,-0.44500000000000006,-0.002080000000000082,-0.00012000000000000899,-0.0014600000000000168,-0.37,-0.03500000000000003,0.32499999999999996,-0.0012199999999999989,-0.0017000000000000348,-0.00036000000000002697,1742248631.159125
-0.22499999999999998,-0.050000000000000044,-0.44999999999999996,-0.00012000000000000899,0.0014600000000000168,-0.0008599999999999719,-0.37,-0.030000000000000027,0.33499999999999996,-0.0015800000000000258,0.00048000000000003595,-0.0007399999999999629,1742248631.272675
-0.22499999999999998,-0.050000000000000044,-0.44999999999999996,-0.00024000000000001798,-0.0017000000000000348,0.00048000000000003595,-0.37,-0.03500000000000003,0.32499999999999996,0.00024000000000001798,-0.00048000000000003595,-0.00048000000000003595,1742248631.3866408
-0.22499999999999998,-0.04500000000000004,-0.44500000000000006,0.001100000000000101,0.0013400000000001189,-0.00012000000000000899,-0.37,-0.03500000000000003,0.33499999999999996,-0.00048000000000003595,-0.0024400000000001087,-0.0013400000000000079,1742248631.50078
-0.22499999999999998,-0.050000000000000044,-0.44999999999999996,-0.0010999999999999899,-0.0022000000000000908,-0.0018400000000000638,-0.37,-0.030000000000000027,0.33000000000000007,-0.0018400000000000638,0.0008600000000000829,0.0006200000000000649,1742248631.6180449
-0.22499999999999998,-0.050000000000000044,-0.44500000000000006,0.00024000000000001798,0.00048000000000003595,0.00011999999999989797,-0.37,-0.030000000000000027,0.33000000000000007,0.0012199999999999989,-0.0010999999999999899,-0.0012199999999999989,1742248631.7287118
-0.22499999999999998,-0.04500000000000004,-0.44500000000000006,0.001100000000000101,0.0006200000000000649,0.0013400000000001189,-0.375,-0.040000000000000036,0.33000000000000007,0.0006200000000000649,-0.00048000000000003595,-0.0010999999999999899,1742248631.84268
-0.21999999999999997,-0.04500000000000004,-0.44500000000000006,0.00024000000000001798,0.0008600000000000829,-0.0015800000000000258,-0.37,-0.03500000000000003,0.33000000000000007,-0.00012000000000000899,-0.0009799999999999809,-0.0007399999999999629,1742248631.958851
-0.22499999999999998,-0.04500000000000004,-0.44500000000000006,-0.0012199999999999989,-0.0006199999999999539,-0.0017000000000000348,-0.37,-0.03500000000000003,0.33000000000000007,0.0017000000000000348,-0.0007399999999999629,-0.00036000000000002697,1742248632.070708
-0.22499999999999998,-0.04500000000000004,-0.44999999999999996,0.0009799999999999809,0.0027999999999999137,0.00011999999999989797,-0.375,-0.040000000000000036,0.33000000000000007,0.0013400000000001189,0.0015800000000001369,0.00011999999999989797,1742248632.184427
-0.22499999999999998,-0.04500000000000004,-0.44500000000000006,0.00048000000000003595,-0.0009799999999999809,-0.00048000000000003595,-0.37,-0.040000000000000036,0.33000000000000007,-0.002080000000000082,-0.0009799999999999809,-0.00012000000000000899,1742248632.299086
-0.22499999999999998,-0.04500000000000004,-0.44999999999999996,-0.0006199999999999539,-0.005619999999999958,-0.0015800000000000258,-0.37,-0.03500000000000003,0.33000000000000007,-0.0007399999999999629,0.0,0.0008600000000000829,1742248632.412522
-0.22499999999999998,-0.050000000000000044,-0.44500000000000006,0.0009799999999999809,0.0017000000000000348,0.0,-0.37,-0.03500000000000003,0.33000000000000007,0.0021999999999999797,-0.0026799999999999047,-0.0009799999999999809,1742248632.526668
-0.22499999999999998,-0.04500000000000004,-0.44500000000000006,0.0014600000000000168,0.0023200000000000998,0.0019599999999999618,-0.37,-0.03500000000000003,0.33000000000000007,0.0025599999999998957,-0.0035399999999999876,-0.0013400000000000079,1742248632.64065
-0.22999999999999998,-0.04500000000000004,-0.44500000000000006,0.00048000000000003595,0.0039000000000000146,0.0012199999999999989,-0.375,-0.03500000000000003,0.33000000000000007,-0.0008599999999999719,-0.0029199999999999227,-0.0010999999999999899,1742248632.756444
-0.22499999999999998,-0.04500000000000004,-0.44999999999999996,-0.0006199999999999539,0.0,-0.0012199999999999989,-0.375,-0.03500000000000003,0.32499999999999996,-0.0025599999999998957,0.0021999999999999797,0.0006200000000000649,1742248632.8685691
-0.22499999999999998,-0.04500000000000004,-0.44500000000000006,-0.0012199999999999989,-0.00012000000000000899,-0.0009799999999999809,-0.37,-0.030000000000000027,0.32499999999999996,0.001100000000000101,0.00035999999999991594,-0.00036000000000002697,1742248632.982559
-0.22499999999999998,-0.04500000000000004,-0.44500000000000006,0.0007399999999999629,0.0,-0.00024000000000001798,-0.375,-0.03500000000000003,0.33000000000000007,0.0006200000000000649,0.00011999999999989797,-0.00012000000000000899,1742248633.096491
-0.22999999999999998,-0.040000000000000036,-0.43999999999999995,-0.0015800000000000258,0.00878000000000001,0.0006200000000000649,-0.38,-0.040000000000000036,0.32499999999999996,0.0040199999999999125,-0.0026799999999999047,0.0009799999999999809,1742248633.2106109
-0.22499999999999998,-0.05500000000000005,-0.44500000000000006,-0.0017000000000000348,0.0014600000000000168,0.0007399999999999629,-0.375,-0.03500000000000003,0.33000000000000007,0.00024000000000001798,-0.00048000000000003595,-0.0015800000000000258,1742248633.324681
-0.235,-0.04500000000000004,-0.44500000000000006,0.0026800000000000157,-0.00012000000000000899,0.002080000000000082,-0.37,-0.030000000000000027,0.32499999999999996,0.0006200000000000649,-0.0023200000000000998,-0.0023200000000000998,1742248633.43858
-0.22999999999999998,-0.03500000000000003,-0.44500000000000006,-0.0006199999999999539,-0.00024000000000001798,-0.0027999999999999137,-0.375,-0.03500000000000003,0.32499999999999996,0.0031799999999999606,-0.0022000000000000908,0.0009799999999999809,1742248633.55247
-0.22499999999999998,-0.05500000000000005,-0.43999999999999995,0.0009799999999999809,0.0008600000000000829,-0.0012199999999999989,-0.375,-0.03500000000000003,0.33000000000000007,0.00011999999999989797,-0.0012199999999999989,-0.0008599999999999719,1742248633.667389
-0.22999999999999998,-0.04500000000000004,-0.44500000000000006,0.0017000000000000348,-0.0012199999999999989,0.002080000000000082,-0.375,-0.03500000000000003,0.32000000000000006,0.0013400000000001189,0.00048000000000003595,0.00048000000000003595,1742248633.780421
-0.22999999999999998,-0.04500000000000004,-0.44500000000000006,0.0034199999999999786,0.0025599999999998957,0.0,-0.375,-0.03500000000000003,0.32499999999999996,0.00048000000000003595,-0.007440000000000002,0.0027999999999999137,1742248633.894502
-0.22999999999999998,-0.04500000000000004,-0.44500000000000006,0.005859999999999976,-0.0029199999999999227,0.0029200000000000337,-0.38,-0.030000000000000027,0.31000000000000005,-0.02624000000000004,-0.05113999999999996,-0.0009799999999999809,1742248634.008679
-0.21999999999999997,-0.050000000000000044,-0.44999999999999996,0.020019999999999927,-0.02198,0.0012199999999999989,-0.395,-0.025000000000000022,0.31000000000000005,-0.01648000000000005,-0.014399999999999968,-0.0045199999999999685,1742248634.1227
-0.21499999999999997,-0.03500000000000003,-0.45500000000000007,0.016240000000000032,-0.026739999999999986,-0.0035399999999999876,-0.4,-0.025000000000000022,0.29000000000000004,0.0014600000000000168,-0.0035399999999999876,0.0014600000000000168,1742248634.236597
-0.21499999999999997,-0.025000000000000022,-0.44999999999999996,0.012700000000000156,-0.013539999999999996,-0.0027999999999999137,-0.395,-0.025000000000000022,0.29000000000000004,0.005859999999999976,-0.00048000000000003595,0.009160000000000057,1742248634.3504782
-0.20999999999999996,-0.03500000000000003,-0.47,0.01097999999999999,-0.006220000000000003,-0.0024400000000001087,-0.41500000000000004,-0.025000000000000022,0.30499999999999994,0.009160000000000057,0.0037799999999998946,0.002080000000000082,1742248634.464399
-0.19999999999999996,-0.025000000000000022,-0.44999999999999996,0.01537999999999995,-0.01648000000000005,0.005859999999999976,-0.395,-0.04500000000000004,0.2849999999999999,0.010620000000000074,-0.00012000000000000899,-0.007440000000000002,1742248634.57857
-0.19999999999999996,-0.010000000000000009,-0.45500000000000007,0.009879999999999889,-0.006460000000000021,0.0047600000000000975,-0.4,-0.05500000000000005,0.29499999999999993,-0.014039999999999941,0.006220000000000114,-0.01427999999999996,1742248634.692607
-0.18999999999999995,0.0,-0.47,-0.013299999999999979,-0.0008599999999999719,-0.00048000000000003595,-0.405,-0.040000000000000036,0.31499999999999995,-0.01867999999999992,0.007440000000000113,-0.014519999999999977,1742248634.806571
-0.18500000000000005,-0.020000000000000018,-0.47,-0.03149999999999997,-0.0122000000000001,-0.0030599999999999516,-0.385,-0.0050000000000000044,0.31000000000000005,-0.022580000000000044,0.02391999999999994,-0.006840000000000068,1742248634.920634
-0.18500000000000005,-0.04500000000000004,-0.45999999999999996,-0.02100000000000002,-0.0041599999999999415,-0.0031799999999999606,-0.385,0.004999999999999893,0.32000000000000006,-0.01427999999999996,0.008419999999999872,-0.0048799999999999955,1742248635.034466
-0.18500000000000005,-0.050000000000000044,-0.4650000000000001,-0.008660000000000001,-0.0024400000000001087,0.0025599999999998957,-0.38,0.010000000000000009,0.31499999999999995,-0.0018400000000000638,0.0037799999999998946,-0.0030599999999999516,1742248635.148535
-0.17999999999999994,-0.050000000000000044,-0.45999999999999996,-0.0018400000000000638,0.0015800000000001369,0.0032999999999998586,-0.38,0.004999999999999893,0.31499999999999995,-0.0030599999999999516,-0.001960000000000073,-0.0042799999999999505,1742248635.26256
-0.18500000000000005,-0.040000000000000036,-0.4650000000000001,-0.001960000000000073,0.0015800000000001369,-0.0009799999999999809,-0.375,0.004999999999999893,0.31499999999999995,-0.0039000000000000146,-0.0026799999999999047,0.0007399999999999629,1742248635.378334
-0.18500000000000005,-0.04500000000000004,-0.4650000000000001,-0.0012199999999999989,0.0039000000000000146,-0.002080000000000082,-0.385,0.0,0.32000000000000006,0.0021999999999999797,-0.006340000000000012,0.0023200000000000998,1742248635.4905071
-0.18500000000000005,-0.04500000000000004,-0.4650000000000001,0.0023200000000000998,0.0021999999999999797,-0.0043999999999999595,-0.385,0.0,0.31499999999999995,0.00011999999999989797,-0.0015800000000000258,0.0029200000000000337,1742248635.604406
-0.18999999999999995,-0.05500000000000005,-0.4650000000000001,0.0017000000000000348,0.0029200000000000337,-0.002080000000000082,-0.385,0.0,0.31499999999999995,0.0006200000000000649,-0.0041599999999999415,0.0014600000000000168,1742248635.718472
-0.18999999999999995,-0.04500000000000004,-0.45999999999999996,0.005740000000000078,0.0042800000000000615,-0.00048000000000003595,-0.39,0.0,0.31000000000000005,0.009400000000000075,-0.00537999999999994,0.0029200000000000337,1742248635.831303
-0.19500000000000006,-0.050000000000000044,-0.47,0.009519999999999973,0.0031799999999999606,0.0025599999999998957,-0.395,-0.0050000000000000044,0.32000000000000006,0.009160000000000057,-0.006720000000000059,-0.0034199999999999786,1742248635.944554
-0.17999999999999994,-0.04500000000000004,-0.475,-0.0032999999999999696,-0.018919999999999937,0.007940000000000058,-0.38,-0.010000000000000009,0.31499999999999995,-0.017080000000000095,0.01428000000000007,-0.0122000000000001,1742248636.0610108
-0.19500000000000006,-0.03500000000000003,-0.44999999999999996,0.0012199999999999989,-0.010000000000000009,0.00550000000000006,-0.385,-0.0050000000000000044,0.30499999999999994,0.0023200000000000998,-0.011360000000000037,-0.0017000000000000348,1742248636.172535
-0.17999999999999994,-0.050000000000000044,-0.47,0.0030599999999998406,-0.0009799999999999809,-0.0030599999999999516,-0.39,0.004999999999999893,0.31499999999999995,-0.00012000000000000899,0.0034199999999999786,0.0029200000000000337,1742248636.286268
-0.17999999999999994,-0.050000000000000044,-0.47,0.0041599999999999415,-0.0029199999999999227,-0.00036000000000002697,-0.385,0.0,0.31499999999999995,0.0040199999999999125,0.0014600000000000168,0.0017000000000000348,1742248636.40017
-0.17999999999999994,-0.050000000000000044,-0.4650000000000001,0.0009799999999999809,0.0009799999999999809,0.0043999999999999595,-0.39,-0.0050000000000000044,0.31000000000000005,-0.0013400000000000079,-0.0010999999999999899,-0.0046399999999999775,1742248636.5136042
-0.18500000000000005,-0.04500000000000004,-0.4650000000000001,0.00011999999999989797,0.005120000000000013,-0.0008599999999999719,-0.39,-0.0050000000000000044,0.30499999999999994,0.00035999999999991594,-0.0017000000000000348,0.00035999999999991594,1742248636.6275342
-0.17999999999999994,-0.050000000000000044,-0.47,-0.0007399999999999629,0.0039000000000000146,-0.0029199999999999227,-0.39,0.004999999999999893,0.32000000000000006,0.0009799999999999809,0.0013400000000001189,0.0021999999999999797,1742248636.741185
-0.17500000000000004,-0.050000000000000044,-0.4650000000000001,0.0024399999999999977,-0.0012199999999999989,-0.0013400000000000079,-0.385,0.0,0.31000000000000005,0.00770000000000004,-0.0007399999999999629,0.00035999999999991594,1742248636.854308
-0.17999999999999994,-0.04500000000000004,-0.47,0.0034199999999999786,0.007200000000000095,0.0040199999999999125,-0.395,-0.010000000000000009,0.31000000000000005,0.0024399999999999977,-0.0026799999999999047,-0.0025599999999998957,1742248636.968523
-0.18500000000000005,-0.05500000000000005,-0.4650000000000001,-0.01097999999999999,0.004999999999999893,0.00537999999999994,-0.39,0.004999999999999893,0.31000000000000005,-0.009399999999999964,-0.005499999999999949,-0.010499999999999954,1742248637.083305
-0.17999999999999994,-0.04500000000000004,-0.45999999999999996,-0.00036000000000002697,-0.0018400000000000638,0.0031799999999999606,-0.395,0.004999999999999893,0.30499999999999994,0.0017000000000000348,0.002080000000000082,-0.0008599999999999719,1742248637.198522
-0.17999999999999994,-0.050000000000000044,-0.4650000000000001,-0.0017000000000000348,0.00024000000000001798,-0.0013400000000000079,-0.395,0.010000000000000009,0.31000000000000005,-0.001960000000000073,0.0018400000000000638,-0.0006199999999999539,1742248637.3104582
-0.18500000000000005,-0.05500000000000005,-0.47,-0.0047599999999999865,-0.00024000000000001798,-0.0026799999999999047,-0.39,0.0,0.31499999999999995,-0.006340000000000012,-0.0012199999999999989,0.0008600000000000829,1742248637.4242828
-0.18500000000000005,-0.04500000000000004,-0.4650000000000001,-0.0045199999999999685,0.013800000000000034,-0.019279999999999964,-0.38,0.010000000000000009,0.30499999999999994,0.006960000000000077,-0.00012000000000000899,0.010380000000000056,1742248637.5400162
-0.18999999999999995,-0.05500000000000005,-0.45999999999999996,0.0006200000000000649,0.0023200000000000998,-0.011240000000000028,-0.385,0.004999999999999893,0.30499999999999994,0.005980000000000096,0.007940000000000058,0.012700000000000156,1742248637.6521869
-0.19999999999999996,-0.050000000000000044,-0.44999999999999996,0.0008600000000000829,0.0024399999999999977,-0.006720000000000059,-0.385,0.004999999999999893,0.30499999999999994,0.007440000000000113,0.0006200000000000649,0.00770000000000004,1742248637.765173
-0.19500000000000006,-0.05500000000000005,-0.45999999999999996,0.009039999999999937,0.011840000000000073,-0.0014600000000000168,-0.39,-0.0050000000000000044,0.31000000000000005,0.02075999999999989,-0.006840000000000068,0.005740000000000078,1742248637.878517
-0.20499999999999996,-0.05500000000000005,-0.4650000000000001,0.006340000000000012,0.007319999999999993,0.006720000000000059,-0.39,-0.020000000000000018,0.31000000000000005,-0.00036000000000002697,-0.006960000000000077,-0.0030599999999999516,1742248637.9924889
-0.19999999999999996,-0.03500000000000003,-0.44999999999999996,0.009640000000000093,-0.00048000000000003595,0.0025599999999998957,-0.39,-0.015000000000000013,0.29499999999999993,-0.001960000000000073,-0.008419999999999983,-0.005739999999999967,1742248638.106517
-0.19999999999999996,-0.030000000000000027,-0.45999999999999996,0.0027999999999999137,0.0031799999999999606,0.00035999999999991594,-0.4,-0.015000000000000013,0.30499999999999994,0.0045200000000000795,-0.00036000000000002697,0.0007399999999999629,1742248638.220455
-0.20999999999999996,-0.040000000000000036,-0.44999999999999996,0.005120000000000013,0.0021999999999999797,-0.0014600000000000168,-0.39,-0.015000000000000013,0.30000000000000004,0.005859999999999976,-0.0035399999999999876,0.0006200000000000649,1742248638.337288
-0.20499999999999996,-0.03500000000000003,-0.45500000000000007,0.0029200000000000337,0.0014600000000000168,-0.00048000000000003595,-0.395,-0.015000000000000013,0.29499999999999993,0.0012199999999999989,0.0015800000000001369,0.0012199999999999989,1742248638.4482
-0.20499999999999996,-0.040000000000000036,-0.44999999999999996,0.002080000000000082,0.0012199999999999989,0.0017000000000000348,-0.395,-0.010000000000000009,0.29499999999999993,0.005239999999999911,-0.0024400000000001087,-0.001960000000000073,1742248638.562387
-0.21499999999999997,-0.03500000000000003,-0.4650000000000001,0.014899999999999913,-0.0036599999999999966,0.00537999999999994,-0.405,-0.010000000000000009,0.30000000000000004,0.0307599999999999,-0.005979999999999985,0.01208000000000009,1742248638.678519
-0.20999999999999996,-0.03500000000000003,-0.475,0.024780000000000024,-0.010259999999999936,0.009759999999999991,-0.395,-0.03500000000000003,0.30000000000000004,0.021479999999999944,-0.0232,0.007940000000000058,1742248638.790286
-0.18999999999999995,-0.015000000000000013,-0.43999999999999995,0.019160000000000066,0.0007399999999999629,-0.0031799999999999606,-0.4,-0.06000000000000005,0.2549999999999999,0.01868000000000003,-0.012460000000000027,0.0043999999999999595,1742248638.904345
-0.20999999999999996,0.0,-0.45999999999999996,0.020140000000000047,0.018059999999999965,-0.0034199999999999786,-0.41500000000000004,-0.050000000000000044,0.27,0.05090000000000017,-0.04370000000000007,0.01648000000000005,1742248639.0193548
-0.20499999999999996,-0.010000000000000009,-0.45999999999999996,0.014639999999999986,0.0035399999999998766,0.005859999999999976,-0.42999999999999994,-0.08499999999999996,0.26,-0.01648000000000005,0.017079999999999984,-0.0036599999999999966,1742248639.132433
-0.21999999999999997,0.010000000000000009,-0.44999999999999996,-0.0017000000000000348,0.0013400000000001189,-0.0024400000000001087,-0.45500000000000007,-0.08999999999999997,0.2749999999999999,-0.053100000000000036,0.009759999999999991,0.002080000000000082,1742248639.246312
-0.265,0.07499999999999996,-0.565,0.06481999999999988,-0.06872,-0.07458000000000009,-0.31000000000000005,-0.18500000000000005,0.32000000000000006,0.10277999999999987,0.02648000000000006,-0.01978000000000002,1742250045.0061598
-0.14500000000000002,0.11499999999999999,-0.43999999999999995,0.18823999999999996,-0.09105999999999992,-0.12988,-0.28,-0.15500000000000003,0.30000000000000004,-0.022460000000000035,0.02198000000000011,0.0024399999999999977,1742250045.116582
-0.14,0.17500000000000004,-0.41500000000000004,0.02171999999999996,0.012700000000000156,-0.05712000000000006,-0.385,-0.3400000000000001,0.32000000000000006,0.0009799999999999809,-0.021600000000000064,-0.017220000000000013,1742250045.230675
-0.08999999999999997,0.07000000000000006,-0.4099999999999999,0.03968000000000016,0.02210000000000001,-0.011360000000000037,-0.32000000000000006,-0.19500000000000006,0.355,-0.03846000000000005,-0.012460000000000027,-0.054200000000000026,1742250045.346195
-0.12,0.2250000000000001,-0.45500000000000007,-0.06628,0.024780000000000024,0.047599999999999865,-0.32499999999999996,-0.15000000000000002,0.345,-0.03808,-0.021240000000000037,-0.03308,1742250045.466468
-0.14,0.17500000000000004,-0.44999999999999996,-0.04932000000000003,0.011360000000000037,0.02733999999999992,-0.355,-0.13,0.345,-0.01427999999999996,-0.0035399999999999876,-0.005240000000000022,1742250045.572688
-0.16500000000000004,0.17500000000000004,-0.475,-0.0041599999999999415,-0.010739999999999972,0.00024000000000001798,-0.32499999999999996,-0.125,0.3400000000000001,-0.03760000000000008,0.0007399999999999629,0.012320000000000109,1742250045.687653
-0.14,0.15500000000000003,-0.47,-0.008059999999999956,-0.03698000000000001,-0.01855999999999991,-0.29499999999999993,-0.09999999999999998,0.31000000000000005,-0.03260000000000007,-0.016720000000000068,-0.018320000000000003,1742250045.805886
-0.10999999999999999,0.15999999999999992,-0.41500000000000004,-0.031000000000000028,0.002080000000000082,0.01550000000000007,-0.35,-0.125,0.33499999999999996,-0.0037800000000000056,-0.021240000000000037,-0.0075599999999999,1742250045.914868
-0.13,0.16999999999999993,-0.4650000000000001,-0.008059999999999956,0.02171999999999996,0.011239999999999917,-0.36,-0.13,0.33499999999999996,0.00024000000000001798,0.0015800000000001369,-0.0006199999999999539,1742250046.0285492
-0.13,0.15999999999999992,-0.4650000000000001,0.005619999999999958,0.0019599999999999618,-0.0010999999999999899,-0.38,-0.12,0.355,0.023440000000000127,0.014520000000000088,0.012700000000000156,1742250046.147052
-0.135,0.17999999999999994,-0.495,0.01868000000000003,-0.012460000000000027,-0.01305999999999996,-0.31000000000000005,-0.125,0.33499999999999996,0.04174000000000011,-0.018320000000000003,0.017079999999999984,1742250046.256546
-0.11499999999999999,0.16500000000000004,-0.44999999999999996,0.05346000000000006,-0.024419999999999997,-0.029179999999999984,-0.33499999999999996,-0.14500000000000002,0.30499999999999994,0.0026800000000000157,-0.01537999999999995,-0.00660000000000005,1742250046.37059
-0.125,0.18999999999999995,-0.42999999999999994,0.0019599999999999618,0.00550000000000006,0.0009799999999999809,-0.355,-0.13,0.32499999999999996,-0.03320000000000001,-0.017080000000000095,-0.02307999999999999,1742250046.485392
-0.13,0.15999999999999992,-0.45999999999999996,-0.03210000000000002,0.04188000000000014,0.02540000000000009,-0.365,-0.125,0.31499999999999995,-0.008919999999999928,-0.0075599999999999,-0.021600000000000064,1742250046.6054258
-0.14,0.17999999999999994,-0.45500000000000007,-0.02403999999999995,0.012199999999999989,0.022460000000000147,-0.37,-0.125,0.32000000000000006,-0.005240000000000022,-0.0034199999999999786,-0.007200000000000095,1742250046.712677
-0.14500000000000002,0.17999999999999994,-0.45500000000000007,-0.005979999999999985,0.0025599999999998957,0.01317999999999997,-0.37,-0.12,0.31499999999999995,-0.00537999999999994,0.004999999999999893,-0.0023200000000000998,1742250046.828543
-0.15500000000000003,0.16999999999999993,-0.44999999999999996,-0.0075599999999999,0.014780000000000015,0.00024000000000001798,-0.36,-0.11499999999999999,0.33000000000000007,0.0040199999999999125,0.011600000000000055,-0.002080000000000082,1742250046.94629
-0.15000000000000002,0.15999999999999992,-0.4650000000000001,0.005239999999999911,-0.00036000000000002697,0.005120000000000013,-0.36,-0.12,0.32499999999999996,-0.0017000000000000348,0.0032999999999998586,-0.0015800000000000258,1742250047.054584
-0.16000000000000003,0.16500000000000004,-0.44999999999999996,0.002080000000000082,-0.0025599999999998957,0.005740000000000078,-0.355,-0.11499999999999999,0.33000000000000007,-0.009759999999999991,0.0042800000000000615,-0.012319999999999998,1742250047.168511
-0.15500000000000003,0.15500000000000003,-0.44999999999999996,-0.018059999999999965,0.0026800000000000157,0.010620000000000074,-0.35,-0.11499999999999999,0.32499999999999996,-0.005979999999999985,0.005859999999999976,-0.0047599999999999865,1742250047.286176
-0.16500000000000004,0.15500000000000003,-0.44999999999999996,-0.01867999999999992,0.008059999999999956,0.005619999999999958,-0.35,-0.10499999999999998,0.33000000000000007,-0.0040200000000000236,-0.00660000000000005,-0.0041599999999999415,1742250047.396585
-0.16000000000000003,0.14500000000000002,-0.45500000000000007,-0.016240000000000032,0.015020000000000033,0.00537999999999994,-0.355,-0.09999999999999998,0.33000000000000007,-0.0015800000000000258,-0.007200000000000095,-0.006840000000000068,1742250047.5105789
-0.17000000000000004,0.14000000000000012,-0.45500000000000007,-0.00024000000000001798,0.008920000000000039,0.0048799999999999955,-0.38,-0.11499999999999999,0.32000000000000006,0.008059999999999956,-0.020499999999999963,-0.0039000000000000146,1742250047.625162
-0.17500000000000004,0.14000000000000012,-0.44999999999999996,0.0029200000000000337,0.01746000000000003,0.006340000000000012,-0.37,-0.09999999999999998,0.32499999999999996,0.005120000000000013,-0.007200000000000095,-0.00012000000000000899,1742250047.744473
-0.18500000000000005,0.15999999999999992,-0.45500000000000007,0.0018400000000000638,0.005239999999999911,0.006340000000000012,-0.36,-0.08999999999999997,0.31000000000000005,-0.009639999999999982,0.005619999999999958,-0.00988,1742250047.8539038
-0.17999999999999994,0.125,-0.42999999999999994,-0.00012000000000000899,-0.006220000000000003,0.027839999999999865,-0.375,-0.10499999999999998,0.33499999999999996,-0.0035399999999999876,0.0012199999999999989,-0.0034199999999999786,1742250047.967456
-0.18999999999999995,0.14500000000000002,-0.4650000000000001,0.0006200000000000649,0.0007399999999999629,0.008920000000000039,-0.37,-0.09499999999999997,0.31499999999999995,0.0029200000000000337,0.0035399999999998766,0.001100000000000101,1742250048.084728
-0.18500000000000005,0.125,-0.44500000000000006,0.008179999999999854,-0.010499999999999954,0.0006200000000000649,-0.375,-0.09999999999999998,0.32499999999999996,0.011719999999999953,-0.019399999999999973,0.008299999999999974,1742250048.1953568
-0.17999999999999994,0.14000000000000012,-0.45500000000000007,0.017220000000000013,-0.00660000000000005,0.006960000000000077,-0.365,-0.10999999999999999,0.31000000000000005,0.0009799999999999809,-0.0024400000000001087,0.0025599999999998957,1742250048.309348
-0.17500000000000004,0.1499999999999999,-0.44500000000000006,0.0040199999999999125,-0.010619999999999963,0.0009799999999999809,-0.37,-0.10999999999999999,0.30499999999999994,0.0015800000000001369,0.0031799999999999606,0.0018400000000000638,1742250048.425526
-0.17500000000000004,0.15500000000000003,-0.44500000000000006,0.0048799999999999955,-0.010259999999999936,0.0031799999999999606,-0.365,-0.10999999999999999,0.31000000000000005,-0.0012199999999999989,0.0029200000000000337,-0.0008599999999999719,1742250048.544637
-0.17000000000000004,0.15500000000000003,-0.44500000000000006,-0.0022000000000000908,-0.00024000000000001798,0.0026800000000000157,-0.375,-0.11499999999999999,0.31499999999999995,0.0024399999999999977,-0.00036000000000002697,0.0,1742250048.651438
-0.17500000000000004,0.1499999999999999,-0.44999999999999996,0.0031799999999999606,-0.0006199999999999539,-0.0006199999999999539,-0.37,-0.10999999999999999,0.31000000000000005,0.0035399999999998766,-0.001960000000000073,-0.0024400000000001087,1742250048.765441
-0.17000000000000004,0.1499999999999999,-0.44500000000000006,0.0018400000000000638,0.001100000000000101,0.007319999999999993,-0.38,-0.11499999999999999,0.31000000000000005,0.00048000000000003595,-0.0031799999999999606,-0.0029199999999999227,1742250048.88385
-0.17500000000000004,0.1499999999999999,-0.44999999999999996,-0.0015800000000000258,0.0048799999999999955,0.006220000000000114,-0.375,-0.10999999999999999,0.31000000000000005,-0.0007399999999999629,-0.00012000000000000899,-0.0010999999999999899,1742250048.99357
-0.17500000000000004,0.1499999999999999,-0.44999999999999996,0.00011999999999989797,-0.00012000000000000899,-0.00048000000000003595,-0.375,-0.10999999999999999,0.30499999999999994,0.00011999999999989797,0.0042800000000000615,-0.0024400000000001087,1742250049.1073549
-0.17500000000000004,0.14500000000000002,-0.44999999999999996,0.007560000000000011,-0.011480000000000046,0.00035999999999991594,-0.375,-0.10499999999999998,0.31000000000000005,-0.0035399999999999876,-0.00048000000000003595,-0.0035399999999999876,1742250049.227655
-0.17500000000000004,0.14500000000000002,-0.44999999999999996,0.0025599999999998957,-0.0022000000000000908,0.0024399999999999977,-0.375,-0.09999999999999998,0.31000000000000005,0.0023200000000000998,0.00048000000000003595,-0.0039000000000000146,1742250049.3352802
-0.17000000000000004,0.14000000000000012,-0.44999999999999996,0.0012199999999999989,0.0023200000000000998,0.005619999999999958,-0.37,-0.09999999999999998,0.30000000000000004,-0.014900000000000024,0.006599999999999939,-0.012460000000000027,1742250049.449499
-0.17500000000000004,0.135,-0.44500000000000006,-0.005859999999999976,0.009279999999999955,0.01550000000000007,-0.38,-0.09999999999999998,0.31499999999999995,-0.0037800000000000056,-0.009039999999999937,-0.006840000000000068,1742250049.563647
-0.17500000000000004,0.1499999999999999,-0.45500000000000007,0.0015800000000001369,0.007940000000000058,0.01110000000000011,-0.38,-0.08999999999999997,0.31000000000000005,0.00011999999999989797,0.0017000000000000348,-0.007320000000000104,1742250049.677269
-0.18999999999999995,0.135,-0.44999999999999996,0.0012199999999999989,-0.0015800000000000258,0.005740000000000078,-0.37,-0.08499999999999996,0.30000000000000004,0.0025599999999998957,-0.0040200000000000236,-0.006720000000000059,1742250049.7915132
-0.18500000000000005,0.14000000000000012,-0.43999999999999995,-0.0010999999999999899,0.0040199999999999125,0.008539999999999992,-0.38,-0.08499999999999996,0.30000000000000004,-0.0014600000000000168,-0.013799999999999923,-0.011480000000000046,1742250049.905559
-0.18999999999999995,0.125,-0.43999999999999995,-0.0014600000000000168,0.014639999999999986,0.015740000000000087,-0.39,-0.07999999999999996,0.31000000000000005,-0.010499999999999954,-0.00782000000000005,-0.008179999999999965,1742250050.024263
-0.20499999999999996,0.1299999999999999,-0.44500000000000006,0.008419999999999872,0.013419999999999987,0.01758000000000015,-0.395,-0.08999999999999997,0.30499999999999994,0.00035999999999991594,-0.0009799999999999809,-0.0075599999999999,1742250050.1333828
-0.20499999999999996,0.1499999999999999,-0.44500000000000006,-0.0015800000000000258,0.00011999999999989797,0.006220000000000114,-0.39,-0.07499999999999996,0.29499999999999993,-0.0029199999999999227,0.00035999999999991594,-0.0023200000000000998,1742250050.247357
-0.20499999999999996,0.1299999999999999,-0.43500000000000005,-0.0024400000000001087,-0.00012000000000000899,0.0008600000000000829,-0.39,-0.07499999999999996,0.29499999999999993,0.0006200000000000649,-0.0036599999999999966,-0.005499999999999949,1742250050.363716
-0.20499999999999996,0.1299999999999999,-0.43500000000000005,-0.00036000000000002697,0.0027999999999999137,0.00550000000000006,-0.39,-0.07999999999999996,0.29499999999999993,0.00011999999999989797,0.0006200000000000649,-0.0046399999999999775,1742250050.475277
-0.20999999999999996,0.135,-0.43999999999999995,0.00048000000000003595,0.0009799999999999809,0.0042800000000000615,-0.39,-0.07499999999999996,0.29000000000000004,0.0014600000000000168,-0.0010999999999999899,-0.0042799999999999505,1742250050.589386
-0.20999999999999996,0.1299999999999999,-0.43500000000000005,-0.0006199999999999539,0.002080000000000082,0.005619999999999958,-0.395,-0.07499999999999996,0.29499999999999993,0.005619999999999958,-0.0039000000000000146,-0.0040200000000000236,1742250050.7061849
-0.21499999999999997,0.1299999999999999,-0.43999999999999995,-0.00024000000000001798,0.006839999999999957,0.008539999999999992,-0.4099999999999999,-0.07499999999999996,0.30000000000000004,-0.014900000000000024,0.01195999999999997,-0.0025599999999998957,1742250050.820693
-0.22999999999999998,0.125,-0.44999999999999996,-0.006099999999999994,0.00048000000000003595,0.02293999999999996,-0.375,-0.06499999999999995,0.29499999999999993,-0.0009799999999999809,0.0040199999999999125,-0.005619999999999958,1742250050.931401
-0.21999999999999997,0.1200000000000001,-0.42999999999999994,-0.0010999999999999899,-0.0007399999999999629,0.0048799999999999955,-0.395,-0.07499999999999996,0.29499999999999993,0.0013400000000001189,-0.0009799999999999809,-0.0024400000000001087,1742250051.045373
-0.22499999999999998,0.11499999999999999,-0.43500000000000005,-0.0018400000000000638,0.0041599999999999415,0.0045200000000000795,-0.4,-0.07000000000000006,0.30000000000000004,-0.0014600000000000168,0.0008600000000000829,-0.00012000000000000899,1742250051.16353
-0.22499999999999998,0.11499999999999999,-0.43999999999999995,-0.0007399999999999629,-0.00048000000000003595,-0.0022000000000000908,-0.39,-0.06499999999999995,0.29000000000000004,0.0039000000000000146,-0.0013400000000000079,0.00048000000000003595,1742250051.273303
-0.21999999999999997,0.1100000000000001,-0.42999999999999994,0.0008600000000000829,0.0009799999999999809,0.0,-0.39,-0.07000000000000006,0.30000000000000004,-0.0012199999999999989,-0.001960000000000073,-0.0014600000000000168,1742250051.387466
-0.22499999999999998,0.11499999999999999,-0.43999999999999995,-0.0006199999999999539,0.0026800000000000157,0.0026800000000000157,-0.395,-0.07000000000000006,0.29499999999999993,0.0007399999999999629,-0.0007399999999999629,0.0008600000000000829,1742250051.502888
-0.22499999999999998,0.1100000000000001,-0.43500000000000005,-0.0008599999999999719,0.0023200000000000998,-0.0014600000000000168,-0.395,-0.07000000000000006,0.29499999999999993,0.0023200000000000998,-0.0022000000000000908,-0.0027999999999999137,1742250051.615396
-0.22999999999999998,0.10499999999999998,-0.43500000000000005,0.0019599999999999618,0.0032999999999998586,0.0023200000000000998,-0.395,-0.07000000000000006,0.29499999999999993,-0.00024000000000001798,-0.0022000000000000908,-0.0022000000000000908,1742250051.7294002
-0.22999999999999998,0.11499999999999999,-0.43500000000000005,-0.0012199999999999989,0.0026800000000000157,0.0014600000000000168,-0.395,-0.07000000000000006,0.29000000000000004,-0.0013400000000000079,-0.0010999999999999899,-0.0008599999999999719,1742250051.843458
-0.22999999999999998,0.1100000000000001,-0.42999999999999994,-0.0022000000000000908,0.0024399999999999977,-0.00048000000000003595,-0.4,-0.07000000000000006,0.29499999999999993,0.0,-0.00048000000000003595,-0.00036000000000002697,1742250051.961996
-0.22999999999999998,0.10499999999999998,-0.43500000000000005,-0.0015800000000000258,0.0009799999999999809,-0.00024000000000001798,-0.4,-0.07000000000000006,0.29499999999999993,0.0012199999999999989,-0.0014600000000000168,-0.0006199999999999539,1742250052.071368
-0.22999999999999998,0.1100000000000001,-0.43500000000000005,0.00048000000000003595,0.002080000000000082,0.0008600000000000829,-0.4,-0.06499999999999995,0.29000000000000004,0.0,-0.00024000000000001798,0.00024000000000001798,1742250052.185254
-0.235,0.10499999999999998,-0.43500000000000005,-0.0008599999999999719,0.0007399999999999629,-0.0012199999999999989,-0.395,-0.06499999999999995,0.29000000000000004,0.00024000000000001798,-0.00048000000000003595,-0.0009799999999999809,1742250052.3022232
-0.235,0.10499999999999998,-0.42999999999999994,-0.00012000000000000899,0.00048000000000003595,0.0006200000000000649,-0.395,-0.07000000000000006,0.29000000000000004,0.00011999999999989797,0.00048000000000003595,-0.00012000000000000899,1742250052.413279
-0.235,0.10499999999999998,-0.43500000000000005,-0.0008599999999999719,-0.00012000000000000899,-0.0008599999999999719,-0.4,-0.07000000000000006,0.29000000000000004,-0.0013400000000000079,-0.00048000000000003595,-0.0007399999999999629,1742250052.527487
-0.235,0.10499999999999998,-0.43500000000000005,-0.0010999999999999899,0.0008600000000000829,-0.0006199999999999539,-0.4,-0.06499999999999995,0.29000000000000004,-0.0017000000000000348,-0.0039000000000000146,-0.0025599999999998957,1742250052.642163
-0.24,0.10000000000000009,-0.43500000000000005,-0.01415999999999995,0.0047600000000000975,0.006720000000000059,-0.395,-0.06499999999999995,0.29000000000000004,-0.0029199999999999227,-0.0015800000000000258,-0.0018400000000000638,1742250052.7553952
-0.22999999999999998,0.1100000000000001,-0.42999999999999994,-0.009759999999999991,0.0018400000000000638,0.0043999999999999595,-0.4,-0.07000000000000006,0.29000000000000004,-0.0022000000000000908,0.001100000000000101,-0.00036000000000002697,1742250052.869251
-0.235,0.10000000000000009,-0.43500000000000005,-0.005120000000000013,0.0017000000000000348,-0.0008599999999999719,-0.395,-0.06499999999999995,0.29000000000000004,0.0006200000000000649,-0.00036000000000002697,-0.0006199999999999539,1742250052.983262
-0.235,0.09499999999999997,-0.43500000000000005,-0.00036000000000002697,0.0008600000000000829,0.00035999999999991594,-0.4,-0.06499999999999995,0.29000000000000004,0.0021999999999999797,-0.0024400000000001087,-0.0017000000000000348,1742250053.101887
-0.24,0.09499999999999997,-0.43500000000000005,0.0,0.0029200000000000337,0.0008600000000000829,-0.4,-0.06499999999999995,0.29000000000000004,-0.0031799999999999606,0.0012199999999999989,-0.00024000000000001798,1742250053.2112682
-0.24,0.09499999999999997,-0.43500000000000005,-0.0009799999999999809,-0.0017000000000000348,-0.0007399999999999629,-0.4,-0.07000000000000006,0.29000000000000004,0.00048000000000003595,-0.0013400000000000079,-0.0009799999999999809,1742250053.325184
-0.24,0.09499999999999997,-0.43500000000000005,0.00035999999999991594,0.0009799999999999809,0.0006200000000000649,-0.4,-0.06499999999999995,0.29000000000000004,-0.0007399999999999629,-0.00024000000000001798,-0.0008599999999999719,1742250053.442515
-0.235,0.09499999999999997,-0.42999999999999994,0.0015800000000001369,-0.0008599999999999719,0.00024000000000001798,-0.395,-0.07000000000000006,0.29000000000000004,-0.0025599999999998957,-0.0009799999999999809,-0.0009799999999999809,1742250053.561814
-0.235,0.10000000000000009,-0.42999999999999994,0.00048000000000003595,-0.0007399999999999629,0.0006200000000000649,-0.395,-0.06499999999999995,0.29000000000000004,-0.0026799999999999047,0.0009799999999999809,0.0,1742250053.667135
-0.235,0.09499999999999997,-0.42999999999999994,-0.00012000000000000899,-0.0018400000000000638,-0.0017000000000000348,-0.4,-0.06499999999999995,0.29499999999999993,-0.0006199999999999539,-0.00036000000000002697,-0.0022000000000000908,1742250053.782172
-0.235,0.09000000000000008,-0.43500000000000005,0.0006200000000000649,-0.0009799999999999809,0.00035999999999991594,-0.4,-0.06499999999999995,0.29000000000000004,-0.0018400000000000638,-0.00012000000000000899,-0.0022000000000000908,1742250053.895369
-0.235,0.09499999999999997,-0.43500000000000005,-0.0006199999999999539,-0.0006199999999999539,0.0008600000000000829,-0.4,-0.06000000000000005,0.29000000000000004,0.00011999999999989797,-0.0010999999999999899,-0.0007399999999999629,1742250054.009206
-0.235,0.09499999999999997,-0.43500000000000005,-0.00012000000000000899,0.00024000000000001798,-0.00012000000000000899,-0.4,-0.06499999999999995,0.29000000000000004,0.0006200000000000649,-0.00048000000000003595,-0.00036000000000002697,1742250054.123279
-0.235,0.09499999999999997,-0.43500000000000005,-0.001960000000000073,0.00035999999999991594,0.0021999999999999797,-0.4,-0.06499999999999995,0.29499999999999993,0.0006200000000000649,-0.00024000000000001798,0.0,1742250054.241127
-0.235,0.10000000000000009,-0.43500000000000005,-0.0008599999999999719,0.00048000000000003595,-0.0012199999999999989,-0.4,-0.06000000000000005,0.29000000000000004,-0.0008599999999999719,-0.0013400000000000079,-0.00012000000000000899,1742250054.351365
-0.235,0.09499999999999997,-0.42999999999999994,-0.0006199999999999539,0.0019599999999999618,-0.00012000000000000899,-0.4,-0.06499999999999995,0.29499999999999993,-0.00012000000000000899,-0.002080000000000082,-0.0017000000000000348,1742250054.465354
-0.24,0.09000000000000008,-0.43500000000000005,-0.0015800000000000258,0.0019599999999999618,-0.00012000000000000899,-0.395,-0.06000000000000005,0.2849999999999999,-0.0035399999999999876,0.00048000000000003595,-0.00048000000000003595,1742250054.582399
-0.235,0.09499999999999997,-0.42999999999999994,-0.0039000000000000146,-0.0012199999999999989,-0.0029199999999999227,-0.4,-0.06000000000000005,0.29000000000000004,0.0006200000000000649,-0.0017000000000000348,-0.0007399999999999629,1742250054.6932218
-0.235,0.09000000000000008,-0.43999999999999995,-0.0017000000000000348,0.0032999999999998586,0.0,-0.4,-0.05500000000000005,0.29000000000000004,-0.0026799999999999047,-0.0012199999999999989,-0.0017000000000000348,1742250054.807254
-0.235,0.09000000000000008,-0.43500000000000005,-0.0023200000000000998,0.0017000000000000348,0.0007399999999999629,-0.405,-0.06499999999999995,0.29499999999999993,-0.0015800000000000258,-0.002080000000000082,-0.0013400000000000079,1742250054.921973
-0.24,0.09000000000000008,-0.43500000000000005,-0.0017000000000000348,0.0023200000000000998,0.00024000000000001798,-0.4,-0.05500000000000005,0.2849999999999999,0.00048000000000003595,-0.0006199999999999539,0.00024000000000001798,1742250055.035066
-0.24,0.09000000000000008,-0.42999999999999994,0.0,0.0029200000000000337,0.0,-0.4,-0.06000000000000005,0.29000000000000004,0.0012199999999999989,-0.0012199999999999989,-0.00048000000000003595,1742250055.14912
-0.24,0.09000000000000008,-0.43500000000000005,0.001100000000000101,0.0013400000000001189,0.00024000000000001798,-0.4,-0.06000000000000005,0.2849999999999999,0.0018400000000000638,0.00024000000000001798,0.0,1742250055.262954
-0.24,0.09000000000000008,-0.42999999999999994,0.0018400000000000638,0.0007399999999999629,-0.00036000000000002697,-0.405,-0.06000000000000005,0.29000000000000004,0.0012199999999999989,-0.00024000000000001798,-0.00012000000000000899,1742250055.381428
-0.24,0.09000000000000008,-0.43500000000000005,0.0019599999999999618,-0.00024000000000001798,-0.00048000000000003595,-0.4,-0.05500000000000005,0.2849999999999999,0.0009799999999999809,-0.0010999999999999899,-0.0007399999999999629,1742250055.491124
-0.24,0.09000000000000008,-0.42999999999999994,0.00024000000000001798,-0.00024000000000001798,-0.00012000000000000899,-0.405,-0.06499999999999995,0.29000000000000004,-0.0007399999999999629,-0.0015800000000000258,-0.00048000000000003595,1742250055.605244
-0.24,0.09499999999999997,-0.43500000000000005,0.00024000000000001798,0.0007399999999999629,-0.00024000000000001798,-0.405,-0.06000000000000005,0.2849999999999999,0.00048000000000003595,-0.0009799999999999809,-0.00012000000000000899,1742250055.719286
-0.24,0.09000000000000008,-0.42999999999999994,0.00035999999999991594,0.0023200000000000998,0.0,-0.4,-0.06000000000000005,0.29000000000000004,-0.0024400000000001087,-0.00012000000000000899,-0.0015800000000000258,1742250055.833248
-0.24,0.09000000000000008,-0.42999999999999994,-0.00036000000000002697,-0.00048000000000003595,-0.00024000000000001798,-0.395,-0.05500000000000005,0.2849999999999999,-0.0012199999999999989,0.0007399999999999629,-0.0012199999999999989,1742250055.9471
-0.24,0.09000000000000008,-0.42999999999999994,-0.0006199999999999539,-0.00024000000000001798,0.0006200000000000649,-0.4,-0.06000000000000005,0.29000000000000004,-0.00024000000000001798,-0.00036000000000002697,-0.00036000000000002697,1742250056.061429
-0.24,0.09000000000000008,-0.43500000000000005,0.00048000000000003595,0.00011999999999989797,-0.0009799999999999809,-0.4,-0.05500000000000005,0.2849999999999999,0.0018400000000000638,-0.002080000000000082,-0.0012199999999999989,1742250056.175144
-0.24,0.09000000000000008,-0.42999999999999994,0.00011999999999989797,0.002080000000000082,0.0008600000000000829,-0.405,-0.06000000000000005,0.2849999999999999,-0.0006199999999999539,0.001100000000000101,-0.00012000000000000899,1742250056.2891169
-0.245,0.09499999999999997,-0.43500000000000005,-0.0008599999999999719,-0.0008599999999999719,-0.0017000000000000348,-0.4,-0.06000000000000005,0.2849999999999999,0.0007399999999999629,0.0,-0.00024000000000001798,1742250056.4030578
-0.24,0.09000000000000008,-0.42999999999999994,0.0009799999999999809,0.001100000000000101,-0.0006199999999999539,-0.4,-0.06000000000000005,0.2849999999999999,0.0,-0.0006199999999999539,-0.0009799999999999809,1742250056.520767
-0.24,0.09000000000000008,-0.42999999999999994,0.0007399999999999629,0.00011999999999989797,0.00048000000000003595,-0.4,-0.06000000000000005,0.2849999999999999,-0.0014600000000000168,-0.00048000000000003595,-0.00036000000000002697,1742250056.631284
-0.24,0.09000000000000008,-0.42999999999999994,-0.00036000000000002697,0.00011999999999989797,-0.00012000000000000899,-0.405,-0.06000000000000005,0.29000000000000004,-0.001960000000000073,-0.00024000000000001798,-0.0006199999999999539,1742250056.745211
-0.24,0.09499999999999997,-0.43500000000000005,-0.00024000000000001798,0.0,0.00035999999999991594,-0.405,-0.06000000000000005,0.2849999999999999,0.0015800000000001369,-0.00024000000000001798,-0.0009799999999999809,1742250056.861542
-0.245,0.09000000000000008,-0.42999999999999994,0.00035999999999991594,0.00035999999999991594,0.0,-0.405,-0.06000000000000005,0.2849999999999999,-0.0008599999999999719,0.0024399999999999977,0.0,1742250056.975007
-0.245,0.09000000000000008,-0.42999999999999994,-0.0006199999999999539,-0.0023200000000000998,-0.0023200000000000998,-0.4,-0.06000000000000005,0.29000000000000004,-0.00036000000000002697,-0.00024000000000001798,-0.0010999999999999899,1742250057.087157
-0.24,0.09000000000000008,-0.42999999999999994,0.00011999999999989797,0.0006200000000000649,0.00024000000000001798,-0.405,-0.06000000000000005,0.2849999999999999,-0.0023200000000000998,-0.0018400000000000638,-0.0029199999999999227,1742250057.20427
-0.24,0.08499999999999996,-0.43500000000000005,-0.0013400000000000079,0.0012199999999999989,0.0021999999999999797,-0.4,-0.06000000000000005,0.2849999999999999,0.00024000000000001798,-0.0007399999999999629,-0.0007399999999999629,1742250057.315056
-0.24,0.09000000000000008,-0.42999999999999994,-0.00012000000000000899,-0.00024000000000001798,-0.00024000000000001798,-0.4,-0.06000000000000005,0.2849999999999999,-0.0015800000000000258,0.00011999999999989797,-0.00048000000000003595,1742250057.4291048
-0.24,0.09000000000000008,-0.42999999999999994,-0.00024000000000001798,-0.0013400000000000079,-0.00048000000000003595,-0.405,-0.06000000000000005,0.29000000000000004,0.0008600000000000829,-0.0009799999999999809,-0.0013400000000000079,1742250057.543062
-0.24,0.09000000000000008,-0.42999999999999994,0.0007399999999999629,0.0018400000000000638,0.0015800000000001369,-0.405,-0.05500000000000005,0.2849999999999999,-0.0014600000000000168,0.0026800000000000157,-0.0006199999999999539,1742250057.657072
-0.245,0.09000000000000008,-0.42999999999999994,-0.0009799999999999809,-0.0031799999999999606,-0.001960000000000073,-0.405,-0.06000000000000005,0.2849999999999999,-0.0007399999999999629,0.0,-0.0012199999999999989,1742250057.771071
-0.24,0.09000000000000008,-0.43500000000000005,-0.0010999999999999899,0.0017000000000000348,0.00024000000000001798,-0.4,-0.05500000000000005,0.2849999999999999,-0.0013400000000000079,0.0007399999999999629,-0.00024000000000001798,1742250057.886629
-0.24,0.09000000000000008,-0.42999999999999994,-0.0006199999999999539,-0.0012199999999999989,-0.0013400000000000079,-0.405,-0.06000000000000005,0.2849999999999999,0.0008600000000000829,0.0,0.0,1742250058.000914
-0.24,0.09000000000000008,-0.42999999999999994,0.00035999999999991594,0.0006200000000000649,-0.0009799999999999809,-0.405,-0.05500000000000005,0.2849999999999999,0.0008600000000000829,-0.0006199999999999539,0.0,1742250058.112978
-0.24,0.09000000000000008,-0.42999999999999994,-0.0008599999999999719,0.0019599999999999618,0.00011999999999989797,-0.405,-0.06000000000000005,0.29000000000000004,0.0008600000000000829,-0.00048000000000003595,-0.00024000000000001798,1742250058.2271411
-0.245,0.09000000000000008,-0.43500000000000005,0.0007399999999999629,0.0012199999999999989,0.001100000000000101,-0.405,-0.05500000000000005,0.2849999999999999,-0.00036000000000002697,0.00035999999999991594,0.00035999999999991594,1742250058.341085
-0.245,0.08499999999999996,-0.42999999999999994,0.00035999999999991594,-0.00012000000000000899,-0.0017000000000000348,-0.405,-0.05500000000000005,0.2849999999999999,-0.00012000000000000899,-0.00012000000000000899,-0.0010999999999999899,1742250058.455179
-0.245,0.08499999999999996,-0.42999999999999994,0.00011999999999989797,0.00048000000000003595,0.00024000000000001798,-0.405,-0.06000000000000005,0.2849999999999999,0.00035999999999991594,0.00024000000000001798,-0.00024000000000001798,1742250058.569025
-0.245,0.09000000000000008,-0.42999999999999994,0.0008600000000000829,-0.0006199999999999539,0.00011999999999989797,-0.405,-0.06000000000000005,0.29000000000000004,-0.002080000000000082,-0.00012000000000000899,0.00011999999999989797,1742250058.683077
-0.245,0.09000000000000008,-0.42999999999999994,-0.0009799999999999809,0.0006200000000000649,-0.0007399999999999629,-0.4,-0.05500000000000005,0.2849999999999999,0.0008600000000000829,-0.0015800000000000258,-0.00048000000000003595,1742250058.797062
-0.245,0.08499999999999996,-0.42999999999999994,0.00048000000000003595,0.0024399999999999977,0.0006200000000000649,-0.4,-0.06000000000000005,0.2849999999999999,0.00011999999999989797,-0.0014600000000000168,-0.0006199999999999539,1742250058.911072
-0.245,0.09000000000000008,-0.42999999999999994,-0.00012000000000000899,0.0007399999999999629,0.001100000000000101,-0.405,-0.05500000000000005,0.2849999999999999,-0.0007399999999999629,0.0,0.00011999999999989797,1742250059.024966
-0.245,0.08499999999999996,-0.42999999999999994,-0.00048000000000003595,-0.00012000000000000899,-0.0013400000000000079,-0.4,-0.05500000000000005,0.2849999999999999,0.00024000000000001798,0.0013400000000001189,-0.00036000000000002697,1742250059.141063
-0.245,0.09000000000000008,-0.42999999999999994,0.0007399999999999629,-0.00012000000000000899,-0.0007399999999999629,-0.405,-0.06000000000000005,0.2849999999999999,-0.00024000000000001798,0.00035999999999991594,0.00011999999999989797,1742250059.252861
-0.245,0.09000000000000008,-0.42999999999999994,-0.00012000000000000899,-0.0015800000000000258,-0.0010999999999999899,-0.405,-0.06000000000000005,0.2849999999999999,0.00048000000000003595,0.0,0.0,1742250059.36684
-0.245,0.09000000000000008,-0.42999999999999994,0.0013400000000001189,0.00035999999999991594,-0.0010999999999999899,-0.4,-0.05500000000000005,0.2849999999999999,-0.0006199999999999539,-0.00048000000000003595,-0.0009799999999999809,1742250059.481142
-0.245,0.08499999999999996,-0.42999999999999994,0.00035999999999991594,0.00011999999999989797,0.0006200000000000649,-0.4,-0.06000000000000005,0.2849999999999999,0.00011999999999989797,-0.0013400000000000079,-0.00012000000000000899,1742250059.594943
-0.245,0.09000000000000008,-0.43500000000000005,0.0009799999999999809,0.0006200000000000649,0.00035999999999991594,-0.4,-0.05500000000000005,0.2849999999999999,-0.00048000000000003595,0.00035999999999991594,0.00024000000000001798,1742250059.708871
-0.245,0.09000000000000008,-0.42999999999999994,-0.00012000000000000899,-0.00024000000000001798,-0.0009799999999999809,-0.405,-0.06000000000000005,0.2849999999999999,0.0014600000000000168,0.0018400000000000638,0.00035999999999991594,1742250059.822885
-0.245,0.08499999999999996,-0.42999999999999994,0.0009799999999999809,-0.00012000000000000899,-0.0012199999999999989,-0.405,-0.06000000000000005,0.2849999999999999,0.00011999999999989797,0.0018400000000000638,-0.00024000000000001798,1742250059.939947
-0.245,0.08499999999999996,-0.42999999999999994,-0.0014600000000000168,0.0019599999999999618,-0.0012199999999999989,-0.4,-0.05500000000000005,0.2849999999999999,-0.0015800000000000258,-0.0007399999999999629,-0.006720000000000059,1742250060.051031
-0.245,0.08000000000000007,-0.42999999999999994,-0.0022000000000000908,-0.00048000000000003595,0.0037799999999998946,-0.405,-0.05500000000000005,0.2849999999999999,0.0015800000000001369,-0.0007399999999999629,0.0008600000000000829,1742250060.164841
-0.245,0.09000000000000008,-0.42999999999999994,-0.0008599999999999719,0.0012199999999999989,-0.0007399999999999629,-0.405,-0.05500000000000005,0.2849999999999999,0.00011999999999989797,-0.0013400000000000079,-0.00036000000000002697,1742250060.280855
-0.25,0.08499999999999996,-0.42999999999999994,-0.0008599999999999719,0.0017000000000000348,0.0,-0.405,-0.05500000000000005,0.2849999999999999,0.00011999999999989797,0.002080000000000082,0.0013400000000001189,1742250060.39277
-0.25,0.08499999999999996,-0.42999999999999994,-0.00012000000000000899,-0.0014600000000000168,-0.0029199999999999227,-0.405,-0.05500000000000005,0.29000000000000004,-0.002080000000000082,0.0009799999999999809,-0.0008599999999999719,1742250060.505972
-0.245,0.08000000000000007,-0.42999999999999994,0.0008600000000000829,-0.0023200000000000998,0.00048000000000003595,-0.405,-0.06000000000000005,0.2849999999999999,-0.00036000000000002697,-0.0012199999999999989,-0.0009799999999999809,1742250060.6200051
-0.245,0.08499999999999996,-0.42999999999999994,0.0008600000000000829,-0.00036000000000002697,0.00048000000000003595,-0.4,-0.05500000000000005,0.2849999999999999,0.001100000000000101,-0.0006199999999999539,0.00048000000000003595,1742250060.733886
-0.245,0.09000000000000008,-0.42999999999999994,0.0006200000000000649,-0.00024000000000001798,-0.0015800000000000258,-0.405,-0.05500000000000005,0.2849999999999999,0.0012199999999999989,0.0018400000000000638,0.00035999999999991594,1742250060.84775
-0.245,0.08499999999999996,-0.42999999999999994,0.001100000000000101,-0.0017000000000000348,-0.0015800000000000258,-0.405,-0.05500000000000005,0.2849999999999999,0.0026800000000000157,0.0014600000000000168,-0.0008599999999999719,1742250060.96181
-0.245,0.08000000000000007,-0.42999999999999994,0.001100000000000101,-0.0008599999999999719,0.00024000000000001798,-0.405,-0.05500000000000005,0.2849999999999999,-0.0018400000000000638,0.0032999999999998586,0.0,1742250061.075822
-0.245,0.08499999999999996,-0.42999999999999994,-0.00012000000000000899,-0.0040200000000000236,-0.0022000000000000908,-0.405,-0.05500000000000005,0.29000000000000004,-0.0012199999999999989,0.0009799999999999809,-0.00048000000000003595,1742250061.189887
-0.24,0.09000000000000008,-0.43500000000000005,0.0014600000000000168,-0.0041599999999999415,0.00035999999999991594,-0.4,-0.05500000000000005,0.2849999999999999,0.00048000000000003595,0.0007399999999999629,0.00048000000000003595,1742250061.303723
-0.24,0.08499999999999996,-0.42999999999999994,0.0008600000000000829,-0.0027999999999999137,-0.0027999999999999137,-0.405,-0.05500000000000005,0.29000000000000004,0.0030599999999998406,-0.0024400000000001087,0.0,1742250061.419456
-0.24,0.09000000000000008,-0.43500000000000005,0.0,0.0035399999999998766,-0.00048000000000003595,-0.405,-0.05500000000000005,0.29000000000000004,0.0046399999999999775,-0.0024400000000001087,0.0008600000000000829,1742250061.530846
-0.24,0.08499999999999996,-0.43500000000000005,0.0030599999999998406,0.0006200000000000649,-0.00036000000000002697,-0.405,-0.05500000000000005,0.2849999999999999,0.005980000000000096,-0.0043999999999999595,-0.00036000000000002697,1742250061.644922
-0.245,0.08499999999999996,-0.42999999999999994,0.0025599999999998957,0.0026800000000000157,-0.0007399999999999629,-0.405,-0.06000000000000005,0.2849999999999999,0.0009799999999999809,-0.00048000000000003595,0.0017000000000000348,1742250061.76097
-0.245,0.08499999999999996,-0.42999999999999994,0.0006200000000000649,-0.0013400000000000079,-0.0040200000000000236,-0.405,-0.05500000000000005,0.2849999999999999,0.0014600000000000168,-0.0030599999999999516,0.00035999999999991594,1742250061.872862
-0.24,0.09000000000000008,-0.42999999999999994,0.00048000000000003595,0.0035399999999998766,0.00035999999999991594,-0.405,-0.06000000000000005,0.2849999999999999,0.00011999999999989797,-0.0013400000000000079,-0.00036000000000002697,1742250061.986898
-0.24,0.09000000000000008,-0.42999999999999994,-0.0012199999999999989,0.0007399999999999629,0.00035999999999991594,-0.405,-0.06000000000000005,0.2849999999999999,0.00011999999999989797,-0.0015800000000000258,-0.00012000000000000899,1742250062.100942
-0.245,0.08499999999999996,-0.42999999999999994,-0.00012000000000000899,0.0019599999999999618,-0.00036000000000002697,-0.405,-0.05500000000000005,0.28,0.00048000000000003595,-0.00024000000000001798,0.00024000000000001798,1742250062.2148092
-0.245,0.08499999999999996,-0.42999999999999994,0.00011999999999989797,0.0009799999999999809,-0.0007399999999999629,-0.405,-0.05500000000000005,0.28,0.0019599999999999618,-0.0006199999999999539,-0.0008599999999999719,1742250062.328927
-0.245,0.08499999999999996,-0.42999999999999994,0.0007399999999999629,0.0025599999999998957,0.0012199999999999989,-0.405,-0.06000000000000005,0.2849999999999999,-0.00048000000000003595,0.0008600000000000829,-0.00012000000000000899,1742250062.442913
-0.245,0.09000000000000008,-0.43500000000000005,-0.0008599999999999719,0.00035999999999991594,-0.0017000000000000348,-0.405,-0.06000000000000005,0.28,0.0030599999999998406,0.00024000000000001798,0.0008600000000000829,1742250062.556748
-0.245,0.09000000000000008,-0.42999999999999994,0.0,0.0009799999999999809,-0.0006199999999999539,-0.4099999999999999,-0.06000000000000005,0.2849999999999999,0.0023200000000000998,0.0007399999999999629,-0.0006199999999999539,1742250062.670848
-0.245,0.09000000000000008,-0.42999999999999994,0.0012199999999999989,0.00024000000000001798,-0.00024000000000001798,-0.405,-0.06000000000000005,0.28,0.0025599999999998957,-0.0022000000000000908,-0.0006199999999999539,1742250062.784794
-0.245,0.09499999999999997,-0.42999999999999994,0.0019599999999999618,0.0024399999999999977,0.0009799999999999809,-0.4099999999999999,-0.06499999999999995,0.2849999999999999,0.00035999999999991594,0.00048000000000003595,-0.00012000000000000899,1742250062.900672
-0.245,0.09000000000000008,-0.42999999999999994,0.0032999999999998586,0.0018400000000000638,-0.0018400000000000638,-0.405,-0.06000000000000005,0.2849999999999999,0.001100000000000101,-0.00036000000000002697,-0.00024000000000001798,1742250063.012819
-0.25,0.09000000000000008,-0.42999999999999994,-0.00036000000000002697,0.002080000000000082,-0.00036000000000002697,-0.4099999999999999,-0.06000000000000005,0.2849999999999999,-0.0025599999999998957,-0.00024000000000001798,-0.0010999999999999899,1742250063.1269171
-0.25,0.09499999999999997,-0.42999999999999994,-0.0048799999999999955,0.00048000000000003595,0.002080000000000082,-0.405,-0.06000000000000005,0.2849999999999999,0.0019599999999999618,-0.0006199999999999539,0.00048000000000003595,1742250063.24085
-0.25,0.08499999999999996,-0.42999999999999994,0.00035999999999991594,0.001100000000000101,-0.0006199999999999539,-0.4099999999999999,-0.06000000000000005,0.2849999999999999,0.00048000000000003595,-0.00024000000000001798,-0.0012199999999999989,1742250063.3548229
-0.245,0.08499999999999996,-0.42999999999999994,0.0013400000000001189,0.0007399999999999629,0.00011999999999989797,-0.405,-0.06499999999999995,0.28,0.00024000000000001798,0.0006200000000000649,-0.0008599999999999719,1742250063.468738
-0.25,0.08499999999999996,-0.42999999999999994,0.0018400000000000638,0.00035999999999991594,-0.0008599999999999719,-0.405,-0.06000000000000005,0.2849999999999999,0.00024000000000001798,0.0008600000000000829,-0.00012000000000000899,1742250063.582707
-0.25,0.09000000000000008,-0.42999999999999994,0.001100000000000101,0.0015800000000001369,-0.00024000000000001798,-0.405,-0.06000000000000005,0.28,0.0008600000000000829,-0.0008599999999999719,-0.0010999999999999899,1742250063.696818
-0.245,0.09000000000000008,-0.42500000000000004,-0.00048000000000003595,0.00035999999999991594,0.00035999999999991594,-0.405,-0.06000000000000005,0.2849999999999999,-0.0035399999999999876,0.0,0.00024000000000001798,1742250063.810733
-0.25,0.09000000000000008,-0.42999999999999994,-0.0024400000000001087,-0.00024000000000001798,-0.0015800000000000258,-0.405,-0.06000000000000005,0.2849999999999999,0.0023200000000000998,-0.0010999999999999899,0.0,1742250063.924712
-0.25,0.09000000000000008,-0.42999999999999994,0.0024399999999999977,0.00011999999999989797,0.001100000000000101,-0.405,-0.06000000000000005,0.2849999999999999,0.001100000000000101,0.00550000000000006,0.0032999999999998586,1742250064.041012
-0.245,0.09499999999999997,-0.42999999999999994,0.0012199999999999989,-0.0029199999999999227,-0.0029199999999999227,-0.4,-0.06499999999999995,0.2849999999999999,0.0025599999999998957,0.0026800000000000157,0.00048000000000003595,1742250064.1526558
-0.245,0.09000000000000008,-0.42500000000000004,0.0024399999999999977,-0.0014600000000000168,-0.0015800000000000258,-0.4,-0.07000000000000006,0.2849999999999999,0.0041599999999999415,-0.0007399999999999629,0.0043999999999999595,1742250064.266686
-0.245,0.09499999999999997,-0.42999999999999994,0.00048000000000003595,-0.0029199999999999227,-0.0050000000000000044,-0.405,-0.07499999999999996,0.29000000000000004,0.01770000000000005,0.015859999999999985,0.01415999999999995,1742250064.380773
-0.24,0.10000000000000009,-0.43500000000000005,0.0041599999999999415,-0.01085999999999998,-0.019279999999999964,-0.39,-0.07999999999999996,0.28,0.02320000000000011,0.01305999999999985,0.012580000000000036,1742250064.4947882
-0.235,0.10499999999999998,-0.42500000000000004,0.0008600000000000829,-0.008919999999999928,-0.013919999999999932,-0.39,-0.08499999999999996,0.31000000000000005,0.046499999999999986,0.009879999999999889,0.009160000000000057,1742250064.608768
-0.235,0.10499999999999998,-0.44500000000000006,0.0040199999999999125,-0.005619999999999958,-0.008539999999999992,-0.38,-0.11499999999999999,0.30000000000000004,0.018799999999999928,0.019279999999999964,-0.001960000000000073,1742250064.723592
-0.21999999999999997,0.09000000000000008,-0.43500000000000005,0.0009799999999999809,-0.019159999999999955,-0.00782000000000005,-0.38,-0.12,0.30000000000000004,-0.0046399999999999775,0.03051999999999988,0.015859999999999985,1742250064.836642
-0.22499999999999998,0.1100000000000001,-0.42999999999999994,0.005980000000000096,-0.011960000000000082,-0.00537999999999994,-0.36,-0.13,0.31000000000000005,-0.03748000000000007,0.03625999999999996,0.048960000000000115,1742250064.950662
-0.21499999999999997,0.125,-0.43500000000000005,0.00035999999999991594,-0.00537999999999994,-0.0050000000000000044,-0.355,-0.135,0.3400000000000001,-0.010379999999999945,0.015139999999999931,0.03394000000000008,1742250065.064641
-0.20499999999999996,0.1200000000000001,-0.43999999999999995,0.0047600000000000975,-0.00770000000000004,-0.0029199999999999227,-0.35,-0.13,0.33000000000000007,0.01977999999999991,0.01097999999999999,0.0037799999999998946,1742250065.18022
-0.19500000000000006,0.1100000000000001,-0.44999999999999996,0.006099999999999994,-0.023679999999999923,-0.006840000000000068,-0.33499999999999996,-0.12,0.32499999999999996,0.037719999999999976,-0.00878000000000001,-0.03186,1742250065.292727
-0.19500000000000006,0.1100000000000001,-0.44500000000000006,0.013299999999999867,-0.007200000000000095,0.006099999999999994,-0.355,-0.13,0.32000000000000006,0.013419999999999987,-0.01978000000000002,-0.040159999999999973,1742250065.406721
-0.19500000000000006,0.1299999999999999,-0.43999999999999995,-0.007440000000000002,0.0026800000000000157,0.026619999999999866,-0.375,-0.14500000000000002,0.32000000000000006,0.013919999999999932,-0.0039000000000000146,-0.005739999999999967,1742250065.5208
-0.19999999999999996,0.135,-0.44500000000000006,0.014520000000000088,0.0018400000000000638,0.0045200000000000795,-0.365,-0.13,0.31499999999999995,0.006340000000000012,0.0007399999999999629,-0.008660000000000001,1742250065.63463
-0.20499999999999996,0.1299999999999999,-0.44999999999999996,0.006099999999999994,-0.0026799999999999047,0.0015800000000001369,-0.38,-0.15500000000000003,0.30000000000000004,0.024540000000000006,-0.0032999999999999696,0.0034199999999999786,1742250065.748636
-0.19500000000000006,0.1299999999999999,-0.43500000000000005,0.020140000000000047,-0.0023200000000000998,-0.005240000000000022,-0.35,-0.14,0.31000000000000005,0.0048799999999999955,-0.005120000000000013,-0.0034199999999999786,1742250065.862746
-0.19500000000000006,0.135,-0.44500000000000006,0.009519999999999973,-0.008539999999999992,-0.005499999999999949,-0.365,-0.16000000000000003,0.30000000000000004,0.03283999999999998,0.008059999999999956,-0.0023200000000000998,1742250065.9798698
-0.19500000000000006,0.135,-0.43999999999999995,0.02198000000000011,-0.006840000000000068,-0.018799999999999928,-0.365,-0.13,0.30000000000000004,-0.006840000000000068,0.0030599999999998406,-0.005739999999999967,1742250066.090862
-0.19500000000000006,0.1299999999999999,-0.43999999999999995,-0.006099999999999994,0.0029200000000000337,0.0,-0.365,-0.135,0.31000000000000005,-0.010000000000000009,0.005120000000000013,-0.008660000000000001,1742250066.204739
-0.18500000000000005,0.1299999999999999,-0.44500000000000006,-0.014900000000000024,-0.00012000000000000899,0.007319999999999993,-0.37,-0.125,0.32499999999999996,-0.005859999999999976,-0.0027999999999999137,-0.009279999999999955,1742250066.3203788
-0.19999999999999996,0.1200000000000001,-0.44500000000000006,-0.02307999999999999,0.011239999999999917,0.01208000000000009,-0.375,-0.13,0.31000000000000005,-0.011099999999999999,0.009640000000000093,0.010620000000000074,1742250066.432676
-0.19999999999999996,0.1100000000000001,-0.44500000000000006,0.00048000000000003595,-0.00036000000000002697,-0.00048000000000003595,-0.36,-0.125,0.31000000000000005,-0.0026799999999999047,0.012700000000000156,0.005619999999999958,1742250066.546635
-0.19999999999999996,0.1100000000000001,-0.44500000000000006,0.00550000000000006,-0.00036000000000002697,0.0018400000000000638,-0.36,-0.10999999999999999,0.31000000000000005,0.007319999999999993,0.013299999999999867,-0.008660000000000001,1742250066.66128
-0.19999999999999996,0.1100000000000001,-0.44500000000000006,0.013419999999999987,0.0042800000000000615,0.011600000000000055,-0.36,-0.14,0.32499999999999996,-0.0050000000000000044,0.005980000000000096,-0.016120000000000023,1742250066.774884
-0.20499999999999996,0.14000000000000012,-0.44500000000000006,-0.002080000000000082,-0.00878000000000001,0.015859999999999985,-0.355,-0.11499999999999999,0.33000000000000007,-0.015499999999999958,0.013539999999999885,-0.011720000000000064,1742250066.888826
-0.19999999999999996,0.11499999999999999,-0.44500000000000006,-0.010739999999999972,-0.011840000000000073,0.011239999999999917,-0.36,-0.10499999999999998,0.33000000000000007,-0.01085999999999998,0.008299999999999974,-0.014780000000000015,1742250067.002658
-0.19999999999999996,0.10499999999999998,-0.44999999999999996,-0.0027999999999999137,-0.0024400000000001087,0.011600000000000055,-0.36,-0.10999999999999999,0.3400000000000001,-0.0014600000000000168,0.006220000000000114,-0.005859999999999976,1742250067.1186051
-0.19999999999999996,0.10000000000000009,-0.45999999999999996,-0.014780000000000015,-0.0031799999999999606,0.008299999999999974,-0.355,-0.09999999999999998,0.33499999999999996,0.006720000000000059,0.0035399999999998766,-0.0029199999999999227,1742250067.230544
-0.19500000000000006,0.09000000000000008,-0.45500000000000007,-0.008059999999999956,-0.006960000000000077,0.0014600000000000168,-0.355,-0.10999999999999999,0.33000000000000007,0.00782000000000016,0.0025599999999998957,-0.010140000000000038,1742250067.3445718
-0.19500000000000006,0.08499999999999996,-0.45500000000000007,-0.009159999999999946,-0.0015800000000000258,0.005619999999999958,-0.355,-0.09499999999999997,0.33499999999999996,-0.00012000000000000899,0.00024000000000001798,-0.010499999999999954,1742250067.461132
-0.18999999999999995,0.09000000000000008,-0.45500000000000007,-0.005240000000000022,-0.0040200000000000236,0.0014600000000000168,-0.355,-0.09499999999999997,0.3400000000000001,-0.0035399999999999876,0.0015800000000001369,-0.011480000000000046,1742250067.572614
-0.19500000000000006,0.08499999999999996,-0.45999999999999996,-0.005240000000000022,0.0006200000000000649,0.0023200000000000998,-0.355,-0.09999999999999998,0.3400000000000001,-0.0027999999999999137,-0.0022000000000000908,0.0013400000000001189,1742250067.6866329
-0.19500000000000006,0.08499999999999996,-0.45999999999999996,-0.00770000000000004,-0.0022000000000000908,0.00011999999999989797,-0.36,-0.09499999999999997,0.33499999999999996,-0.011600000000000055,0.008059999999999956,0.0029200000000000337,1742250067.800532
-0.19500000000000006,0.07499999999999996,-0.45500000000000007,-0.013299999999999979,-0.007080000000000086,0.0013400000000001189,-0.365,-0.10999999999999999,0.33000000000000007,0.010860000000000092,-0.014780000000000015,-0.006099999999999994,1742250067.9145951
-0.18999999999999995,0.05499999999999994,-0.4650000000000001,-0.001960000000000073,0.00048000000000003595,0.0021999999999999797,-0.355,-0.08999999999999997,0.33499999999999996,-0.0009799999999999809,0.00048000000000003595,-0.006340000000000012,1742250068.02863
-0.18500000000000005,0.07000000000000006,-0.4650000000000001,0.0034199999999999786,-0.0014600000000000168,-0.0013400000000000079,-0.36,-0.09499999999999997,0.33499999999999996,-0.0018400000000000638,0.0012199999999999989,-0.0017000000000000348,1742250068.1425989
-0.18999999999999995,0.07000000000000006,-0.45999999999999996,0.00035999999999991594,0.00024000000000001798,-0.0010999999999999899,-0.365,-0.08999999999999997,0.33499999999999996,0.0009799999999999809,0.0037799999999998946,0.0007399999999999629,1742250068.256939
-0.18999999999999995,0.07499999999999996,-0.4650000000000001,-0.001960000000000073,0.0031799999999999606,-0.00012000000000000899,-0.36,-0.08999999999999997,0.33499999999999996,-0.005739999999999967,-0.00048000000000003595,0.0037799999999998946,1742250068.369586
-0.19500000000000006,0.07499999999999996,-0.45999999999999996,-0.00048000000000003595,0.001100000000000101,-0.0006199999999999539,-0.36,-0.09499999999999997,0.33499999999999996,-0.0045199999999999685,-0.006460000000000021,0.0026800000000000157,1742250068.483625
-0.18999999999999995,0.07499999999999996,-0.45999999999999996,-0.0042799999999999505,-0.0023200000000000998,0.0017000000000000348,-0.36,-0.08499999999999996,0.345,-0.0026799999999999047,-0.011840000000000073,0.006960000000000077,1742250068.5997288
-0.18999999999999995,0.07000000000000006,-0.45999999999999996,-0.0013400000000000079,0.001100000000000101,-0.0009799999999999809,-0.355,-0.08499999999999996,0.33499999999999996,-0.0006199999999999539,-0.009279999999999955,0.007940000000000058,1742250068.711689
-0.18999999999999995,0.07000000000000006,-0.45999999999999996,-0.00048000000000003595,0.0012199999999999989,-0.0013400000000000079,-0.365,-0.09499999999999997,0.33499999999999996,-0.00770000000000004,-0.006099999999999994,0.005740000000000078,1742250068.825633
-0.19500000000000006,0.06499999999999995,-0.45999999999999996,-0.006720000000000059,0.0012199999999999989,0.0027999999999999137,-0.36,-0.08999999999999997,0.33000000000000007,0.0025599999999998957,-0.0015800000000000258,-0.0029199999999999227,1742250068.940576
-0.18999999999999995,0.06000000000000005,-0.45999999999999996,-0.0014600000000000168,0.0012199999999999989,0.0006200000000000649,-0.365,-0.08999999999999997,0.32499999999999996,-0.0027999999999999137,0.010499999999999954,-0.005619999999999958,1742250069.053644
-0.19500000000000006,0.06499999999999995,-0.45999999999999996,-0.016720000000000068,0.0018400000000000638,0.00550000000000006,-0.36,-0.09499999999999997,0.33000000000000007,0.006720000000000059,0.0,0.00035999999999991594,1742250069.16736
-0.19500000000000006,0.06000000000000005,-0.45999999999999996,-0.006220000000000003,0.0025599999999998957,-0.001960000000000073,-0.36,-0.09499999999999997,0.32499999999999996,0.0032999999999998586,0.0,0.0030599999999998406,1742250069.2813172
-0.19500000000000006,0.06000000000000005,-0.45999999999999996,-0.0042799999999999505,-0.0007399999999999629,-0.0031799999999999606,-0.365,-0.08499999999999996,0.33000000000000007,-0.0022000000000000908,-0.0024400000000001087,-0.00048000000000003595,1742250069.395751
-0.19500000000000006,0.050000000000000044,-0.4650000000000001,0.00011999999999989797,0.0007399999999999629,0.00035999999999991594,-0.38,-0.09499999999999997,0.33499999999999996,-0.005619999999999958,-0.002080000000000082,0.0037799999999998946,1742250069.50953
-0.19999999999999996,0.050000000000000044,-0.47,-0.0039000000000000146,-0.0015800000000000258,0.0037799999999998946,-0.365,-0.09499999999999997,0.31499999999999995,-0.011240000000000028,0.0032999999999998586,-0.0029199999999999227,1742250069.623622
-0.19999999999999996,0.06000000000000005,-0.47,-0.0039000000000000146,-0.0013400000000000079,0.0031799999999999606,-0.36,-0.09499999999999997,0.33000000000000007,0.0009799999999999809,0.0023200000000000998,-0.0008599999999999719,1742250069.740054
-0.19500000000000006,0.05499999999999994,-0.45500000000000007,0.0041599999999999415,-0.00048000000000003595,-0.0009799999999999809,-0.36,-0.09499999999999997,0.33000000000000007,0.0,-0.0007399999999999629,-0.002080000000000082,1742250069.851595
-0.19500000000000006,0.05499999999999994,-0.45999999999999996,-0.0024400000000001087,0.0013400000000001189,0.0012199999999999989,-0.365,-0.09499999999999997,0.33000000000000007,-0.0008599999999999719,-0.0024400000000001087,-0.0026799999999999047,1742250069.965628
-0.19500000000000006,0.06000000000000005,-0.45999999999999996,-0.0035399999999999876,0.002080000000000082,0.0025599999999998957,-0.365,-0.09499999999999997,0.32499999999999996,-0.0031799999999999606,-0.0032999999999999696,-0.0014600000000000168,1742250070.080256
-0.19500000000000006,0.05499999999999994,-0.45999999999999996,-0.00770000000000004,0.0042800000000000615,0.0025599999999998957,-0.36,-0.08999999999999997,0.33000000000000007,-0.013919999999999932,-0.0031799999999999606,0.00537999999999994,1742250070.193571
-0.19999999999999996,0.05499999999999994,-0.47,-0.02636000000000005,0.0015800000000001369,0.006960000000000077,-0.365,-0.08999999999999997,0.32499999999999996,-0.0009799999999999809,-0.0043999999999999595,0.0015800000000001369,1742250070.307656
-0.19999999999999996,0.040000000000000036,-0.45500000000000007,-0.0042799999999999505,0.00011999999999989797,0.00024000000000001798,-0.375,-0.11499999999999999,0.32499999999999996,-0.001960000000000073,-0.006220000000000003,0.005120000000000013,1742250070.42163
-0.19999999999999996,0.05499999999999994,-0.45999999999999996,-0.00988,0.010860000000000092,0.00537999999999994,-0.37,-0.09999999999999998,0.33000000000000007,-0.00036000000000002697,0.0047600000000000975,-0.007320000000000104,1742250070.5355048
-0.20499999999999996,0.050000000000000044,-0.45500000000000007,0.0030599999999998406,0.0037799999999998946,0.002080000000000082,-0.365,-0.08999999999999997,0.33000000000000007,-0.0015800000000000258,0.002080000000000082,-0.0024400000000001087,1742250070.649598
-0.20499999999999996,0.04499999999999993,-0.45999999999999996,0.0007399999999999629,-0.0018400000000000638,-0.0014600000000000168,-0.365,-0.08999999999999997,0.33000000000000007,-0.0026799999999999047,0.0007399999999999629,-0.0030599999999999516,1742250070.76365
-0.20499999999999996,0.04499999999999993,-0.45500000000000007,0.00011999999999989797,0.00011999999999989797,-0.00012000000000000899,-0.365,-0.08999999999999997,0.32499999999999996,-0.00048000000000003595,-0.0012199999999999989,-0.0037800000000000056,1742250070.880613
-0.19999999999999996,0.050000000000000044,-0.45999999999999996,0.002080000000000082,0.001100000000000101,-0.00012000000000000899,-0.37,-0.08999999999999997,0.33000000000000007,-0.0045199999999999685,0.0045200000000000795,-0.00036000000000002697,1742250070.991468
-0.20499999999999996,0.050000000000000044,-0.45500000000000007,0.004999999999999893,0.0018400000000000638,-0.0034199999999999786,-0.365,-0.08499999999999996,0.33000000000000007,-0.00048000000000003595,0.0026800000000000157,0.007319999999999993,1742250071.105514
-0.20499999999999996,0.050000000000000044,-0.45500000000000007,0.006460000000000132,0.0007399999999999629,-0.00660000000000005,-0.36,-0.08999999999999997,0.3400000000000001,-0.02088000000000001,0.030999999999999917,0.004999999999999893,1742250071.21941
-0.20499999999999996,0.05499999999999994,-0.45500000000000007,-0.0007399999999999629,-0.0017000000000000348,-0.0035399999999999876,-0.35,-0.07999999999999996,0.345,-0.01317999999999997,0.013539999999999885,0.0025599999999998957,1742250071.333376
-0.20499999999999996,0.04499999999999993,-0.45500000000000007,-0.0018400000000000638,0.0040199999999999125,-0.00036000000000002697,-0.3400000000000001,-0.07000000000000006,0.3500000000000001,-0.00660000000000005,0.007440000000000113,0.0007399999999999629,1742250071.447412
-0.20499999999999996,0.050000000000000044,-0.45500000000000007,-0.0040200000000000236,0.001100000000000101,-0.0012199999999999989,-0.345,-0.07999999999999996,0.355,-0.0075599999999999,0.00770000000000004,0.0041599999999999415,1742250071.561444
-0.20999999999999996,0.05499999999999994,-0.44999999999999996,-0.0042799999999999505,0.013679999999999914,-0.007200000000000095,-0.33000000000000007,-0.07000000000000006,0.355,-0.016000000000000014,0.00782000000000016,0.0048799999999999955,1742250071.6753962
-0.20999999999999996,0.04499999999999993,-0.44999999999999996,-0.014039999999999941,0.011360000000000037,0.00035999999999991594,-0.345,-0.07499999999999996,0.365,-0.009159999999999946,-0.007320000000000104,-0.0007399999999999629,1742250071.789603
-0.21999999999999997,0.040000000000000036,-0.45500000000000007,-0.019039999999999946,0.007440000000000113,0.00550000000000006,-0.345,-0.07499999999999996,0.345,0.00048000000000003595,-0.035760000000000014,0.0013400000000001189,1742250071.903402
-0.20999999999999996,0.03499999999999992,-0.45500000000000007,-0.016000000000000014,-0.008059999999999956,0.0,-0.36,-0.06499999999999995,0.345,0.0025599999999998957,-0.041019999999999945,0.014520000000000088,1742250072.017406
-0.20999999999999996,0.030000000000000027,-0.44999999999999996,0.009279999999999955,-0.01317999999999997,-0.008919999999999928,-0.385,-0.07000000000000006,0.33000000000000007,-0.0075599999999999,-0.014519999999999977,0.012939999999999952,1742250072.131448
-0.345,0.18999999999999995,-0.30499999999999994,-0.027220000000000022,-0.010140000000000038,0.00865999999999989,-0.30499999999999994,-0.38,0.10499999999999998,0.00024000000000001798,0.011600000000000055,0.0018400000000000638,1742255404.338336
-0.32499999999999996,0.19500000000000006,-0.31499999999999995,0.021120000000000028,-0.0036599999999999966,-0.01097999999999999,-0.30499999999999994,-0.355,0.1200000000000001,-0.025519999999999987,0.024540000000000006,-0.005859999999999976,1742255404.448247
-0.32000000000000006,0.17500000000000004,-0.33000000000000007,-0.04834000000000005,-0.0343,0.03394000000000008,-0.32499999999999996,-0.365,0.14000000000000012,0.0013400000000001189,0.0032999999999998586,-0.021120000000000028,1742255404.5623732
-0.32000000000000006,0.14000000000000012,-0.36,-0.006720000000000059,-0.011600000000000055,0.025020000000000042,-0.32000000000000006,-0.36,0.14000000000000012,-0.03198000000000001,0.034660000000000135,-0.006840000000000068,1742255404.678155
-0.32000000000000006,0.15500000000000003,-0.345,-0.03736000000000006,-0.031120000000000037,0.018799999999999928,-0.31499999999999995,-0.355,0.135,-0.012940000000000063,0.0295399999999999,-0.012460000000000027,1742255404.79026
-0.32499999999999996,0.14000000000000012,-0.36,-0.02501999999999993,-0.012580000000000036,0.011360000000000037,-0.31000000000000005,-0.3400000000000001,0.15500000000000003,-0.011240000000000028,0.006460000000000132,0.0018400000000000638,1742255404.904142
-0.31499999999999995,0.14000000000000012,-0.37,-0.010739999999999972,-0.0015800000000000258,-0.0048799999999999955,-0.30000000000000004,-0.33000000000000007,0.17500000000000004,-0.024899999999999922,0.0008600000000000829,0.028079999999999883,1742255405.018232
-0.31499999999999995,0.135,-0.375,-0.026619999999999977,0.006340000000000012,-0.03588000000000002,-0.31000000000000005,-0.35,0.16500000000000004,0.027579999999999938,-0.0035399999999999876,0.0027999999999999137,1742255405.132176
-0.30000000000000004,0.1200000000000001,-0.375,0.02855999999999992,0.009519999999999973,-0.0045199999999999685,-0.30000000000000004,-0.3400000000000001,0.15999999999999992,0.02075999999999989,0.0021999999999999797,-0.009639999999999982,1742255405.246131
-0.31000000000000005,0.14000000000000012,-0.365,0.01415999999999995,0.007200000000000095,0.0017000000000000348,-0.30499999999999994,-0.3400000000000001,0.15999999999999992,0.014040000000000052,0.00537999999999994,-0.01427999999999996,1742255405.3601348
-0.31499999999999995,0.14000000000000012,-0.36,0.015619999999999967,0.011600000000000055,0.018059999999999965,-0.30000000000000004,-0.355,0.14000000000000012,0.025760000000000005,-0.03320000000000001,-0.00660000000000005,1742255405.474236
-0.32000000000000006,0.15999999999999992,-0.3400000000000001,0.04699999999999993,0.03516000000000008,0.010739999999999972,-0.32000000000000006,-0.375,0.135,0.02966000000000002,-0.016840000000000077,-0.018440000000000012,1742255405.588213
-0.345,0.15500000000000003,-0.33499999999999996,0.010380000000000056,0.013539999999999885,0.021239999999999926,-0.32499999999999996,-0.345,0.11499999999999999,0.01428000000000007,-0.006099999999999994,-0.005979999999999985,1742255405.70222
-0.365,0.15999999999999992,-0.33000000000000007,0.012580000000000036,0.0329600000000001,0.010380000000000056,-0.32499999999999996,-0.3400000000000001,0.1100000000000001,0.04259999999999997,-0.023440000000000016,-0.005619999999999958,1742255405.817834
-0.355,0.15500000000000003,-0.31000000000000005,0.04405999999999999,0.03064,0.006599999999999939,-0.33499999999999996,-0.35,0.08000000000000007,0.02624000000000004,-0.013539999999999996,0.0029200000000000337,1742255405.930141
-0.365,0.16500000000000004,-0.29000000000000004,0.01746000000000003,0.021239999999999926,0.00011999999999989797,-0.3400000000000001,-0.375,0.09499999999999997,0.029179999999999984,-0.006340000000000012,0.0007399999999999629,1742255406.044132
-0.375,0.16999999999999993,-0.29000000000000004,0.041380000000000194,0.014040000000000052,-0.010619999999999963,-0.33000000000000007,-0.36,0.06000000000000005,0.0024399999999999977,-0.008539999999999992,0.0031799999999999606,1742255406.158465
-0.39,0.18999999999999995,-0.275,0.027839999999999865,0.024540000000000006,-0.00770000000000004,-0.32000000000000006,-0.375,0.050000000000000044,0.05164000000000013,0.0036599999999999966,0.0043999999999999595,1742255406.277965
-0.38,0.19999999999999996,-0.245,0.03198000000000012,0.009400000000000075,-0.001960000000000073,-0.32000000000000006,-0.375,0.030000000000000027,0.026980000000000004,0.0048799999999999955,-0.0036599999999999966,1742255406.386094
-0.39,0.20500000000000007,-0.24,0.0034199999999999786,0.0037799999999998946,-0.00012000000000000899,-0.32000000000000006,-0.365,0.03499999999999992,0.0037799999999998946,-0.0034199999999999786,0.005740000000000078,1742255406.501268
