L-AccX,L-AccY,L-AccZ,L-GyrX,L-GyrY,L-GyrZ,R-AccX,R-AccY,R-AccZ,R-GyrX,R-GyrY,R-GyrZ,timestamp
0.51,0.004999999999999893,0.21500000000000008,-0.06603999999999999,0.023440000000000127,0.016240000000000032,0.32000000000000006,-0.16500000000000004,-0.09499999999999997,-0.13061999999999996,0.02929999999999988,0.04394000000000009,1742248497.1698072
0.385,0.07000000000000006,0.14500000000000002,-0.030019999999999936,0.1573399999999998,-0.05506,0.5150000000000001,-0.2849999999999999,0.51,-0.09265999999999996,-0.03064,0.03869999999999996,1742248497.2837498
0.42500000000000004,0.02499999999999991,0.08499999999999996,0.18676000000000004,0.01770000000000005,-0.01855999999999991,0.54,-0.235,0.25,0.11572000000000005,-0.03613999999999995,-0.0601799999999999,1742248497.400526
0.49,0.004999999999999893,0.3400000000000001,-0.17858000000000007,-0.16881999999999997,0.00550000000000006,0.17999999999999994,-0.245,0.020000000000000018,0.04527999999999999,0.09704000000000002,0.005120000000000013,1742248497.51159
0.5249999999999999,0.050000000000000044,0.2450000000000001,-0.05041999999999991,0.08496000000000015,0.0,0.30499999999999994,-0.26,0.07000000000000006,-0.14148000000000005,0.02844000000000002,0.03968000000000016,1742248497.6245818
0.44999999999999996,0.040000000000000036,0.125,0.017079999999999984,0.17786000000000013,-0.051019999999999954,0.52,-0.25,0.47,-0.12365999999999999,-0.04601999999999995,0.0686,1742248497.740385
0.4099999999999999,-0.03500000000000003,-0.0050000000000000044,0.19482,0.046499999999999986,-0.04271999999999998,0.44999999999999996,-0.2849999999999999,0.27,0.04625999999999997,0.007319999999999993,-0.04027999999999998,1742248497.852563
0.43999999999999995,-0.07999999999999996,-0.030000000000000027,-0.11170000000000002,-0.19555999999999996,0.01097999999999999,0.33499999999999996,-0.18500000000000005,0.125,0.05479999999999996,0.08081999999999989,-0.015739999999999976,1742248497.9656289
0.5800000000000001,-0.10499999999999998,0.3500000000000001,-0.0022000000000000908,0.004999999999999893,-0.021600000000000064,0.2549999999999999,-0.235,0.05499999999999994,-0.16381999999999997,0.12829999999999986,0.07006000000000001,1742248498.084241
0.41500000000000004,0.05499999999999994,0.16999999999999993,0.03161999999999998,0.12597999999999998,0.025880000000000125,0.49,-0.18999999999999995,-0.07000000000000006,-0.06591999999999998,-0.06910000000000005,-0.010259999999999936,1742248498.1930208
0.29000000000000004,0.04499999999999993,-0.21499999999999997,-0.018179999999999974,0.00550000000000006,0.009640000000000093,0.595,-0.22499999999999998,0.4099999999999999,0.08484000000000003,0.016720000000000068,-0.010379999999999945,1742248498.306623
0.48,0.09499999999999997,0.2549999999999999,-0.09594000000000003,-0.11756,0.046640000000000015,0.54,-0.18999999999999995,0.11499999999999999,0.062140000000000084,0.10729999999999995,0.006220000000000114,1742248498.420446
0.635,0.02499999999999991,0.42500000000000004,-0.07020000000000004,-0.04382000000000008,-0.014039999999999941,0.18500000000000005,-0.26,-0.15000000000000002,0.02307999999999999,-0.0026799999999999047,-0.06103999999999998,1742248498.532776
0.5550000000000002,-0.03500000000000003,0.18999999999999995,0.03917999999999999,0.10694000000000004,-0.017340000000000022,0.3999999999999999,-0.25,0.30499999999999994,-0.06640000000000001,-0.08141999999999994,-0.015020000000000033,1742248498.646775
0.32499999999999996,0.135,-0.15000000000000002,-0.014519999999999977,-0.014639999999999986,0.029779999999999918,0.6299999999999999,-0.24,0.43500000000000005,0.06274000000000002,0.0329600000000001,0.031119999999999814,1742248498.761104
0.41500000000000004,0.050000000000000044,0.14000000000000012,-0.06408000000000003,-0.10668000000000011,0.01550000000000007,0.51,-0.19999999999999996,0.10000000000000009,0.04174000000000011,0.10424000000000011,0.004999999999999893,1742248498.873488
0.655,-0.06000000000000005,0.48,-0.0549400000000001,-0.04858000000000007,-0.01648000000000005,0.18999999999999995,-0.19999999999999996,-0.17000000000000004,-0.030019999999999936,-0.008179999999999965,-0.027959999999999985,1742248498.9868789
0.48,0.040000000000000036,0.2450000000000001,-0.0037800000000000056,0.12329999999999997,0.012460000000000138,0.365,-0.21999999999999997,0.14500000000000002,-0.08544000000000007,-0.10694000000000004,-0.028799999999999937,1742248499.1008892
0.355,0.004999999999999893,-0.11499999999999999,-0.05798000000000003,0.05126000000000008,0.005859999999999976,0.6699999999999999,-0.25,0.4099999999999999,-0.01415999999999995,0.006340000000000012,0.008539999999999992,1742248499.218872
0.41500000000000004,-0.05500000000000005,0.10499999999999998,-0.06335999999999997,-0.07591999999999999,0.04809999999999981,0.48,-0.235,0.16999999999999993,0.09033999999999986,0.08044000000000007,-0.03858000000000006,1742248499.3285818
0.6600000000000001,-0.11499999999999999,0.43500000000000005,-0.017940000000000067,-0.08496000000000004,-0.007320000000000104,0.19999999999999996,-0.19500000000000006,-0.15500000000000003,-0.07740000000000002,0.02942,0.013679999999999914,1742248499.442622
0.44999999999999996,0.08000000000000007,0.2650000000000001,-0.018919999999999937,0.10179999999999989,0.01097999999999999,0.3400000000000001,-0.265,0.19500000000000006,-0.09460000000000002,-0.07386000000000004,-0.028799999999999937,1742248499.556742
0.3400000000000001,0.06000000000000005,-0.09999999999999998,-0.032480000000000064,0.0623800000000001,0.0014600000000000168,0.645,-0.22999999999999998,0.41999999999999993,-0.019279999999999964,-0.011720000000000064,0.011600000000000055,1742248499.6706529
0.45999999999999996,-0.07999999999999996,0.1499999999999999,-0.17884,-0.05725999999999998,0.048699999999999966,0.55,-0.18999999999999995,0.1100000000000001,0.10851999999999995,0.06152000000000002,-0.006720000000000059,1742248499.7844548
0.7149999999999999,-0.17999999999999994,0.41999999999999993,-0.0031799999999999606,-0.047719999999999985,-0.024660000000000015,0.21500000000000008,-0.28,-0.16500000000000004,-0.10729999999999995,0.03051999999999988,0.045539999999999914,1742248499.901816
0.5350000000000001,-0.020000000000000018,0.2250000000000001,-0.052000000000000046,0.015260000000000051,-0.007080000000000086,0.355,-0.20999999999999996,0.1200000000000001,0.007560000000000011,-0.11596000000000006,-0.03588000000000002,1742248500.011594
0.33499999999999996,-0.010000000000000009,-0.040000000000000036,0.08460000000000001,0.08790000000000009,-0.04039999999999999,0.575,-0.31499999999999995,0.33499999999999996,0.012700000000000156,-0.03979999999999995,0.047599999999999865,1742248500.125512
0.395,0.06499999999999995,0.020000000000000018,0.21374000000000004,-0.020499999999999963,-0.1224400000000001,0.45500000000000007,-0.255,0.2450000000000001,0.06359999999999988,0.06396000000000002,0.06335999999999986,1742248500.2415118
0.51,-0.16000000000000003,0.06000000000000005,-0.009279999999999955,-0.17236000000000007,-0.03283999999999998,0.31499999999999995,-0.16500000000000004,0.07499999999999996,0.05821999999999994,0.0966800000000001,0.06896000000000013,1742248500.351344
0.55,-0.06000000000000005,0.25,-0.03917999999999999,0.02624000000000004,0.007079999999999975,0.405,0.06499999999999995,-0.03500000000000003,-0.07713999999999999,-0.023320000000000007,0.03747999999999996,1742248500.464571
0.41999999999999993,-0.040000000000000036,0.09499999999999997,-0.05479999999999996,0.14793999999999996,0.012580000000000036,0.43999999999999995,-0.32499999999999996,0.17999999999999994,-0.08153999999999995,-0.09301999999999999,-0.028200000000000003,1742248500.585521
0.3999999999999999,-0.010000000000000009,0.004999999999999893,0.07103999999999999,-0.005859999999999976,0.03222000000000014,0.53,-0.245,0.16999999999999993,0.05455999999999994,0.020499999999999963,-0.021600000000000064,1742248500.692454
0.52,-0.07999999999999996,0.0,0.02088000000000001,-0.14172000000000007,0.052000000000000046,0.33499999999999996,-0.125,0.06499999999999995,0.055299999999999905,0.048960000000000115,-0.005859999999999976,1742248500.805442
0.4950000000000001,-0.16000000000000003,0.24,-0.0857,0.033440000000000136,0.03320000000000012,0.30000000000000004,-0.11499999999999999,0.05499999999999994,-0.1886,0.09007999999999994,0.02210000000000001,1742248500.9220438
0.48,-0.08999999999999997,0.07000000000000006,-0.10887999999999998,0.20043999999999995,0.04064000000000001,0.41500000000000004,-0.4,0.23499999999999988,-0.06665999999999994,-0.24803999999999993,-0.06652000000000002,1742248501.033689
0.44999999999999996,0.03499999999999992,-0.07999999999999996,0.1665000000000001,0.018799999999999928,-0.04039999999999999,0.5150000000000001,-0.27,0.26,0.1177999999999999,0.020620000000000083,-0.04724000000000006,1742248501.147464
0.5150000000000001,-0.010000000000000009,-0.030000000000000027,0.0019599999999999618,-0.16601999999999995,0.02746000000000004,0.3400000000000001,-0.17500000000000004,0.1499999999999999,0.10314000000000001,0.07618000000000014,-0.01097999999999999,1742248501.262192
0.54,-0.135,0.25,-0.00878000000000001,-0.043340000000000045,0.01415999999999995,0.29000000000000004,-0.235,0.05499999999999994,-0.13561999999999996,0.13318000000000008,0.07618000000000014,1742248501.382087
0.51,0.004999999999999893,0.10499999999999998,-0.048820000000000086,0.10498000000000007,0.007079999999999975,0.43500000000000005,-0.19999999999999996,-0.07999999999999996,0.011360000000000037,-0.14808,-0.04283999999999999,1742248501.489677
0.31499999999999995,0.10000000000000009,-0.19500000000000006,0.0037799999999998946,-0.04932000000000003,-0.0017000000000000348,0.585,-0.24,0.29499999999999993,0.10864000000000007,0.05176000000000003,-0.007320000000000104,1742248501.603478
0.43500000000000005,0.030000000000000027,0.16500000000000004,-0.20079999999999998,-0.11048000000000002,0.08020000000000005,0.45999999999999996,-0.21999999999999997,0.09000000000000008,0.011239999999999917,0.09899999999999998,0.0029200000000000337,1742248501.722794
0.6499999999999999,-0.07000000000000006,0.3999999999999999,0.010499999999999954,-0.052000000000000046,-0.009279999999999955,0.23499999999999988,-0.17999999999999994,-0.18500000000000005,0.01966000000000001,-0.021720000000000073,-0.04161999999999999,1742248501.830719
0.405,0.06499999999999995,0.2749999999999999,-0.02100000000000002,0.13758000000000004,0.00878000000000001,0.375,-0.22499999999999998,0.10499999999999998,-0.09314,-0.06262000000000001,-0.03736000000000006,1742248501.9446678
0.30000000000000004,0.14500000000000002,-0.18500000000000005,0.040159999999999973,-0.011600000000000055,-0.011240000000000028,0.655,-0.28,0.41500000000000004,0.05848000000000009,0.012320000000000109,-0.010140000000000038,1742248502.064647
0.4650000000000001,0.14500000000000002,0.17500000000000004,-0.19481999999999988,-0.09605999999999992,0.06702000000000008,0.55,-0.17500000000000004,0.10499999999999998,0.04601999999999995,0.09483999999999981,-0.009759999999999991,1742248502.172493
0.655,-0.10499999999999998,0.41999999999999993,0.020499999999999963,-0.02734000000000003,-0.048820000000000086,0.1499999999999999,-0.255,-0.15500000000000003,-0.03967999999999994,-0.005120000000000013,-0.019399999999999973,1742248502.2867892
0.4650000000000001,0.05499999999999994,0.24,-0.04039999999999999,0.09460000000000002,0.0006200000000000649,0.3599999999999999,-0.255,0.19500000000000006,-0.12390000000000001,-0.08129999999999993,-0.016960000000000086,1742248502.402891
0.31499999999999995,0.04499999999999993,-0.22999999999999998,0.00035999999999991594,0.04150000000000009,-0.0040200000000000236,0.605,-0.21499999999999997,0.43500000000000005,-0.060659999999999936,0.006839999999999957,0.020499999999999963,1742248502.514494
0.4750000000000001,0.050000000000000044,0.17999999999999994,-0.20141999999999993,-0.12084000000000006,0.06811999999999996,0.49,-0.20999999999999996,0.14000000000000012,0.06824000000000008,0.11583999999999994,0.01110000000000011,1742248502.628372
0.605,-0.10499999999999998,0.4099999999999999,-0.019399999999999973,-0.07410000000000005,-0.03051999999999999,0.22999999999999998,-0.17999999999999994,-0.11499999999999999,-0.09460000000000002,0.03723999999999994,0.018059999999999965,1742248502.742899
0.45500000000000007,0.04499999999999993,0.20500000000000007,0.045539999999999914,0.1435599999999999,-0.033440000000000025,0.48,-0.22999999999999998,-0.020000000000000018,0.009039999999999937,-0.17322000000000004,-0.01636000000000004,1742248502.862218
0.355,0.050000000000000044,-0.14,-0.03382000000000007,0.00537999999999994,0.001100000000000101,0.5249999999999999,-0.21499999999999997,0.28,0.019400000000000084,0.03869999999999996,-0.021720000000000073,1742248502.970492
0.43999999999999995,0.19999999999999996,0.06499999999999995,0.03709999999999991,-0.09631999999999996,0.016119999999999912,0.395,-0.18999999999999995,0.11499999999999999,0.06372,0.10888000000000009,-0.016720000000000068,1742248503.086162
0.5899999999999999,-0.03500000000000003,0.395,-0.08665999999999996,-0.02844000000000002,0.013800000000000034,0.2650000000000001,-0.20499999999999996,-0.010000000000000009,-0.11036000000000001,0.09558,0.01868000000000003,1742248503.202618
0.4849999999999999,-0.08499999999999996,0.06000000000000005,-0.17908000000000002,0.16602000000000006,0.010259999999999936,0.4099999999999999,-0.33499999999999996,0.07000000000000006,-0.11694000000000004,-0.2723399999999999,-0.014039999999999941,1742248503.312617
0.3900000000000001,0.135,-0.030000000000000027,0.13683999999999985,0.02171999999999996,-0.08435999999999999,0.52,-0.28,0.30499999999999994,0.05553999999999992,0.03917999999999999,-0.009279999999999955,1742248503.426337
0.47,-0.030000000000000027,-0.05500000000000005,0.09020000000000006,-0.1543,-0.02942,0.32499999999999996,-0.20499999999999996,0.06000000000000005,0.0968,0.10206000000000004,0.03625999999999996,1742248503.5451572
0.5550000000000002,0.020000000000000018,0.30499999999999994,-0.07604,0.03956000000000004,-0.011840000000000073,0.29499999999999993,-0.125,-0.040000000000000036,-0.09399999999999997,0.07543999999999995,0.03735999999999984,1742248503.653497
0.44999999999999996,0.1200000000000001,0.1499999999999999,-0.029059999999999975,0.15063999999999989,-0.03308,0.4750000000000001,-0.18500000000000005,0.014999999999999902,-0.005619999999999958,-0.23938000000000004,0.007560000000000011,1742248503.767475
0.3999999999999999,-0.030000000000000027,-0.18999999999999995,0.06957999999999998,-0.009759999999999991,-0.02844000000000002,0.51,-0.19999999999999996,0.3799999999999999,0.049919999999999964,0.0045200000000000795,-0.01978000000000002,1742248503.883264
0.45500000000000007,0.15999999999999992,0.030000000000000027,-0.03394000000000008,-0.12426000000000004,0.03649999999999998,0.395,-0.21499999999999997,0.15999999999999992,0.05675999999999992,0.11853999999999987,0.0031799999999999606,1742248504.003433
0.5800000000000001,-0.04500000000000004,0.31499999999999995,-0.027959999999999985,-0.03503999999999996,-0.04527999999999999,0.29499999999999993,-0.11499999999999999,-0.030000000000000027,-0.10887999999999998,0.11743999999999999,0.041380000000000194,1742248504.108516
0.51,-0.025000000000000022,0.10000000000000009,-0.010259999999999936,0.12134,-0.013299999999999979,0.44500000000000006,-0.19999999999999996,0.004999999999999893,0.006220000000000114,-0.19677999999999995,0.01208000000000009,1742248504.2233212
0.33000000000000007,0.10000000000000009,-0.245,-0.0023200000000000998,-0.053220000000000045,0.017079999999999984,0.575,-0.125,0.3700000000000001,0.052240000000000064,0.054079999999999906,0.0006200000000000649,1742248504.343165
0.5150000000000001,0.04499999999999993,0.1100000000000001,-0.03748000000000007,-0.16236000000000006,0.03051999999999988,0.45500000000000007,-0.135,0.08499999999999996,0.09948000000000001,0.08557999999999999,-0.02758000000000005,1742248504.4494889
0.5,-0.050000000000000044,0.31000000000000005,-0.06408000000000003,0.027220000000000022,0.024900000000000144,0.27,-0.17999999999999994,0.030000000000000027,-0.12341999999999997,0.0836199999999998,0.038819999999999855,1742248504.566699
0.4650000000000001,-0.040000000000000036,0.04499999999999993,-0.009519999999999973,0.12316000000000016,-0.018179999999999974,0.45500000000000007,-0.255,0.18999999999999995,-0.10339999999999994,-0.20299999999999996,0.08704,1742248504.683102
0.45999999999999996,0.004999999999999893,-0.015000000000000013,0.14868000000000015,-0.058479999999999976,-0.05152000000000001,0.56,-0.24,0.22999999999999998,0.1654,0.06567999999999996,-0.04565999999999992,1742248504.791306
0.45999999999999996,0.1200000000000001,0.33499999999999996,-0.059700000000000086,-0.19372,-0.017820000000000058,0.44500000000000006,-0.08999999999999997,0.0,0.11548000000000003,0.1190199999999999,-0.017940000000000067,1742248504.9053912
0.4750000000000001,-0.04500000000000004,0.30000000000000004,-0.05455999999999994,0.1433199999999999,0.02210000000000001,0.28,-0.125,-0.07499999999999996,-0.1925,0.017079999999999984,0.02648000000000006,1742248505.025502
0.49,-0.025000000000000022,0.04499999999999993,-0.0013400000000000079,0.14403999999999995,-0.019159999999999955,0.5,-0.18500000000000005,-0.0050000000000000044,0.032480000000000064,-0.22265999999999997,-0.03149999999999997,1742248505.133485
0.45500000000000007,0.04499999999999993,0.050000000000000044,0.11485999999999996,-0.0029199999999999227,-0.02391999999999994,0.605,-0.17000000000000004,0.19999999999999996,0.15344000000000002,-0.01208000000000009,-0.014519999999999977,1742248505.24739
0.4650000000000001,-0.025000000000000022,0.014999999999999902,-0.024660000000000015,-0.15222000000000002,0.03405999999999998,0.365,-0.125,0.10000000000000009,0.046499999999999986,0.09314,-0.0031799999999999606,1742248505.364757
0.51,-0.07999999999999996,0.26,-0.028320000000000012,-0.0006199999999999539,0.011239999999999917,0.31499999999999995,-0.16000000000000003,0.06499999999999995,-0.08886000000000005,0.042119999999999935,0.024780000000000024,1742248505.474298
0.4849999999999999,-0.010000000000000009,0.10499999999999998,-0.07458000000000009,0.11499999999999999,0.022340000000000027,0.4650000000000001,-0.19999999999999996,0.0,-0.06359999999999999,-0.11536000000000002,-0.018059999999999965,1742248505.5875251
0.44999999999999996,0.07499999999999996,0.06499999999999995,0.020499999999999963,-0.041139999999999954,-0.03637999999999997,0.6099999999999999,-0.17999999999999994,0.2749999999999999,0.13134,-0.0048799999999999955,-0.019540000000000002,1742248505.7048829
0.49,-0.04500000000000004,-0.015000000000000013,0.02404000000000006,-0.16394000000000009,0.03479999999999994,0.3799999999999999,-0.15000000000000002,0.135,0.07481999999999989,0.10167999999999999,-0.0026799999999999047,1742248505.8244438
0.565,-0.08499999999999996,0.355,0.014399999999999968,-0.017820000000000058,0.017220000000000013,0.30499999999999994,-0.19999999999999996,0.004999999999999893,-0.05700000000000005,0.07678000000000007,0.007200000000000095,1742248505.92926
0.4650000000000001,0.040000000000000036,0.1499999999999999,-0.019159999999999955,0.1408600000000002,0.0024399999999999977,0.3999999999999999,-0.19999999999999996,-0.03500000000000003,-0.08020000000000005,-0.11438000000000004,-0.026980000000000004,1742248506.045587
0.375,0.020000000000000018,-0.12,0.08642000000000016,-0.011720000000000064,-0.02185999999999999,0.55,-0.22999999999999998,0.24,0.0709200000000001,0.015020000000000033,0.010620000000000074,1742248506.164075
0.45999999999999996,0.15999999999999992,0.030000000000000027,-0.03308,-0.10462000000000005,0.011840000000000073,0.41999999999999993,-0.235,0.14000000000000012,0.03992000000000018,0.06433999999999984,-0.026859999999999995,1742248506.270288
0.575,-0.030000000000000027,0.30000000000000004,-0.08020000000000005,-0.0042799999999999505,0.0026800000000000157,0.32000000000000006,-0.13,-0.050000000000000044,-0.10644000000000009,0.08606000000000003,0.0341800000000001,1742248506.384479
0.45500000000000007,0.010000000000000009,0.135,-0.05628,0.06529999999999991,0.0021999999999999797,0.3500000000000001,-0.18500000000000005,-0.025000000000000022,-0.08629999999999993,-0.07689999999999997,-0.03491999999999995,1742248506.504283
0.385,0.1200000000000001,-0.06499999999999995,-0.04467999999999994,-0.03186,0.0041599999999999415,0.605,-0.17000000000000004,0.27,0.03956000000000004,0.024780000000000024,-0.036739999999999995,1742248506.6123369
0.395,0.2250000000000001,0.030000000000000027,0.07335999999999987,-0.11646000000000001,-0.02294000000000007,0.4099999999999999,-0.19500000000000006,0.14500000000000002,0.06761999999999979,0.07579999999999987,0.0042800000000000615,1742248506.7261598
0.5449999999999999,-0.06000000000000005,0.365,-0.022700000000000053,-0.01208000000000009,-0.0041599999999999415,0.30000000000000004,-0.16000000000000003,-0.12,-0.11485999999999996,0.05577999999999994,0.04051999999999989,1742248506.843928
0.47,0.02499999999999991,0.15500000000000003,0.01990000000000003,0.1324400000000001,-0.025519999999999987,0.3700000000000001,-0.235,0.1100000000000001,-0.02185999999999999,-0.16759999999999997,-0.03710000000000002,1742248506.953465
0.3700000000000001,0.07000000000000006,-0.14500000000000002,-0.03051999999999999,0.03723999999999994,-0.00048000000000003595,0.6099999999999999,-0.17500000000000004,0.3799999999999999,-0.03637999999999997,-0.021120000000000028,-0.02954000000000001,1742248507.0676448
0.4650000000000001,0.24,0.14500000000000002,-0.21448,-0.08094000000000001,0.08153999999999995,0.52,-0.19500000000000006,0.10499999999999998,0.07861999999999991,0.07409999999999983,0.012939999999999952,1742248507.184577
0.6400000000000001,-0.11499999999999999,0.45999999999999996,-0.035519999999999996,-0.07713999999999999,-0.023320000000000007,0.20999999999999996,-0.22999999999999998,-0.19500000000000006,-0.05113999999999996,0.04711999999999983,0.03479999999999994,1742248507.29443
0.405,0.014999999999999902,0.21999999999999997,0.019039999999999946,0.07909999999999995,-0.03858000000000006,0.3500000000000001,-0.27,0.05499999999999994,-0.07752000000000003,-0.17077999999999993,-0.030019999999999936,1742248507.408492
0.3700000000000001,0.04499999999999993,-0.17000000000000004,-0.001960000000000073,0.060799999999999965,-0.0050000000000000044,0.6400000000000001,-0.15500000000000003,0.42999999999999994,-0.026980000000000004,-0.015739999999999976,-0.018179999999999974,1742248507.525572
0.47,0.17500000000000004,0.20500000000000007,-0.20922000000000007,-0.09251999999999994,0.07898000000000005,0.53,-0.20499999999999996,0.125,0.09997999999999996,0.1203599999999998,0.0047600000000000975,1742248507.645259
0.625,-0.09499999999999997,0.45999999999999996,-0.04589999999999994,-0.04822000000000004,0.0045200000000000795,0.2450000000000001,-0.25,-0.18999999999999995,-0.023559999999999914,0.025880000000000125,0.0307599999999999,1742248507.7492962
0.395,0.014999999999999902,0.16999999999999993,-0.0029199999999999227,0.09533999999999998,-0.037839999999999985,0.385,-0.21999999999999997,0.11499999999999999,-0.03405999999999998,-0.125,-0.030399999999999983,1742248507.8652291
0.3400000000000001,0.1100000000000001,-0.13,-0.0047599999999999865,0.03527999999999998,0.013299999999999867,0.6099999999999999,-0.21499999999999997,0.4099999999999999,0.00550000000000006,0.0014600000000000168,-0.009039999999999937,1742248507.984819
0.43999999999999995,0.15999999999999992,0.1100000000000001,-0.054200000000000026,-0.058599999999999985,0.01966000000000001,0.49,-0.20999999999999996,0.16999999999999993,0.09716000000000014,0.06896000000000013,0.01415999999999995,1742248508.091155
0.6400000000000001,0.08000000000000007,0.3799999999999999,-0.08948,-0.06396000000000002,0.016960000000000086,0.2450000000000001,-0.235,-0.08999999999999997,0.08850000000000002,0.025020000000000042,0.03516000000000008,1742248508.205557
0.5049999999999999,0.014999999999999902,0.21999999999999997,-0.005499999999999949,0.02733999999999992,-0.028679999999999928,0.3900000000000001,-0.08499999999999996,-0.025000000000000022,-0.12487999999999999,0.026619999999999866,0.07885999999999993,1742248508.3244128
0.3400000000000001,0.03499999999999992,0.030000000000000027,0.11853999999999987,0.11743999999999999,-0.04137999999999997,0.5800000000000001,-0.24,0.5150000000000001,-0.06128,-0.08275999999999994,-0.002080000000000082,1742248508.432395
0.44999999999999996,-0.08499999999999996,0.02499999999999991,0.16833999999999993,-0.06494000000000011,-0.053340000000000054,0.4099999999999999,-0.21499999999999997,0.31499999999999995,0.09118000000000004,0.08264000000000005,0.01966000000000001,1742248508.546404
0.5899999999999999,-0.12,0.31499999999999995,0.04503999999999997,-0.10289999999999999,-0.02403999999999995,0.30499999999999994,-0.16500000000000004,0.004999999999999893,0.09483999999999981,0.07190000000000007,0.05235999999999996,1742248508.665374
0.53,-0.06000000000000005,0.23499999999999988,-0.07835999999999999,0.08448000000000011,0.03980000000000006,0.3599999999999999,-0.05500000000000005,-0.04500000000000004,-0.14085999999999999,-0.006340000000000012,0.01097999999999999,1742248508.7723782
0.355,0.050000000000000044,0.07499999999999996,0.021600000000000064,0.1408600000000002,0.0009799999999999809,0.54,-0.255,0.24,-0.07811999999999997,-0.18006,0.00770000000000004,1742248508.886282
0.3900000000000001,-0.06000000000000005,-0.020000000000000018,0.12866,-0.010259999999999936,0.012460000000000138,0.5150000000000001,-0.19999999999999996,0.23499999999999988,0.10705999999999993,0.014399999999999968,-0.008539999999999992,1742248509.004719
0.53,0.135,0.20500000000000007,-0.03479999999999994,-0.17589999999999995,0.030279999999999863,0.3500000000000001,-0.14,0.08000000000000007,0.08240000000000003,0.11229999999999984,-0.03382000000000007,1742248509.114281
0.4950000000000001,-0.030000000000000027,0.24,-0.07689999999999997,0.060920000000000085,0.04479999999999995,0.29000000000000004,-0.13,-0.04500000000000004,-0.14344,0.07764000000000015,0.016960000000000086,1742248509.228352
0.5,-0.0050000000000000044,0.08499999999999996,-0.07116,0.1212200000000001,0.02929999999999988,0.4650000000000001,-0.235,0.02499999999999991,0.02307999999999999,-0.22729999999999995,-0.021120000000000028,1742248509.3442729
0.43999999999999995,0.020000000000000018,0.07000000000000006,0.15052,0.05371999999999999,-0.02061999999999997,0.5550000000000002,-0.245,0.24,0.1177999999999999,-0.001960000000000073,-0.04515999999999998,1742248509.464907
0.47,0.004999999999999893,-0.020000000000000018,0.006960000000000077,-0.17872,0.036619999999999875,0.3500000000000001,-0.15000000000000002,0.10000000000000009,0.11621999999999999,0.09522000000000008,-0.03967999999999994,1742248509.570227
0.5,-0.06000000000000005,0.2650000000000001,-0.04736000000000007,0.02855999999999992,0.025640000000000107,0.26,-0.24,0.020000000000000018,-0.16834000000000005,0.08507999999999982,0.027220000000000022,1742248509.684822
0.52,0.04499999999999993,0.08499999999999996,-0.09729999999999994,0.12329999999999997,0.025760000000000005,0.49,-0.24,0.014999999999999902,-0.08460000000000001,-0.14672000000000007,-0.006099999999999994,1742248509.804734
0.48,0.05499999999999994,0.020000000000000018,0.10438000000000014,0.0008600000000000829,-0.014639999999999986,0.5449999999999999,-0.21999999999999997,0.15999999999999992,0.13159999999999994,0.0030599999999998406,-0.02429999999999999,1742248509.91213
0.44999999999999996,0.04499999999999993,0.135,-0.07579999999999998,-0.24084000000000005,0.11621999999999999,0.33000000000000007,-0.16000000000000003,0.15999999999999992,0.10376000000000007,0.07055999999999996,-0.016240000000000032,1742248510.025538
0.52,0.010000000000000009,0.29000000000000004,-0.04920000000000002,0.014899999999999913,0.05603999999999987,0.31000000000000005,-0.275,-0.06499999999999995,-0.19799999999999995,0.15002000000000004,0.033560000000000034,1742248510.14481
0.4849999999999999,0.07499999999999996,0.08499999999999996,-0.026859999999999995,0.15466000000000002,-0.06568000000000007,0.45999999999999996,-0.32499999999999996,0.15500000000000003,0.007200000000000095,-0.25878,0.05468000000000006,1742248510.253154
0.41999999999999993,0.1100000000000001,0.010000000000000009,0.13329999999999997,0.00048000000000003595,-0.0232,0.5150000000000001,-0.32499999999999996,0.17500000000000004,0.09620000000000006,0.032480000000000064,0.007440000000000113,1742248510.36699
0.4950000000000001,0.06499999999999995,0.07000000000000006,-0.016720000000000068,-0.16881999999999997,-0.05958000000000008,0.3599999999999999,-0.16000000000000003,0.10499999999999998,0.11768,0.08203999999999989,0.029059999999999864,1742248510.484523
0.54,-0.06499999999999995,0.2549999999999999,-0.09460000000000002,0.032480000000000064,0.01428000000000007,0.25,-0.135,-0.025000000000000022,-0.20410000000000006,0.11646000000000001,0.027579999999999938,1742248510.59334
0.4099999999999999,0.03499999999999992,0.08499999999999996,-0.057499999999999996,0.10046,-0.0025599999999998957,0.4650000000000001,-0.4,0.2650000000000001,-0.03588000000000002,-0.23096000000000005,0.002080000000000082,1742248510.707197
0.395,0.02499999999999991,-0.020000000000000018,0.09606000000000003,0.0048799999999999955,-0.005859999999999976,0.5150000000000001,-0.27,0.17999999999999994,0.08861999999999992,0.005740000000000078,-0.055419999999999914,1742248510.824091
0.44500000000000006,0.030000000000000027,0.33499999999999996,-0.06446000000000007,-0.18274,0.0039000000000000146,0.31499999999999995,-0.18500000000000005,0.11499999999999999,0.04468000000000005,0.1308600000000002,0.0037799999999998946,1742248510.9354382
0.4950000000000001,0.010000000000000009,0.2849999999999999,-0.12170000000000003,0.06616,0.07496000000000014,0.2849999999999999,-0.15000000000000002,-0.050000000000000044,-0.15796,0.01635999999999993,0.0030599999999998406,1742248511.048362
0.355,0.06499999999999995,0.10499999999999998,-0.053340000000000054,0.18090000000000006,-0.02734000000000003,0.45500000000000007,-0.385,0.2250000000000001,-0.09594000000000003,-0.24584000000000006,0.015139999999999931,1742248511.165026
0.3799999999999999,-0.0050000000000000044,-0.07000000000000006,0.08507999999999982,-0.043340000000000045,0.01195999999999997,0.49,-0.31499999999999995,0.19500000000000006,0.12170000000000014,-0.02648000000000006,-0.06384000000000001,1742248511.2851222
0.52,0.16500000000000004,0.4099999999999999,0.09129999999999994,-0.13868000000000003,-0.05003999999999997,0.29499999999999993,-0.16500000000000004,-0.010000000000000009,0.1277999999999999,0.06469999999999998,-0.033320000000000016,1742248511.390264
0.48,0.1499999999999999,0.22999999999999998,-0.022340000000000027,0.09472000000000014,-0.019540000000000002,0.28,-0.18999999999999995,0.10499999999999998,-0.08240000000000003,-0.010379999999999945,0.016720000000000068,1742248511.505834
0.32499999999999996,0.09499999999999997,-0.0050000000000000044,0.05577999999999994,0.1435599999999999,0.0018400000000000638,0.595,-0.29499999999999993,0.585,-0.08508000000000004,-0.03748000000000007,0.020019999999999927,1742248511.624821
0.405,0.07000000000000006,-0.040000000000000036,0.1915199999999999,-0.03394000000000008,-0.06152000000000002,0.45500000000000007,-0.28,0.29499999999999993,0.0023200000000000998,0.031380000000000186,-0.011840000000000073,1742248511.732141
0.47,0.07000000000000006,0.31000000000000005,-0.04810000000000003,-0.1272000000000001,-0.016720000000000068,0.28,-0.32000000000000006,0.08499999999999996,0.11607999999999996,0.12378,0.046499999999999986,1742248511.848662
0.55,0.03499999999999992,0.29499999999999993,-0.06237999999999999,-0.00770000000000004,0.014399999999999968,0.375,-0.135,0.02499999999999991,-0.03051999999999999,0.0662799999999999,0.022699999999999942,1742248511.964559
0.48,0.0,0.18500000000000005,0.030999999999999917,0.13623999999999992,-0.05176000000000003,0.575,-0.25,0.004999999999999893,0.05750000000000011,-0.22998000000000007,0.03845999999999994,1742248512.0730371
0.405,0.050000000000000044,0.030000000000000027,0.09498000000000006,0.011239999999999917,-0.019279999999999964,0.54,-0.22499999999999998,0.22999999999999998,0.11158000000000001,0.012820000000000054,-0.05896000000000001,1742248512.1871092
0.385,-0.040000000000000036,-0.05500000000000005,0.08055999999999996,-0.20446000000000009,-0.0006199999999999539,0.33000000000000007,-0.17500000000000004,0.18999999999999995,0.10314000000000001,0.1177999999999999,0.005859999999999976,1742248512.3042629
0.6000000000000001,-0.12,0.5699999999999998,-0.013299999999999979,-0.02391999999999994,-0.007080000000000086,0.2250000000000001,-0.20499999999999996,-0.09999999999999998,-0.09753999999999996,0.09644000000000008,0.03210000000000002,1742248512.42405
0.4099999999999999,-0.030000000000000027,0.26,-0.03051999999999999,0.15942000000000012,0.01977999999999991,0.375,-0.27,0.29000000000000004,-0.18408000000000002,-0.1177999999999999,-0.013679999999999914,1742248512.52928
0.3500000000000001,0.11499999999999999,-0.13,-0.008919999999999928,0.05761999999999978,-0.0035399999999999876,0.69,-0.16000000000000003,0.45500000000000007,-0.007080000000000086,-0.010739999999999972,-0.00770000000000004,1742248512.644931
0.3999999999999999,0.23499999999999988,0.15999999999999992,-0.04310000000000003,-0.10144000000000009,0.03233999999999981,0.5249999999999999,-0.24,0.11499999999999999,0.05298000000000003,0.10057999999999989,0.009640000000000093,1742248512.764549
0.6600000000000001,-0.06499999999999995,0.5350000000000001,-0.0023200000000000998,-0.07116,-0.03417999999999999,0.19999999999999996,-0.15500000000000003,-0.16500000000000004,-0.03820000000000001,0.01415999999999995,-0.022460000000000035,1742248512.87136
0.3799999999999999,0.04499999999999993,0.22999999999999998,-0.06041999999999992,0.18444000000000016,0.016599999999999948,0.3700000000000001,-0.265,0.2849999999999999,-0.11462000000000006,-0.08362000000000003,0.0006200000000000649,1742248512.985121
0.3400000000000001,0.1499999999999999,-0.235,0.0329600000000001,0.017220000000000013,-0.020499999999999963,0.54,-0.22499999999999998,0.385,0.03442000000000012,0.009879999999999889,-0.019159999999999955,1742248513.104287
0.41500000000000004,0.1100000000000001,0.010000000000000009,-0.037959999999999994,-0.15552,0.03503999999999996,0.42999999999999994,-0.16500000000000004,0.19999999999999996,0.07323999999999997,0.10729999999999995,0.006599999999999939,1742248513.211984
0.5899999999999999,-0.125,0.45500000000000007,-0.010619999999999963,-0.0232,0.0009799999999999809,0.26,-0.18999999999999995,-0.0050000000000000044,-0.056520000000000015,0.04833999999999983,-0.0041599999999999415,1742248513.3261929
0.44500000000000006,0.06499999999999995,0.1200000000000001,0.00878000000000001,0.13853999999999989,-0.02185999999999999,0.4750000000000001,-0.22999999999999998,0.03499999999999992,-0.09326000000000001,-0.04736000000000007,0.007079999999999975,1742248513.4449332
0.45999999999999996,0.030000000000000027,0.10499999999999998,0.14904000000000006,0.007200000000000095,-0.03064,0.53,-0.245,0.18500000000000005,0.07666000000000017,-0.011099999999999999,-0.03724000000000005,1742248513.5541189
0.395,0.004999999999999893,-0.07499999999999996,-0.037959999999999994,-0.22105999999999992,0.01195999999999997,0.33499999999999996,-0.17999999999999994,0.19999999999999996,0.07335999999999987,0.18457999999999997,0.02540000000000009,1742248513.6678982
0.45999999999999996,0.04499999999999993,0.28,-0.05737999999999999,0.06872000000000011,0.006099999999999994,0.32499999999999996,-0.14500000000000002,0.07499999999999996,-0.10253999999999996,0.014780000000000015,0.02746000000000004,1742248513.7852118
0.45999999999999996,-0.020000000000000018,0.1299999999999999,-0.051019999999999954,0.15942000000000012,-0.0015800000000000258,0.4650000000000001,-0.33499999999999996,0.31000000000000005,-0.11181999999999992,-0.1945800000000001,0.01415999999999995,1742248513.9047198
0.45500000000000007,0.020000000000000018,0.10000000000000009,0.19324000000000008,0.01097999999999999,-0.03173999999999999,0.5,-0.28,0.21999999999999997,0.10840000000000005,-0.06835999999999998,-0.06811999999999996,1742248514.0090802
0.375,-0.030000000000000027,0.09000000000000008,-0.09020000000000006,-0.20520000000000005,-0.0017000000000000348,0.29000000000000004,-0.245,0.15500000000000003,0.11229999999999984,0.1717599999999999,-0.0012199999999999989,1742248514.125438
0.5150000000000001,0.030000000000000027,0.33499999999999996,-0.05346000000000006,0.03370000000000006,0.010000000000000009,0.33499999999999996,-0.14500000000000002,-0.030000000000000027,-0.07311999999999996,0.07555999999999985,0.06285999999999992,1742248514.245276
0.4099999999999999,0.020000000000000018,0.135,0.015619999999999967,0.17090000000000005,-0.01415999999999995,0.52,-0.35,0.3500000000000001,-0.05908000000000002,-0.27076,0.013539999999999885,1742248514.35114
0.395,0.0,-0.015000000000000013,0.10289999999999999,-0.0025599999999998957,-0.0012199999999999989,0.48,-0.275,0.18500000000000005,0.14281999999999995,-0.02942,-0.060799999999999965,1742248514.4651148
0.5,0.07499999999999996,0.3400000000000001,-0.08374000000000004,-0.14758000000000004,0.01305999999999985,0.30000000000000004,-0.17500000000000004,0.06499999999999995,0.08618000000000015,0.10376000000000007,-0.022340000000000027,1742248514.588209
0.5150000000000001,0.08499999999999996,0.2450000000000001,-0.07434000000000007,0.11328000000000005,0.02307999999999999,0.33499999999999996,-0.19999999999999996,0.040000000000000036,-0.07922000000000007,-0.023559999999999914,0.024540000000000006,1742248514.693158
0.42500000000000004,0.09000000000000008,0.09000000000000008,0.023800000000000043,0.10083999999999982,-0.03394000000000008,0.47,-0.43500000000000005,0.32000000000000006,-0.11131999999999997,-0.18946000000000007,0.025640000000000107,1742248514.807068
0.395,0.0,-0.06499999999999995,0.046499999999999986,-0.0514,-0.017940000000000067,0.375,-0.28,0.33499999999999996,0.09411999999999998,0.005619999999999958,-0.03736000000000006,1742248514.924939
0.56,0.02499999999999991,0.3799999999999999,-0.05834000000000006,-0.17101999999999995,0.006960000000000077,0.26,-0.19500000000000006,0.020000000000000018,0.06006,0.08898000000000006,0.008539999999999992,1742248515.0348842
0.45999999999999996,0.11499999999999999,0.23499999999999988,-0.017340000000000022,0.054200000000000026,0.023679999999999923,0.29000000000000004,-0.19500000000000006,0.06000000000000005,-0.05577999999999994,-0.052120000000000055,-0.02415999999999996,1742248515.148227
0.29000000000000004,0.04499999999999993,-0.015000000000000013,0.052000000000000046,0.1822600000000001,0.01305999999999985,0.5899999999999999,-0.27,0.51,-0.07886000000000004,-0.05908000000000002,0.020620000000000083,1742248515.264787
0.385,0.06000000000000005,-0.07499999999999996,0.04932000000000003,-0.07091999999999998,0.00782000000000016,0.4099999999999999,-0.27,0.29499999999999993,0.04283999999999999,0.046499999999999986,-0.055299999999999905,1742248515.3842812
0.615,0.05499999999999994,0.41999999999999993,-0.08326,-0.14415999999999995,0.020140000000000047,0.18999999999999995,-0.275,-0.10999999999999999,0.05908000000000002,0.09105999999999992,0.012700000000000156,1742248515.489995
0.48,0.1100000000000001,0.2250000000000001,-0.018320000000000003,0.08654000000000006,-0.006099999999999994,0.29000000000000004,-0.235,0.040000000000000036,-0.06335999999999997,-0.06262000000000001,0.010499999999999954,1742248515.604075
0.30499999999999994,0.07000000000000006,0.020000000000000018,0.05090000000000017,0.20020000000000016,-0.006460000000000021,0.5800000000000001,-0.29000000000000004,0.51,-0.08728000000000002,-0.05188000000000004,0.060799999999999965,1742248515.724179
0.3700000000000001,0.030000000000000027,-0.08499999999999996,0.14659999999999984,-0.07153999999999994,-0.045419999999999905,0.31499999999999995,-0.245,0.32499999999999996,0.051140000000000185,0.06359999999999988,0.007319999999999993,1742248515.832001
0.625,-0.04500000000000004,0.4650000000000001,-0.005979999999999985,-0.1804199999999999,-0.03186,0.19999999999999996,-0.20999999999999996,-0.12,0.04370000000000007,0.07874000000000003,0.027579999999999938,1742248515.9459178
0.4650000000000001,0.06000000000000005,0.27,0.03735999999999984,0.11925999999999992,-0.0015800000000000258,0.26,-0.15500000000000003,0.1499999999999999,0.027839999999999865,-0.11414000000000002,-0.034540000000000015,1742248516.067565
0.2849999999999999,0.07000000000000006,-0.17000000000000004,-0.08008000000000004,0.15270000000000006,0.07567999999999997,0.635,-0.38,0.42999999999999994,-0.031000000000000028,-0.021240000000000037,0.024660000000000126,1742248516.1777349
0.405,-0.06499999999999995,0.06499999999999995,-0.16712000000000005,-0.11194000000000004,0.0625,0.3900000000000001,-0.265,0.2650000000000001,0.1200000000000001,0.09143999999999997,0.010860000000000092,1742248516.287988
0.72,-0.08499999999999996,0.615,-0.03491999999999995,-0.13172000000000006,-0.025760000000000005,0.15500000000000003,-0.21999999999999997,-0.26,0.008059999999999956,0.062140000000000084,0.00537999999999994,1742248516.404481
0.5249999999999999,0.030000000000000027,0.19500000000000006,0.016240000000000032,0.11511999999999989,-0.006840000000000068,0.365,-0.30499999999999994,0.27,-0.09558,-0.055179999999999896,-0.011480000000000046,1742248516.520148
0.3500000000000001,0.135,-0.10999999999999999,0.02942,0.07238000000000011,-0.01636000000000004,0.5800000000000001,-0.355,0.42500000000000004,-0.007320000000000104,-0.0031799999999999606,0.030279999999999863,1742248516.630036
0.595,0.020000000000000018,0.27,-0.12951999999999997,-0.03808,0.07555999999999985,0.25,-0.05500000000000005,0.08000000000000007,-0.10205999999999993,-0.012319999999999998,-0.027700000000000058,1742249790.4686358
0.605,0.0,0.2549999999999999,-0.018059999999999965,0.04188000000000014,0.06311999999999984,0.53,-0.20999999999999996,0.040000000000000036,0.08885999999999994,-0.27037999999999995,-0.05065999999999993,1742249790.585406
0.395,-0.04500000000000004,-0.06000000000000005,-0.01867999999999992,0.09729999999999994,-0.009639999999999982,0.645,-0.18500000000000005,0.44500000000000006,0.08507999999999982,0.01428000000000007,-0.06896000000000002,1742249790.696437
0.365,0.07000000000000006,-0.20999999999999996,0.12916000000000016,-0.1593,-0.01537999999999995,0.3500000000000001,-0.18999999999999995,0.07000000000000006,0.03845999999999994,0.11646000000000001,0.011360000000000037,1742249790.810317
0.6000000000000001,0.040000000000000036,0.355,-0.10546,-0.058599999999999985,0.07874000000000003,0.20999999999999996,-0.19999999999999996,0.07000000000000006,-0.07713999999999999,0.0686,0.030160000000000187,1742249790.9259148
0.595,0.05499999999999994,0.24,-0.037839999999999985,0.032480000000000064,0.0283199999999999,0.41999999999999993,-0.235,0.19999999999999996,-0.05688000000000004,-0.17015999999999998,-0.04405999999999999,1742249791.037517
0.3999999999999999,0.07499999999999996,0.050000000000000044,0.10961999999999983,0.11670000000000003,-0.03834000000000004,0.6000000000000001,-0.21499999999999997,0.44500000000000006,0.014899999999999913,-0.0035399999999999876,-0.02648000000000006,1742249791.151574
0.41500000000000004,0.1100000000000001,-0.16000000000000003,0.0674999999999999,-0.08263999999999994,0.017220000000000013,0.45500000000000007,-0.19500000000000006,0.1299999999999999,0.07201999999999997,0.06738000000000022,0.048819999999999864,1742249791.2663329
0.56,0.07000000000000006,0.27,-0.0858199999999999,-0.09605999999999992,0.05396000000000001,0.2450000000000001,-0.08999999999999997,-0.050000000000000044,-0.02942,0.016839999999999966,0.014639999999999986,1742249791.386229
0.56,0.010000000000000009,0.2450000000000001,-0.08862000000000003,0.04944000000000015,0.029059999999999864,0.3999999999999999,-0.15000000000000002,0.010000000000000009,0.015139999999999931,-0.16822000000000004,-0.05506,1742249791.4934552
0.33499999999999996,0.04499999999999993,0.05499999999999994,0.06128,0.1287799999999999,-0.02076,0.7149999999999999,-0.27,0.47,-0.0015800000000000258,0.03980000000000006,-0.04613999999999996,1742249791.6074371
0.3400000000000001,0.07499999999999996,-0.09999999999999998,0.07850000000000001,-0.04700000000000004,-0.0009799999999999809,0.6099999999999999,-0.20499999999999996,0.08499999999999996,-0.008419999999999983,0.14868000000000015,-0.005739999999999967,1742249791.725287
0.5049999999999999,0.07499999999999996,0.040000000000000036,-0.07044000000000006,-0.24708000000000008,0.08020000000000005,0.17500000000000004,-0.18999999999999995,-0.275,-0.06311999999999995,0.07776000000000005,0.09349999999999992,1742249791.835455
0.56,-0.030000000000000027,0.3599999999999999,-0.06689999999999996,0.0027999999999999137,-0.036619999999999986,0.4099999999999999,-0.10499999999999998,0.22999999999999998,-0.08311999999999997,-0.11339999999999995,-0.01648000000000005,1742249791.949553
0.42999999999999994,0.014999999999999902,0.08000000000000007,-0.059940000000000104,0.13329999999999997,0.00550000000000006,0.7549999999999999,-0.22999999999999998,0.4849999999999999,0.05249999999999999,-0.06115999999999999,-0.011480000000000046,1742249792.066879
0.31000000000000005,0.0,-0.16500000000000004,0.06152000000000002,0.0341800000000001,-0.03076000000000001,0.42999999999999994,-0.14500000000000002,0.23499999999999988,0.010739999999999972,0.18872,0.012939999999999952,1742249792.177256
0.4950000000000001,0.135,0.21999999999999997,-0.12634,-0.07264000000000004,0.055299999999999905,0.17999999999999994,-0.14500000000000002,-0.24,-0.04944000000000004,0.05711999999999984,0.04503999999999997,1742249792.290424
0.625,-0.015000000000000013,0.54,-0.021120000000000028,0.0034199999999999786,-0.008660000000000001,0.355,-0.16000000000000003,-0.015000000000000013,-0.07434000000000007,-0.14379999999999993,-0.01867999999999992,1742249792.40705
0.4950000000000001,-0.0050000000000000044,0.1200000000000001,0.0295399999999999,0.20166000000000017,-0.05455999999999994,0.71,-0.25,0.43500000000000005,-0.15698,0.014520000000000088,0.05018000000000011,1742249792.518346
0.25,-0.015000000000000013,-0.19500000000000006,-0.01978000000000002,0.0007399999999999629,-0.037839999999999985,0.3599999999999999,-0.09999999999999998,0.28,0.12402000000000002,0.09864000000000006,-0.029779999999999918,1742249792.6323469
0.5550000000000002,-0.14500000000000002,0.31499999999999995,-0.20335999999999999,-0.08923999999999999,0.15063999999999989,0.20500000000000007,-0.24,-0.12,0.10766000000000009,0.05090000000000017,0.09582000000000002,1742249792.74693
0.77,-0.07000000000000006,0.615,-0.08557999999999999,-0.10620000000000007,-0.029059999999999975,0.375,-0.08999999999999997,0.010000000000000009,-0.11768000000000012,-0.04724000000000006,0.02404000000000006,1742249792.871236
0.51,-0.06499999999999995,0.20999999999999996,0.05176000000000003,0.18798000000000004,-0.07886000000000004,0.69,-0.14500000000000002,0.385,-0.00660000000000005,-0.17944000000000004,0.020999999999999908,1742249792.974505
0.395,-0.040000000000000036,-0.17000000000000004,0.03723999999999994,0.08885999999999994,-0.007200000000000095,0.4950000000000001,-0.14500000000000002,0.27,0.14647999999999994,0.04296000000000011,-0.08653999999999995,1742249793.088356
0.2650000000000001,-0.07000000000000006,0.15500000000000003,0.07359999999999989,-0.10192000000000001,0.04845999999999995,0.25,-0.20999999999999996,0.05499999999999994,0.025880000000000125,0.07567999999999997,-0.015619999999999967,1742249793.202466
0.7349999999999999,-0.04500000000000004,0.5249999999999999,0.0354000000000001,-0.09374000000000005,0.022340000000000027,0.23499999999999988,-0.17999999999999994,0.010000000000000009,-0.03882000000000008,0.027579999999999938,-0.03846000000000005,1742249793.3164642
0.5049999999999999,0.020000000000000018,0.23499999999999988,0.018059999999999965,0.11158000000000001,-0.01317999999999997,0.5049999999999999,-0.20999999999999996,0.4849999999999999,-0.11524000000000001,-0.08789999999999998,0.04357999999999995,1742249793.430514
0.31000000000000005,0.02499999999999991,-0.04500000000000004,-0.024660000000000015,0.0686,-0.06237999999999999,0.6000000000000001,-0.18999999999999995,0.29000000000000004,0.08105999999999991,0.05152000000000001,-0.0036599999999999966,1742249793.548495
0.32000000000000006,0.04499999999999993,-0.04500000000000004,0.14954,-0.14686,0.0017000000000000348,0.33000000000000007,-0.13,0.03499999999999992,0.07933999999999997,0.05298000000000003,-0.01660000000000006,1742249793.658196
0.595,0.10000000000000009,0.385,0.036739999999999995,-0.1373199999999999,0.03198000000000012,0.29000000000000004,-0.125,-0.04500000000000004,-0.08338000000000001,0.09483999999999981,0.0037799999999998946,1742249793.771443
0.5550000000000002,0.010000000000000009,0.2849999999999999,-0.07189999999999996,0.0968,-0.005619999999999958,0.47,-0.265,0.27,-0.18188000000000004,-0.26270000000000004,0.03394000000000008,1742249793.887649
0.32499999999999996,-0.015000000000000013,-0.15000000000000002,0.10694000000000004,0.14038000000000017,-0.08496000000000004,0.6400000000000001,-0.18999999999999995,0.3400000000000001,0.10119999999999996,0.05371999999999999,-0.043220000000000036,1742249794.0079129
0.3700000000000001,-0.10499999999999998,-0.125,0.18321999999999994,-0.22498000000000007,0.04833999999999983,0.24,-0.24,0.10499999999999998,0.13990000000000014,0.03503999999999996,0.029900000000000038,1742249794.113288
0.625,0.04499999999999993,0.4650000000000001,0.005619999999999958,-0.18811999999999995,-0.03272000000000008,0.29499999999999993,-0.06000000000000005,-0.25,-0.15477999999999992,0.048819999999999864,0.03370000000000006,1742249794.2273102
0.44500000000000006,0.08000000000000007,0.31000000000000005,0.0029200000000000337,0.14344,-0.04405999999999999,0.405,-0.4099999999999999,0.23499999999999988,-0.02391999999999994,-0.29370000000000007,-0.042120000000000046,1742249794.3479
0.29000000000000004,-0.010000000000000009,-0.14,0.07531999999999983,0.17113999999999985,-0.02855999999999992,0.645,-0.22999999999999998,0.3500000000000001,0.03516000000000008,0.07020000000000004,-0.02624000000000004,1742249794.455244
0.33000000000000007,-0.05500000000000005,-0.13,0.07031999999999994,-0.11634,0.03956000000000004,0.53,-0.15500000000000003,-0.025000000000000022,0.12304000000000004,-0.05700000000000005,-0.08374000000000004,1742249794.569404
0.395,-0.06499999999999995,-0.10999999999999999,-0.07458000000000009,-0.21275999999999995,0.11414000000000013,0.33000000000000007,-0.17500000000000004,-0.18500000000000005,-0.049679999999999946,0.06298000000000004,0.0015800000000001369,1742249794.6912289
0.53,0.08499999999999996,0.32499999999999996,-0.07287999999999994,0.09129999999999994,0.05848000000000009,0.45999999999999996,-0.31499999999999995,-0.020000000000000018,0.09888000000000008,-0.30322000000000005,-0.08141999999999994,1742249794.797447
0.395,0.16500000000000004,0.02499999999999991,0.18211999999999984,0.17590000000000017,-0.019039999999999946,0.5150000000000001,-0.29000000000000004,0.3799999999999999,0.0709200000000001,0.00035999999999991594,0.04418000000000011,1742249794.911132
0.3599999999999999,0.014999999999999902,-0.20499999999999996,0.18359999999999999,-0.06541999999999992,-0.10705999999999993,0.635,-0.24,-0.07499999999999996,0.01208000000000009,0.12342000000000009,0.06128,1742249795.028387
0.4099999999999999,-0.12,0.020000000000000018,-0.12622,-0.17188000000000003,0.031119999999999814,0.20999999999999996,-0.14500000000000002,-0.19500000000000006,-0.10997999999999997,-0.013299999999999979,0.006960000000000077,1742249795.138438
0.54,0.06000000000000005,0.30000000000000004,-0.05065999999999993,0.06176000000000004,-0.01990000000000003,0.395,-0.16000000000000003,-0.025000000000000022,-0.05786000000000002,-0.1689400000000001,-0.07641999999999993,1742249795.2704132
0.355,0.1499999999999999,0.1499999999999999,0.007940000000000058,0.1973800000000001,-0.03503999999999996,0.675,-0.135,0.55,0.07922000000000007,-0.0047599999999999865,-0.03820000000000001,1742249795.368447
0.385,-0.020000000000000018,-0.09999999999999998,0.17994,-0.026980000000000004,-0.0017000000000000348,0.52,-0.17500000000000004,0.08499999999999996,0.08531999999999984,0.09349999999999992,-0.009639999999999982,1742249795.487968
0.45999999999999996,-0.025000000000000022,-0.03500000000000003,-0.0043999999999999595,-0.20422000000000007,0.026000000000000023,0.2849999999999999,-0.17999999999999994,-0.040000000000000036,-0.16296,0.06298000000000004,0.0030599999999998406,1742249795.594271
0.5800000000000001,0.04499999999999993,0.18999999999999995,-0.09704000000000002,0.06420000000000003,-0.002080000000000082,0.3599999999999999,-0.20499999999999996,-0.05500000000000005,-0.018059999999999965,-0.18725999999999998,-0.0040200000000000236,1742249795.712814
0.385,0.11499999999999999,0.11499999999999999,0.020019999999999927,0.07885999999999993,-0.022340000000000027,0.665,-0.16500000000000004,0.5,0.0021999999999999797,-0.01770000000000005,-0.0032999999999999696,1742249795.829022
0.3700000000000001,-0.0050000000000000044,-0.06499999999999995,0.07433999999999985,-0.06541999999999992,-0.0036599999999999966,0.51,-0.18999999999999995,0.04499999999999993,0.03857999999999984,0.13440000000000007,-0.0023200000000000998,1742249795.9362528
0.41500000000000004,0.14000000000000012,-0.020000000000000018,0.02624000000000004,-0.11158000000000001,0.022460000000000147,0.18999999999999995,-0.22499999999999998,-0.15500000000000003,-0.01770000000000005,0.06690000000000018,0.012580000000000036,1742249796.050257
0.6200000000000001,0.06000000000000005,0.48,-0.06640000000000001,-0.04810000000000003,-0.00782000000000005,0.345,-0.18500000000000005,-0.030000000000000027,-0.014780000000000015,-0.12024000000000001,0.017819999999999947,1742249796.170829
0.42500000000000004,0.09000000000000008,0.2749999999999999,0.031239999999999934,0.15013999999999994,-0.042240000000000055,0.665,-0.275,0.4750000000000001,-0.008660000000000001,-0.09277999999999997,0.07740000000000014,1742249796.278274
0.365,-0.05500000000000005,-0.10499999999999998,-0.02100000000000002,0.07250000000000001,-0.051019999999999954,0.43999999999999995,-0.20999999999999996,0.29000000000000004,0.052119999999999944,0.14416000000000007,-0.07189999999999996,1742249796.392231
0.44500000000000006,-0.16500000000000004,0.3799999999999999,-0.05286000000000002,-0.12315999999999994,0.12535999999999992,0.2849999999999999,-0.14500000000000002,0.014999999999999902,0.0341800000000001,0.1277999999999999,0.0021999999999999797,1742249796.5087008
0.605,0.004999999999999893,0.43500000000000005,-0.00988,-0.07728000000000002,-0.0043999999999999595,0.27,-0.17500000000000004,-0.16500000000000004,-0.07323999999999997,-0.06041999999999992,0.023679999999999923,1742249796.6290638
0.48,0.1100000000000001,0.30000000000000004,-0.02210000000000001,0.10179999999999989,-0.01746000000000003,0.5,-0.16500000000000004,0.355,-0.16260000000000008,-0.16688000000000003,0.0024399999999999977,1742249796.7332869
0.30499999999999994,0.03499999999999992,-0.06000000000000005,0.031239999999999934,0.10485999999999995,-0.011600000000000055,0.6099999999999999,-0.22999999999999998,0.2749999999999999,0.04601999999999995,0.06761999999999979,-0.03394000000000008,1742249796.84919
0.33499999999999996,0.004999999999999893,-0.09999999999999998,0.11426000000000003,-0.13037999999999994,0.0023200000000000998,0.5249999999999999,-0.18500000000000005,0.07499999999999996,0.12134,-0.051019999999999954,-0.02198,1742249796.975134
0.52,0.03499999999999992,0.10000000000000009,-0.022580000000000044,-0.15234000000000003,0.009400000000000075,0.23499999999999988,-0.16000000000000003,-0.08999999999999997,-0.07713999999999999,0.017940000000000067,0.015020000000000033,1742249797.075368
0.625,0.030000000000000027,0.32499999999999996,-0.06041999999999992,0.040159999999999973,-0.018059999999999965,0.3900000000000001,-0.125,0.040000000000000036,-0.08141999999999994,-0.07225999999999999,-0.018919999999999937,1742249797.191987
0.385,0.08499999999999996,0.10499999999999998,-0.15772000000000008,0.13817999999999997,-0.060659999999999936,0.6949999999999998,-0.135,0.405,0.04357999999999995,0.013919999999999932,-0.02513999999999994,1742249797.309198
0.28,-0.040000000000000036,-0.135,0.09314,-0.00782000000000005,0.005120000000000013,0.5249999999999999,-0.24,0.125,0.14722000000000013,0.0341800000000001,-0.04077999999999993,1742249797.417141
0.4099999999999999,0.135,-0.06499999999999995,0.02210000000000001,-0.11021999999999998,0.05357999999999996,0.20999999999999996,-0.14500000000000002,-0.265,-0.06811999999999996,0.06811999999999996,0.08484000000000003,1742249797.530314
0.615,0.020000000000000018,0.5449999999999999,-0.06725999999999999,0.02611999999999992,-0.005619999999999958,0.3799999999999999,-0.15000000000000002,0.18999999999999995,-0.05589999999999995,-0.08605999999999991,0.0019599999999999618,1742249797.650284
0.43999999999999995,0.030000000000000027,0.1299999999999999,-0.016120000000000023,0.10985999999999985,-0.025399999999999978,0.7,-0.33000000000000007,0.43999999999999995,0.009039999999999937,-0.020379999999999954,0.03638000000000008,1742249797.7581508
0.2849999999999999,-0.020000000000000018,-0.08999999999999997,0.0043999999999999595,0.009039999999999937,-0.04064000000000001,0.395,-0.20999999999999996,0.2549999999999999,0.031380000000000186,0.09924,-0.055179999999999896,1742249797.872137
0.3500000000000001,-0.15500000000000003,0.18999999999999995,-0.06481999999999999,-0.07020000000000004,0.10851999999999995,0.2450000000000001,-0.19999999999999996,-0.040000000000000036,0.023679999999999923,0.04527999999999999,0.05468000000000006,1742249797.988467
0.7250000000000001,0.020000000000000018,0.4750000000000001,-0.06896000000000002,-0.04527999999999999,-0.017220000000000013,0.30000000000000004,-0.14500000000000002,-0.10999999999999999,-0.10950000000000004,0.01855999999999991,0.023440000000000127,1742249798.108605
0.4849999999999999,0.05499999999999994,0.25,0.06616,0.11146000000000011,-0.02648000000000006,0.4099999999999999,-0.31000000000000005,0.29499999999999993,0.0013400000000001189,-0.2472000000000001,-0.025639999999999996,1742249798.2141922
0.32000000000000006,-0.03500000000000003,-0.04500000000000004,0.07531999999999983,0.05371999999999999,-0.042360000000000064,0.645,-0.20999999999999996,0.32499999999999996,0.054440000000000044,0.0283199999999999,-0.025519999999999987,1742249798.329407
0.41999999999999993,0.06000000000000005,-0.08499999999999996,0.14159999999999995,-0.09863999999999995,0.03222000000000014,0.41999999999999993,-0.21999999999999997,0.08499999999999996,0.07850000000000001,0.049919999999999964,-0.0015800000000000258,1742249798.449471
0.5049999999999999,0.1100000000000001,0.25,-0.00012000000000000899,-0.13378,0.01990000000000003,0.2849999999999999,-0.14500000000000002,-0.07999999999999996,-0.08948,0.07690000000000019,-0.01085999999999998,1742249798.556319
0.54,0.040000000000000036,0.29000000000000004,-0.08874000000000004,0.08190000000000008,-0.009039999999999937,0.3900000000000001,-0.22499999999999998,0.04499999999999993,-0.042240000000000055,-0.14037999999999995,-0.025880000000000014,1742249798.671776
0.33499999999999996,0.09000000000000008,0.02499999999999991,-0.03736000000000006,0.09704000000000002,0.018920000000000048,0.685,-0.18500000000000005,0.41500000000000004,0.09498000000000006,0.013800000000000034,-0.019159999999999955,1742249798.789483
0.3700000000000001,0.030000000000000027,-0.040000000000000036,0.1504000000000001,-0.038940000000000086,-0.00878000000000001,0.595,-0.17000000000000004,0.05499999999999994,0.10973999999999995,0.06567999999999996,-0.013299999999999979,1742249798.896995
0.44500000000000006,0.1100000000000001,0.18999999999999995,-0.09802,-0.16003999999999996,0.04821999999999993,0.20500000000000007,-0.20999999999999996,-0.19500000000000006,-0.06458000000000008,0.00537999999999994,0.00048000000000003595,1742249799.0101278
0.5699999999999998,-0.0050000000000000044,0.4099999999999999,-0.03210000000000002,0.06542000000000003,-0.009159999999999946,0.26,-0.21999999999999997,0.2650000000000001,-0.08594000000000002,-0.07091999999999998,0.006220000000000114,1742249799.129539
0.44999999999999996,0.05499999999999994,0.004999999999999893,-0.037719999999999976,0.10742000000000007,-0.06359999999999999,0.7050000000000001,-0.21999999999999997,0.47,0.07142000000000004,-0.08838000000000001,-0.0014600000000000168,1742249799.248798
0.33000000000000007,-0.015000000000000013,-0.11499999999999999,0.08397999999999994,0.011479999999999935,-0.03858000000000006,0.42999999999999994,-0.19500000000000006,0.2450000000000001,0.052119999999999944,0.18506,-0.014519999999999977,1742249799.351987
0.42500000000000004,0.2549999999999999,0.29000000000000004,-0.22584000000000004,-0.06689999999999996,0.12573999999999996,0.19999999999999996,-0.17999999999999994,-0.10999999999999999,0.06225999999999998,0.059700000000000086,-0.031120000000000037,1742249799.469295
0.6600000000000001,-0.015000000000000013,0.385,-0.11524000000000001,-0.04503999999999997,0.042119999999999935,0.26,-0.21499999999999997,-0.025000000000000022,-0.0858199999999999,-0.06689999999999996,0.03259999999999996,1742249799.588982
0.43999999999999995,0.19999999999999996,0.2250000000000001,0.02293999999999996,0.08776000000000006,-0.05249999999999999,0.605,-0.405,0.33499999999999996,-0.02513999999999994,-0.06446000000000007,0.03527999999999998,1742249799.693099
0.32000000000000006,-0.030000000000000027,-0.08999999999999997,-0.0601799999999999,0.10277999999999987,-0.021480000000000055,0.3700000000000001,-0.2849999999999999,0.2749999999999999,-0.031240000000000046,0.10753999999999997,-0.03710000000000002,1742249799.81009
0.375,-0.040000000000000036,0.2849999999999999,-0.018919999999999937,-0.07496000000000003,0.07496000000000014,0.15999999999999992,-0.28,0.05499999999999994,0.10485999999999995,0.1299999999999999,0.037719999999999976,1742249799.929788
0.6699999999999999,-0.010000000000000009,0.53,0.002080000000000082,-0.0747000000000001,0.009400000000000075,0.30000000000000004,-0.15500000000000003,0.010000000000000009,-0.023679999999999923,0.07800000000000007,0.07275999999999994,1742249800.033997
0.43999999999999995,0.10499999999999998,0.24,-0.036619999999999986,0.10840000000000005,-0.02185999999999999,0.7650000000000001,-0.235,0.615,0.018320000000000114,-0.12122,0.05383999999999989,1742249800.150527
0.375,-0.0050000000000000044,-0.07999999999999996,-0.06677999999999995,0.06678000000000006,-0.02210000000000001,0.565,-0.29000000000000004,0.25,0.08911999999999987,0.08118000000000003,-0.10327999999999993,1742249800.26926
0.3599999999999999,-0.07999999999999996,0.07000000000000006,0.08801999999999999,-0.11462000000000006,0.03064,0.20999999999999996,-0.17000000000000004,0.010000000000000009,-0.02198,0.10705999999999993,-0.0009799999999999809,1742249800.376111
0.6400000000000001,0.06000000000000005,0.5249999999999999,-0.03917999999999999,-0.11402000000000001,-0.01746000000000003,0.21500000000000008,-0.18500000000000005,-0.19500000000000006,-0.21448,-0.07544000000000006,0.06761999999999979,1742249800.4901671
0.45999999999999996,0.135,0.31000000000000005,0.013539999999999885,0.1975,-0.021360000000000046,0.33000000000000007,-0.31000000000000005,0.14000000000000012,-0.1272000000000001,-0.28576,0.03320000000000012,1742249800.608939
0.27,0.03499999999999992,-0.06499999999999995,0.07385999999999981,0.14659999999999984,-0.06640000000000001,0.605,-0.25,0.30499999999999994,0.12829999999999986,0.0009799999999999809,-0.07689999999999997,1742249800.718771
0.3700000000000001,0.020000000000000018,-0.18999999999999995,0.12464000000000008,-0.11426000000000003,0.0006200000000000649,0.53,-0.22499999999999998,0.0,0.08118000000000003,0.0026800000000000157,-0.059820000000000095,1742249800.832119
0.5049999999999999,0.040000000000000036,0.050000000000000044,-0.007940000000000058,-0.20618000000000003,0.007560000000000011,0.2450000000000001,-0.20499999999999996,-0.14,-0.12353999999999998,0.10766000000000009,0.08275999999999994,1742249800.948639
0.5550000000000002,0.06000000000000005,0.27,-0.08850000000000002,0.11280000000000001,-0.011480000000000046,0.3500000000000001,-0.17500000000000004,0.2250000000000001,-0.005619999999999958,-0.05176000000000003,-0.0031799999999999606,1742249801.0695171
0.395,0.050000000000000044,-0.0050000000000000044,-0.06640000000000001,0.05030000000000001,-0.005619999999999958,0.6800000000000002,-0.18999999999999995,0.42500000000000004,-0.05786000000000002,-0.008419999999999983,-0.006460000000000021,1742249801.174212
0.4099999999999999,0.06000000000000005,-0.020000000000000018,0.048960000000000115,-0.0047599999999999865,-0.017080000000000095,0.45500000000000007,-0.20999999999999996,0.15500000000000003,0.07996000000000003,-0.025519999999999987,-0.010619999999999963,1742249801.289951
0.43999999999999995,0.14000000000000012,-0.0050000000000000044,0.011479999999999935,-0.08374000000000004,0.013299999999999867,0.24,-0.235,-0.09999999999999998,-0.10108000000000006,0.05164000000000013,0.03198000000000012,1742249801.4101372
0.6299999999999999,0.02499999999999991,0.42500000000000004,-0.10694000000000004,0.019400000000000084,0.011479999999999935,0.2849999999999999,-0.12,0.15500000000000003,-0.05298000000000003,-0.04747999999999997,0.007940000000000058,1742249801.516109
0.48,0.050000000000000044,0.17500000000000004,0.02868000000000004,0.1593,-0.022460000000000035,0.665,-0.355,0.44500000000000006,0.022460000000000147,0.004999999999999893,0.07433999999999985,1742249801.6299908
0.32000000000000006,0.010000000000000009,-0.15500000000000003,0.06164000000000014,0.006839999999999957,-0.028200000000000003,0.47,-0.20499999999999996,0.28,0.08874000000000004,0.16418,-0.021600000000000064,1742249801.74911
0.41500000000000004,-0.16000000000000003,0.22999999999999998,-0.08275999999999994,-0.12208000000000008,0.11743999999999999,0.28,-0.14500000000000002,-0.16500000000000004,0.10424000000000011,0.09301999999999988,0.009879999999999889,1742249801.856907
0.7349999999999999,0.010000000000000009,0.4849999999999999,0.005619999999999958,-0.12315999999999994,-0.02415999999999996,0.2549999999999999,-0.135,-0.14500000000000002,-0.11072000000000004,-0.10875999999999997,0.009160000000000057,1742249801.970272
0.45500000000000007,0.06499999999999995,0.27,0.09594000000000014,0.16125999999999996,-0.026980000000000004,0.405,-0.345,0.41500000000000004,-0.13097999999999999,-0.14281999999999995,-0.012319999999999998,1742249802.089138
0.30499999999999994,0.02499999999999991,-0.05500000000000005,0.035760000000000014,0.0684800000000001,-0.0040200000000000236,0.575,-0.26,0.2650000000000001,0.06311999999999984,0.06188000000000016,-0.021120000000000028,1742249802.197858
0.33499999999999996,0.10499999999999998,0.14500000000000002,0.15638000000000019,-0.08751999999999993,-0.0034199999999999786,0.30000000000000004,-0.21499999999999997,0.17999999999999994,0.09997999999999996,0.0354000000000001,-0.00024000000000001798,1742249802.310846
0.6499999999999999,0.135,0.375,0.05711999999999984,-0.08531999999999995,-0.008539999999999992,0.31499999999999995,-0.16000000000000003,-0.030000000000000027,-0.05065999999999993,0.018799999999999928,-0.0013400000000000079,1742249802.429426
0.55,0.09000000000000008,0.23499999999999988,-0.026619999999999977,0.05090000000000017,-0.008660000000000001,0.3400000000000001,-0.2849999999999999,0.11499999999999999,-0.07555999999999996,-0.26513999999999993,0.007560000000000011,1742249802.537996
0.32000000000000006,-0.06499999999999995,-0.04500000000000004,0.018920000000000048,0.07031999999999994,-0.02525999999999995,0.48,-0.2849999999999999,0.2650000000000001,0.07347999999999999,0.03929999999999989,-0.0958199999999999,1742249802.651888
0.2450000000000001,0.15500000000000003,0.030000000000000027,0.13050000000000006,0.022340000000000027,0.017940000000000067,0.595,-0.135,0.06000000000000005,0.05346000000000006,0.06457999999999986,-0.010619999999999963,1742249802.7697449
0.685,0.2849999999999999,0.19500000000000006,-0.10608000000000006,-0.12353999999999998,0.10742000000000007,0.2450000000000001,-0.28,-0.06499999999999995,-0.12658000000000003,0.0662799999999999,0.02171999999999996,1742249802.8894038
0.645,0.16500000000000004,0.31499999999999995,-0.11596000000000006,0.1189,0.02293999999999996,0.31499999999999995,-0.18500000000000005,0.010000000000000009,-0.034420000000000006,-0.17346000000000006,0.0007399999999999629,1742249802.993994
0.31000000000000005,0.08499999999999996,-0.0050000000000000044,-0.09118000000000004,0.12426000000000004,0.0024399999999999977,0.54,-0.37,0.4650000000000001,0.04956000000000005,0.016720000000000068,-0.05798000000000003,1742249803.10901
0.33499999999999996,0.030000000000000027,-0.15000000000000002,-0.03382000000000007,-0.06811999999999996,0.08105999999999991,0.565,-0.265,0.07000000000000006,0.06042000000000014,0.15599999999999992,-0.014639999999999986,1742249803.2283509
0.5,0.30000000000000004,0.15500000000000003,-0.05676000000000003,-0.22120000000000006,0.056400000000000006,0.17500000000000004,-0.25,-0.18500000000000005,-0.026000000000000023,0.03869999999999996,0.011479999999999935,1742249803.336003
0.5550000000000002,0.10499999999999998,0.4099999999999999,-0.0027999999999999137,-0.014900000000000024,-0.01855999999999991,0.20500000000000007,-0.33000000000000007,0.2849999999999999,-0.1764,-0.05003999999999997,0.015020000000000033,1742249803.449968
0.4849999999999999,0.06000000000000005,0.10000000000000009,-0.10438000000000003,0.12146000000000012,-0.03539999999999999,0.7050000000000001,-0.33499999999999996,0.47,0.03698000000000001,-0.08141999999999994,-0.00782000000000005,1742249803.568906
0.565,0.29000000000000004,0.3400000000000001,0.04283999999999999,0.01635999999999993,-0.0042799999999999505,0.22999999999999998,-0.010000000000000009,-0.09499999999999997,-0.05589999999999995,-0.056400000000000006,0.018320000000000114,1742257810.888032
0.5699999999999998,0.2450000000000001,0.2650000000000001,0.12390000000000012,0.16088000000000013,-0.08055999999999996,0.6400000000000001,-0.10499999999999998,0.3400000000000001,0.052119999999999944,-0.02746000000000004,-0.08716000000000002,1742257811.001879
0.23499999999999988,0.1499999999999999,-0.21499999999999997,-0.051019999999999954,-0.03967999999999994,-0.036860000000000004,0.685,-0.0050000000000000044,0.23499999999999988,-0.04125999999999996,0.14294000000000007,0.051020000000000065,1742257811.11585
0.25,0.15999999999999992,0.14500000000000002,0.06567999999999996,-0.14770000000000005,0.05261999999999989,0.2549999999999999,-0.03500000000000003,-0.125,0.06982,-0.01746000000000003,0.0611600000000001,1742257811.229946
0.595,0.3500000000000001,0.4650000000000001,-0.12963999999999998,-0.14368000000000003,0.04625999999999997,0.24,-0.015000000000000013,-0.26,-0.044440000000000035,-0.07531999999999994,-0.10070000000000001,1742257811.3441122
0.4950000000000001,0.2250000000000001,0.25,0.07690000000000019,0.21948000000000012,-0.03283999999999998,0.655,-0.18500000000000005,0.51,-0.03465999999999991,-0.1274400000000001,-0.07287999999999994,1742257811.462015
0.24,0.09000000000000008,-0.20999999999999996,-0.09008000000000005,-0.044440000000000035,-0.05932000000000004,0.625,-0.03500000000000003,0.19500000000000006,-0.15052,0.06761999999999979,0.051020000000000065,1742257811.571828
0.21999999999999997,0.23499999999999988,0.04499999999999993,0.02416000000000018,-0.12315999999999994,0.06407999999999991,0.345,-0.14500000000000002,0.010000000000000009,0.04235999999999995,0.07166000000000006,0.06690000000000018,1742257811.685718
0.45500000000000007,0.4750000000000001,0.41999999999999993,-0.14061999999999997,-0.12194000000000005,0.06274000000000002,0.28,0.10000000000000009,-0.17500000000000004,0.0040199999999999125,-0.06847999999999999,-0.023320000000000007,1742257811.8034089
0.5449999999999999,0.24,0.3400000000000001,0.11792000000000002,0.2807599999999999,-0.06396000000000002,0.565,-0.27,0.11499999999999999,0.06800000000000006,-0.16149999999999998,-0.08240000000000003,1742257811.913903
0.25,0.19500000000000006,-0.10499999999999998,-0.11536000000000002,0.02635999999999994,-0.04798000000000002,0.56,-0.09999999999999998,0.30000000000000004,-0.06347999999999998,0.08983999999999992,0.0021999999999999797,1742257812.02791
0.2650000000000001,0.14500000000000002,-0.050000000000000044,-0.0916800000000001,-0.14318000000000008,0.07153999999999994,0.48,-0.16500000000000004,0.09499999999999997,-0.07116,0.12988000000000022,0.043339999999999934,1742257812.144288
0.5150000000000001,0.16500000000000004,0.22999999999999998,0.0042800000000000615,-0.1850599999999999,0.11253999999999986,0.365,0.06499999999999995,-0.17999999999999994,0.04944000000000015,0.008059999999999956,0.015260000000000051,1742257812.255754
0.3999999999999999,0.44500000000000006,0.41999999999999993,0.11511999999999989,0.15966000000000014,0.006340000000000012,0.31000000000000005,-0.48,0.385,-0.14344,-0.13951999999999998,-0.05003999999999997,1742257812.370068
0.22999999999999998,0.45999999999999996,0.125,-0.058479999999999976,0.25646000000000013,-0.04747999999999997,0.6699999999999999,-0.12,0.10000000000000009,0.01758000000000015,-0.13196000000000008,-0.006340000000000012,1742257812.484019
0.30499999999999994,0.345,-0.05500000000000005,0.07288000000000006,0.03747999999999996,-0.09192,0.5699999999999998,-0.16500000000000004,0.23499999999999988,-0.06176000000000004,0.09606000000000003,0.049799999999999844,1742257812.603096
0.30499999999999994,0.365,0.09499999999999997,0.043339999999999934,-0.15295999999999998,0.01648000000000005,0.33000000000000007,-0.09999999999999998,-0.025000000000000022,-0.008179999999999965,0.1730999999999998,0.11705999999999994,1742257812.711956
0.41999999999999993,0.395,0.42999999999999994,-0.056520000000000015,-0.06713999999999998,0.00550000000000006,0.20999999999999996,0.014999999999999902,-0.3400000000000001,0.13963999999999976,-0.02954000000000001,-0.13684000000000007,1742257812.825948
0.4950000000000001,0.27,0.29000000000000004,0.05493999999999999,0.11694000000000004,-0.040899999999999936,0.6499999999999999,-0.375,0.5150000000000001,-0.024899999999999922,-0.06359999999999999,-0.05908000000000002,1742257812.944435
0.2849999999999999,0.19500000000000006,-0.08999999999999997,-0.12146000000000001,-0.009759999999999991,-0.07238,0.575,-0.08499999999999996,0.30499999999999994,-0.12279999999999991,0.06896000000000013,0.005619999999999958,1742257813.053747
0.25,0.2650000000000001,0.16999999999999993,-0.21251999999999993,-0.1814,0.07433999999999985,0.375,-0.07499999999999996,-0.17000000000000004,-0.006840000000000068,0.04283999999999999,0.0006200000000000649,1742257813.167953
0.395,0.1100000000000001,-0.07000000000000006,0.42420000000000013,0.04090000000000016,-0.011720000000000064,0.30000000000000004,-0.0050000000000000044,-0.21499999999999997,0.08911999999999987,-0.056520000000000015,0.008179999999999854,1742257813.284546
0.5049999999999999,0.29499999999999993,0.45500000000000007,0.08094000000000001,0.13354,-0.00660000000000005,0.49,-0.10999999999999999,0.16999999999999993,0.19288000000000016,-0.02525999999999995,-0.059700000000000086,1742257813.3959098
0.3400000000000001,0.33499999999999996,-0.050000000000000044,0.00550000000000006,0.13868000000000014,-0.07287999999999994,0.565,-0.05500000000000005,0.3999999999999999,-0.12866,-0.02855999999999992,0.03649999999999998,1742257813.509848
0.29000000000000004,0.125,-0.03500000000000003,-0.011720000000000064,-0.07044000000000006,0.0018400000000000638,0.45999999999999996,-0.10999999999999999,0.14000000000000012,-0.033320000000000016,0.08935999999999988,0.05030000000000001,1742257813.623944
0.30499999999999994,0.31499999999999995,0.1200000000000001,0.011840000000000073,-0.04932000000000003,0.06678000000000006,0.3400000000000001,-0.025000000000000022,-0.07000000000000006,0.03320000000000012,0.04711999999999983,0.05042000000000013,1742257813.738272
0.51,0.3900000000000001,0.3799999999999999,0.07469999999999999,-0.014039999999999941,0.0042800000000000615,0.33499999999999996,-0.04500000000000004,-0.245,0.11206000000000005,-0.12854,-0.10521999999999998,1742257813.8519528
0.345,0.32000000000000006,0.21500000000000008,0.05896000000000012,0.12146000000000012,-0.08044000000000007,0.7250000000000001,-0.06000000000000005,0.575,-0.015859999999999985,0.0015800000000001369,-0.0008599999999999719,1742257813.965845
0.2749999999999999,0.18999999999999995,-0.09499999999999997,-0.07874000000000003,-0.007200000000000095,-0.06470000000000009,0.6099999999999999,-0.020000000000000018,0.17999999999999994,-0.18116,0.0039000000000000146,0.05357999999999996,1742257814.084749
0.31000000000000005,0.2450000000000001,0.1100000000000001,-0.025399999999999978,-0.13854,0.06469999999999998,0.32499999999999996,-0.06000000000000005,-0.06499999999999995,0.03869999999999996,0.09216000000000002,0.024900000000000144,1742257814.193779
0.43999999999999995,0.41500000000000004,0.4650000000000001,0.1189,-0.09644000000000008,0.015619999999999967,0.30499999999999994,-0.0050000000000000044,-0.33000000000000007,0.15979999999999994,-0.13951999999999998,-0.10450000000000004,1742257814.307959
0.45500000000000007,0.25,0.41999999999999993,-0.0015800000000000258,0.21911999999999998,-0.044320000000000026,0.6299999999999999,-0.14500000000000002,-0.17999999999999994,0.1861600000000001,-0.13818000000000008,-0.11291999999999991,1742257814.4254458
0.365,0.31499999999999995,0.050000000000000044,-0.014639999999999986,0.12134,-0.07862000000000002,0.625,-0.010000000000000009,0.2650000000000001,-0.08204,0.07678000000000007,0.030160000000000187,1742257814.535755
0.30499999999999994,0.16999999999999993,-0.04500000000000004,-0.040159999999999973,-0.15722000000000003,0.07142000000000004,0.32499999999999996,-0.015000000000000013,-0.22499999999999998,0.28881999999999985,-0.06359999999999999,-0.1274400000000001,1742257814.649927
0.4849999999999999,0.08499999999999996,0.05499999999999994,0.4798600000000002,0.12866,-0.14148000000000005,0.365,0.08499999999999996,-0.16500000000000004,0.09838000000000013,-0.01208000000000009,-0.026739999999999986,1742257814.765552
0.48,0.18999999999999995,0.355,0.18530000000000002,0.17822000000000005,-0.025399999999999978,0.54,-0.08499999999999996,0.33000000000000007,0.11729999999999996,-0.07653999999999994,-0.09484000000000004,1742257814.8801222
0.30000000000000004,0.2749999999999999,-0.010000000000000009,-0.12463999999999997,0.06946000000000008,-0.013679999999999914,0.605,-0.025000000000000022,0.18500000000000005,-0.0968,0.05688000000000004,0.04027999999999987,1742257814.991814
0.30000000000000004,0.20500000000000007,0.014999999999999902,0.01758000000000015,-0.013679999999999914,0.008299999999999974,0.42500000000000004,-0.05500000000000005,0.04499999999999993,0.05396000000000001,0.08153999999999995,0.03820000000000001,1742257815.105713
0.41500000000000004,0.19999999999999996,0.08000000000000007,0.10438000000000014,-0.09277999999999997,0.04370000000000007,0.33499999999999996,0.014999999999999902,-0.09999999999999998,0.03942000000000001,0.012199999999999989,0.004999999999999893,1742257815.226511
0.5,0.31499999999999995,0.375,0.03161999999999998,0.006720000000000059,0.015740000000000087,0.51,-0.030000000000000027,0.17999999999999994,-0.15088000000000001,-0.04039999999999999,-0.016000000000000014,1742257815.332911
0.3400000000000001,0.29000000000000004,0.05499999999999994,-0.10950000000000004,0.14427999999999996,-0.021480000000000055,0.7050000000000001,-0.03500000000000003,0.345,-0.04613999999999996,0.08666000000000018,0.01305999999999985,1742257815.4467468
0.31499999999999995,0.20999999999999996,-0.08499999999999996,0.005619999999999958,-0.04955999999999994,-0.018799999999999928,0.53,-0.050000000000000044,0.08499999999999996,-0.0037800000000000056,0.03807999999999989,0.007560000000000011,1742257815.5658638
0.31499999999999995,0.33000000000000007,0.18500000000000005,0.01648000000000005,-0.08641999999999994,0.07543999999999995,0.33000000000000007,-0.09999999999999998,-0.17000000000000004,0.02416000000000018,0.043099999999999916,-0.05298000000000003,1742257815.674861
0.5150000000000001,0.3799999999999999,0.42500000000000004,0.07567999999999997,-0.025880000000000014,0.006340000000000012,0.30499999999999994,-0.07999999999999996,-0.21499999999999997,0.08227999999999991,-0.16846000000000005,-0.039059999999999984,1742257815.789025
0.4099999999999999,0.29499999999999993,0.21500000000000008,-0.00878000000000001,0.17271999999999998,-0.041019999999999945,0.74,-0.14500000000000002,0.4750000000000001,-0.023440000000000016,-0.048820000000000086,0.00024000000000001798,1742257815.905226
0.2749999999999999,0.20500000000000007,-0.07000000000000006,-0.010259999999999936,-0.03710000000000002,-0.01978000000000002,0.53,-0.09999999999999998,0.22999999999999998,-0.09144000000000008,0.05235999999999996,0.08325999999999989,1742257816.016912
0.29499999999999993,0.33000000000000007,0.14500000000000002,0.008299999999999974,-0.11658000000000002,0.04747999999999997,0.5150000000000001,-0.04500000000000004,0.09000000000000008,0.16578000000000004,-0.050899999999999945,0.07385999999999981,1742257816.13079
0.5550000000000002,-0.040000000000000036,-0.28,-0.10486000000000006,-0.19946000000000008,0.09349999999999992,0.33000000000000007,-0.05500000000000005,-0.10999999999999999,0.18823999999999996,-0.08996000000000004,-0.11572000000000005,1742257816.245939
0.43500000000000005,0.2250000000000001,0.29000000000000004,-0.03527999999999998,0.14769999999999994,0.04503999999999997,0.53,-0.17999999999999994,0.29000000000000004,0.016240000000000032,-0.07531999999999994,-0.05700000000000005,1742257816.366604
0.3500000000000001,0.2749999999999999,-0.06000000000000005,-0.03198000000000001,0.04723999999999995,0.023440000000000127,0.595,-0.135,0.32499999999999996,-0.05396000000000001,0.07128000000000001,0.03320000000000012,1742257816.472848
0.345,0.25,-0.040000000000000036,0.049919999999999964,-0.10839999999999994,0.027579999999999938,0.3900000000000001,-0.10499999999999998,0.04499999999999993,0.07714000000000021,0.13196000000000008,0.028799999999999937,1742257816.586805
0.3900000000000001,0.3400000000000001,0.365,-0.021360000000000046,-0.14942,0.027099999999999902,0.31499999999999995,-0.010000000000000009,-0.16500000000000004,0.025760000000000005,0.0009799999999999809,-0.016960000000000086,1742257816.701747
0.44500000000000006,0.30000000000000004,0.395,0.04188000000000014,0.09266000000000019,-0.02307999999999999,0.5049999999999999,-0.05500000000000005,0.28,0.026619999999999866,-0.03515999999999997,-0.03479999999999994,1742257816.814822
0.33499999999999996,0.2250000000000001,0.07000000000000006,-0.052120000000000055,0.14148000000000005,-0.03748000000000007,0.6800000000000002,-0.08999999999999997,0.28,0.06494,0.010739999999999972,-0.018320000000000003,1742257816.928687
0.32499999999999996,0.26,-0.08999999999999997,0.020140000000000047,-0.056520000000000015,0.00770000000000004,0.4750000000000001,-0.07999999999999996,0.125,-0.09620000000000006,0.09192,0.027700000000000058,1742257817.0469491
0.3400000000000001,0.30499999999999994,0.18999999999999995,-0.008299999999999974,-0.12451999999999996,0.053099999999999925,0.3400000000000001,-0.11499999999999999,-0.16000000000000003,-0.046760000000000024,0.04150000000000009,-0.02391999999999994,1742257817.156878
0.45999999999999996,0.29000000000000004,0.41500000000000004,0.06567999999999996,-0.03637999999999997,0.02635999999999994,0.48,-0.16500000000000004,0.20999999999999996,0.0047600000000000975,-0.12841999999999998,-0.0031799999999999606,1742257817.271
0.30499999999999994,0.32499999999999996,0.1499999999999999,-0.050899999999999945,0.1922600000000001,-0.04589999999999994,0.595,-0.050000000000000044,0.375,-0.054200000000000026,-0.07641999999999993,0.04527999999999999,1742257817.3867211
0.29000000000000004,0.32499999999999996,-0.07999999999999996,-0.02415999999999996,0.02442000000000011,-0.006220000000000003,0.4950000000000001,-0.10499999999999998,0.18999999999999995,-0.12841999999999998,0.14781999999999984,0.01770000000000005,1742257817.506861
0.355,0.31499999999999995,0.14500000000000002,-0.036619999999999986,-0.13049999999999995,0.052240000000000064,0.3599999999999999,-0.22999999999999998,-0.09499999999999997,0.0009799999999999809,0.058339999999999836,-0.014780000000000015,1742257817.612884
0.47,0.28,0.3599999999999999,0.04688000000000003,-0.04736000000000007,-0.001960000000000073,0.33499999999999996,-0.125,0.010000000000000009,0.08582000000000001,-0.17908000000000002,0.010140000000000038,1742257817.727198
0.395,0.29000000000000004,0.22999999999999998,-0.023679999999999923,0.13853999999999989,-0.04822000000000004,0.52,-0.20999999999999996,0.3400000000000001,0.007200000000000095,0.010380000000000056,-0.08544000000000007,1742257817.847487
0.27,0.23499999999999988,0.0,-0.04589999999999994,0.05884,-0.03491999999999995,0.6099999999999999,-0.13,0.2749999999999999,-0.10777999999999999,0.048819999999999864,0.07373999999999992,1742257817.954794
0.33499999999999996,0.22999999999999998,-0.010000000000000009,-0.024419999999999997,-0.10718000000000005,0.04248000000000007,0.41500000000000004,-0.07000000000000006,-0.020000000000000018,0.010380000000000056,0.029900000000000038,0.035760000000000014,1742257818.068848
0.41999999999999993,0.31000000000000005,0.16500000000000004,0.13476,-0.05249999999999999,0.04150000000000009,0.28,-0.06000000000000005,-0.20999999999999996,0.02222000000000013,-0.05358000000000007,-0.046499999999999986,1742257818.1905248
0.44999999999999996,0.3700000000000001,0.365,0.011360000000000037,0.05699999999999994,0.029059999999999864,0.47,-0.275,0.08499999999999996,0.12573999999999996,-0.02648000000000006,-0.11499999999999999,1742257818.2969248
0.2849999999999999,0.385,0.04499999999999993,0.008059999999999956,0.07690000000000019,0.010739999999999972,0.6600000000000001,-0.19999999999999996,0.21999999999999997,-0.03417999999999999,0.03723999999999994,0.006460000000000132,1742257818.410794
0.27,0.2749999999999999,-0.06499999999999995,0.011600000000000055,-0.03710000000000002,0.01977999999999991,0.44999999999999996,-0.19999999999999996,0.11499999999999999,-0.02185999999999999,0.11914000000000002,0.0908199999999999,1742257818.527245
0.33000000000000007,0.395,0.3400000000000001,-0.03405999999999998,-0.059820000000000095,0.0026800000000000157,0.31000000000000005,-0.07499999999999996,-0.17000000000000004,-0.0006199999999999539,0.025020000000000042,0.04455999999999993,1742257818.643028
0.42999999999999994,0.43999999999999995,0.365,0.04296000000000011,-0.01648000000000005,-0.01427999999999996,0.3799999999999999,-0.25,0.1200000000000001,-0.17028,-0.06335999999999997,0.010259999999999936,1742257818.7527082
0.345,0.33000000000000007,0.22999999999999998,0.07642000000000015,0.14013999999999993,-0.04149999999999998,0.78,-0.10499999999999998,0.29499999999999993,-0.040039999999999965,0.020019999999999927,0.014040000000000052,1742257818.868085
0.2250000000000001,0.23499999999999988,-0.030000000000000027,0.002080000000000082,-0.01525999999999994,-0.07264000000000004,0.5449999999999999,-0.11499999999999999,0.18500000000000005,-0.06934000000000007,0.06469999999999998,0.09777999999999998,1742257818.987999
0.29499999999999993,0.29499999999999993,0.1100000000000001,0.01317999999999997,-0.11658000000000002,0.0037799999999998946,0.32499999999999996,-0.050000000000000044,-0.09999999999999998,-0.02061999999999997,0.05285999999999991,0.11107999999999985,1742257819.09473
0.3999999999999999,0.3599999999999999,0.44500000000000006,-0.13978000000000002,-0.08886000000000005,0.03051999999999988,0.32000000000000006,-0.04500000000000004,-0.22499999999999998,0.06298000000000004,-0.13598,-0.05018,1742257819.211303
0.44500000000000006,0.2749999999999999,0.2450000000000001,-0.040159999999999973,0.14659999999999984,-0.06384000000000001,0.5449999999999999,0.030000000000000027,0.07499999999999996,0.048699999999999966,-0.1543,-0.08984000000000003,1742257819.32719
0.3799999999999999,0.19999999999999996,0.020000000000000018,-0.00770000000000004,0.07642000000000015,-0.04283999999999999,0.585,-0.05500000000000005,0.2849999999999999,-0.06225999999999998,0.033440000000000136,0.07555999999999985,1742257819.43671
0.3900000000000001,0.19999999999999996,-0.050000000000000044,-0.05235999999999996,-0.05688000000000004,0.01770000000000005,0.405,-0.07000000000000006,0.06000000000000005,0.01097999999999999,0.09814000000000012,0.045539999999999914,1742257819.550679
0.45500000000000007,0.24,0.26,0.048579999999999846,-0.07201999999999997,0.028079999999999883,0.365,-0.015000000000000013,-0.04500000000000004,0.05821999999999994,0.02868000000000004,-0.012319999999999998,1742257819.669478
0.47,0.25,0.29499999999999993,0.03308,0.02868000000000004,-0.01978000000000002,0.48,-0.08499999999999996,0.16500000000000004,0.04711999999999983,-0.08520000000000005,-0.10644000000000009,1742257819.78799
0.3999999999999999,0.22999999999999998,0.09000000000000008,-0.1174400000000001,0.0638399999999999,-0.03186,0.6299999999999999,-0.025000000000000022,0.28,-0.07910000000000006,0.031500000000000083,-0.015020000000000033,1742257819.892713
0.3500000000000001,0.16999999999999993,-0.05500000000000005,0.01855999999999991,-0.051019999999999954,0.03492000000000006,0.52,-0.08999999999999997,0.09499999999999997,-0.0232,0.05566000000000004,0.007440000000000113,1742257820.0077171
0.345,0.32499999999999996,0.1299999999999999,0.05030000000000001,-0.07591999999999999,0.06407999999999991,0.33499999999999996,-0.06000000000000005,-0.14,0.028799999999999937,0.027099999999999902,-0.006960000000000077,1742257820.129087
0.5,0.3500000000000001,0.3500000000000001,0.07957999999999998,-0.020019999999999927,0.010259999999999936,0.3799999999999999,-0.21499999999999997,0.16500000000000004,-0.015020000000000033,-0.14049999999999996,-0.09020000000000006,1742257820.234817
0.3900000000000001,0.26,0.18999999999999995,-0.03064,0.09631999999999996,0.006099999999999994,0.6600000000000001,-0.12,0.41999999999999993,-0.0601799999999999,0.008299999999999974,-0.019540000000000002,1742257820.348737
0.27,0.26,-0.010000000000000009,-0.03405999999999998,0.03503999999999996,0.0013400000000001189,0.53,-0.14500000000000002,0.2250000000000001,-0.10486000000000006,0.05821999999999994,0.04601999999999995,1742257820.468129
0.30000000000000004,0.3400000000000001,0.020000000000000018,-0.07347999999999999,-0.10486000000000006,0.04797999999999991,0.345,-0.15000000000000002,-0.07000000000000006,0.002080000000000082,0.05711999999999984,0.07642000000000015,1742257820.576663
0.4099999999999999,0.43999999999999995,0.42999999999999994,-0.047860000000000014,-0.03955999999999993,0.009759999999999991,0.345,-0.11499999999999999,-0.14,0.0836199999999998,-0.02844000000000002,-0.010000000000000009,1742257820.691108
0.41500000000000004,0.33499999999999996,0.30000000000000004,0.04688000000000003,0.09436,-0.06494000000000011,0.53,-0.06000000000000005,0.05499999999999994,0.04357999999999995,-0.10424,-0.06946000000000008,1742257820.808448
0.3500000000000001,0.23499999999999988,0.06000000000000005,0.02868000000000004,0.07385999999999981,-0.08287999999999995,0.605,-0.08499999999999996,0.21999999999999997,-0.048820000000000086,-0.0012199999999999989,0.018799999999999928,1742257820.928075
0.33499999999999996,0.20500000000000007,0.004999999999999893,-0.0034199999999999786,0.011239999999999917,0.01415999999999995,0.4849999999999999,-0.14500000000000002,0.1100000000000001,-0.03942000000000001,0.04235999999999995,0.041140000000000176,1742257821.032778
0.30000000000000004,0.4849999999999999,0.2450000000000001,0.004999999999999893,0.022580000000000044,0.04090000000000016,0.27,-0.015000000000000013,-0.15000000000000002,0.006340000000000012,0.005619999999999958,0.020019999999999927,1742257821.149194
0.5800000000000001,0.44999999999999996,0.365,0.10167999999999999,-0.03601999999999994,-0.014399999999999968,0.5,0.010000000000000009,0.26,-0.10705999999999993,-0.02855999999999992,-0.018919999999999937,1742257821.268609
0.30000000000000004,0.28,0.20500000000000007,0.12182000000000004,0.11961999999999984,-0.04027999999999998,0.7850000000000001,-0.07999999999999996,0.345,-0.06603999999999999,0.015260000000000051,0.0329600000000001,1742257821.374621
0.2549999999999999,0.135,-0.135,-0.007320000000000104,-0.006099999999999994,-0.0017000000000000348,0.48,-0.14,0.125,-0.05479999999999996,0.09143999999999997,0.06518000000000002,1742257821.488778
0.32499999999999996,0.29499999999999993,0.1100000000000001,-0.05249999999999999,-0.10596000000000005,0.07618000000000014,0.32000000000000006,-0.06000000000000005,-0.13,-0.001960000000000073,0.026739999999999986,0.047599999999999865,1742257821.607795
0.45500000000000007,0.45999999999999996,0.385,-0.011600000000000055,-0.04310000000000003,0.0045200000000000795,0.365,-0.22499999999999998,0.08000000000000007,-0.05346000000000006,-0.14049999999999996,-0.052240000000000064,1742257821.716822
0.43999999999999995,0.30000000000000004,0.20500000000000007,0.02929999999999988,0.12220000000000009,-0.049919999999999964,0.7050000000000001,-0.10999999999999999,0.31499999999999995,-0.0048799999999999955,0.035519999999999996,-0.0030599999999999516,1742257821.830709
0.2549999999999999,0.20500000000000007,-0.135,-0.049919999999999964,0.023800000000000043,-0.04589999999999994,0.45999999999999996,-0.14,0.2250000000000001,-0.0007399999999999629,0.10949999999999993,0.030399999999999983,1742257821.94841
0.345,0.25,0.004999999999999893,-0.058479999999999976,-0.125,0.07250000000000001,0.3700000000000001,-0.14,-0.020000000000000018,-0.03601999999999994,0.09338000000000002,0.04845999999999995,1742257822.068128
0.48,0.30499999999999994,0.32000000000000006,-0.08141999999999994,-0.10718000000000005,0.04785999999999979,0.375,-0.17999999999999994,-0.17500000000000004,0.04809999999999981,-0.12012,-0.06446000000000007,1742257822.172831
0.395,0.2849999999999999,0.28,0.05003999999999986,0.11206000000000005,-0.018919999999999937,0.55,-0.15500000000000003,0.10000000000000009,0.037599999999999856,-0.07874000000000003,-0.03979999999999995,1742257822.287924
0.2749999999999999,0.355,-0.015000000000000013,0.08397999999999994,0.07520000000000016,-0.011960000000000082,0.5249999999999999,-0.135,0.21999999999999997,-0.04149999999999998,0.1224400000000001,-0.014519999999999977,1742257822.4076312
0.32499999999999996,0.2849999999999999,-0.04500000000000004,-0.04747999999999997,-0.11241999999999996,0.03161999999999998,0.3799999999999999,-0.09999999999999998,-0.125,-0.024899999999999922,0.08582000000000001,0.027579999999999938,1742257822.514688
0.405,0.365,0.45999999999999996,-0.04200000000000004,-0.08948,0.014040000000000052,0.3799999999999999,-0.12,-0.15500000000000003,0.05140000000000011,-0.12220000000000009,-0.04955999999999994,1742257822.628813
0.3799999999999999,0.32499999999999996,0.30000000000000004,0.023679999999999923,0.10631999999999997,-0.02403999999999995,0.5249999999999999,-0.12,0.1100000000000001,0.04735999999999985,-0.11021999999999998,-0.026120000000000032,1742257822.748021
0.3400000000000001,0.28,0.05499999999999994,0.010860000000000092,0.10705999999999993,-0.019039999999999946,0.56,-0.09499999999999997,0.19500000000000006,0.03161999999999998,0.02844000000000002,-0.02185999999999999,1742257822.856634
0.365,0.26,0.004999999999999893,0.0009799999999999809,-0.03858000000000006,0.03088000000000002,0.3900000000000001,-0.17999999999999994,-0.06000000000000005,0.05396000000000001,0.10485999999999995,-0.03846000000000005,1742257822.970697
0.3400000000000001,0.42999999999999994,0.30000000000000004,0.10522000000000009,-0.10375999999999996,-0.02942,0.395,-0.255,-0.06499999999999995,0.018920000000000048,-0.037959999999999994,0.0023200000000000998,1742257823.087714
0.385,0.30499999999999994,0.30499999999999994,-0.009159999999999946,0.03527999999999998,0.023800000000000043,0.51,-0.09999999999999998,0.14000000000000012,0.0026800000000000157,-0.09460000000000002,-0.012700000000000045,1742257823.198647
0.31000000000000005,0.375,0.06499999999999995,0.043099999999999916,0.11316000000000015,-0.01758000000000004,0.575,-0.15500000000000003,0.09499999999999997,-0.01746000000000003,0.017340000000000133,0.03222000000000014,1742257823.312568
0.33000000000000007,0.30000000000000004,0.03499999999999992,0.054200000000000026,0.0015800000000001369,-0.0048799999999999955,0.41999999999999993,-0.16500000000000004,0.06499999999999995,0.005980000000000096,0.09716000000000014,0.08081999999999989,1742257823.427397
0.3400000000000001,0.3400000000000001,0.07000000000000006,0.03064,-0.11950000000000005,0.012700000000000156,0.355,-0.14,-0.235,0.06640000000000001,0.03479999999999994,0.02611999999999992,1742257823.5481129
0.45500000000000007,0.33000000000000007,0.41500000000000004,0.09167999999999998,-0.012820000000000054,-0.058479999999999976,0.5,0.014999999999999902,0.14500000000000002,-0.038940000000000086,-0.0029199999999999227,-0.00988,1742257823.6546571
0.3700000000000001,0.21500000000000008,0.19999999999999996,-0.01415999999999995,0.11461999999999994,-0.014900000000000024,0.6800000000000002,-0.06000000000000005,0.3500000000000001,-0.06274000000000002,-0.04798000000000002,0.002080000000000082,1742257823.768566
0.29499999999999993,0.26,0.004999999999999893,-0.0048799999999999955,0.06773999999999991,-0.033320000000000016,0.52,-0.040000000000000036,0.014999999999999902,-0.07446000000000008,0.04405999999999999,0.027959999999999985,1742257823.8876328
0.32000000000000006,0.3400000000000001,0.14500000000000002,-0.057620000000000005,-0.09814,0.06188000000000016,0.3599999999999999,-0.050000000000000044,-0.15500000000000003,-0.017340000000000022,0.0006200000000000649,0.02844000000000002,1742257823.99666
0.44999999999999996,0.31499999999999995,0.3999999999999999,-0.047860000000000014,-0.055179999999999896,0.016599999999999948,0.44500000000000006,-0.14500000000000002,0.15500000000000003,-0.0795800000000001,-0.07653999999999994,-0.025760000000000005,1742257824.1107788
0.4099999999999999,0.23499999999999988,0.2549999999999999,0.04809999999999981,0.10875999999999997,-0.026619999999999977,0.6299999999999999,-0.17000000000000004,0.3799999999999999,-0.03405999999999998,-0.059700000000000086,-0.019279999999999964,1742257824.2273312
0.33499999999999996,0.2749999999999999,0.03499999999999992,-0.031240000000000046,0.0662799999999999,-0.02636000000000005,0.53,-0.07499999999999996,0.19500000000000006,-0.07481999999999989,0.07142000000000004,0.02868000000000004,1742257824.347931
0.33000000000000007,0.23499999999999988,-0.015000000000000013,-0.028679999999999928,-0.08751999999999993,0.059579999999999966,0.3900000000000001,-0.17500000000000004,-0.015000000000000013,0.06651999999999991,0.07702000000000009,-0.01525999999999994,1742257824.452651
0.365,0.24,0.1499999999999999,0.15405999999999986,-0.034420000000000006,0.005980000000000096,0.3599999999999999,-0.15500000000000003,-0.16500000000000004,0.08275999999999994,-0.08020000000000005,-0.06408000000000003,1742257824.567863
0.405,0.375,0.29000000000000004,-0.07201999999999997,0.03698000000000001,0.01855999999999991,0.5,-0.16000000000000003,0.135,0.018179999999999863,-0.07508000000000004,-0.03601999999999994,1742257824.680734
0.30499999999999994,0.33000000000000007,0.09000000000000008,-0.01317999999999997,0.0942400000000001,-0.039059999999999984,0.575,-0.11499999999999999,0.19500000000000006,-0.0650599999999999,0.02391999999999994,0.006340000000000012,1742257824.794603
0.32000000000000006,0.2749999999999999,-0.0050000000000000044,0.0029200000000000337,-0.0232,0.01635999999999993,0.41500000000000004,-0.14500000000000002,0.06499999999999995,0.07433999999999985,0.17503999999999986,-0.03161999999999998,1742257824.908641
0.30499999999999994,0.3500000000000001,0.04499999999999993,0.00782000000000016,-0.12854,0.0578599999999998,0.32499999999999996,-0.17000000000000004,-0.24,-0.0122000000000001,0.03051999999999988,-0.018440000000000012,1742257825.027803
0.3999999999999999,0.3799999999999999,0.33000000000000007,-0.0027999999999999137,-0.05479999999999996,0.033560000000000034,0.43999999999999995,-0.32499999999999996,0.26,-0.12670000000000003,-0.11962000000000006,0.007440000000000113,1742257825.136662
0.33000000000000007,0.365,0.20500000000000007,-0.021600000000000064,0.09558,-0.043340000000000045,0.6000000000000001,-0.21999999999999997,0.2749999999999999,0.016960000000000086,-0.041019999999999945,-0.015499999999999958,1742257825.250668
0.33000000000000007,0.29000000000000004,0.020000000000000018,-0.019540000000000002,0.059700000000000086,-0.04149999999999998,0.49,-0.14500000000000002,0.18500000000000005,-0.054320000000000035,0.10155999999999987,0.06054000000000004,1742257825.366719
0.31000000000000005,0.2849999999999999,-0.03500000000000003,-0.021240000000000037,-0.09326000000000001,0.031239999999999934,0.3999999999999999,-0.20999999999999996,0.010000000000000009,0.11755999999999989,0.13305999999999996,0.01097999999999999,1742257825.487751
0.33000000000000007,0.2450000000000001,0.08499999999999996,0.00550000000000006,-0.10438000000000003,0.026000000000000023,0.385,0.03499999999999992,-0.17500000000000004,0.012820000000000054,-0.00770000000000004,0.031500000000000083,1742257825.591664
0.41999999999999993,0.355,0.43500000000000005,0.06006,0.0031799999999999606,-0.04503999999999997,0.5449999999999999,-0.08999999999999997,0.3500000000000001,-0.10486000000000006,-0.10863999999999996,-0.025760000000000005,1742257825.7118888
0.28,0.31499999999999995,0.2450000000000001,-0.018799999999999928,0.08776000000000006,-0.007940000000000058,0.6400000000000001,-0.19999999999999996,0.375,-0.08826,0.0025599999999998957,0.051140000000000185,1742257825.827551
0.28,0.28,-0.07000000000000006,-0.0025599999999998957,0.011360000000000037,-0.027700000000000058,0.47,-0.125,0.03499999999999992,-0.011600000000000055,0.23340000000000005,0.02088000000000001,1742257825.9335418
0.31000000000000005,0.29499999999999993,-0.0050000000000000044,0.014520000000000088,-0.18164000000000002,0.055299999999999905,0.31499999999999995,-0.09999999999999998,-0.30499999999999994,-0.028200000000000003,0.0035399999999998766,0.05920000000000014,1742257826.0476649
0.375,0.345,0.44999999999999996,-0.022340000000000027,-0.12315999999999994,0.019160000000000066,0.3500000000000001,-0.10499999999999998,-0.04500000000000004,0.0907,-0.22363999999999995,-0.07177999999999995,1742257826.1690729
0.375,0.2549999999999999,0.32000000000000006,0.0037799999999998946,0.13183999999999996,-0.021240000000000037,0.5699999999999998,-0.06499999999999995,0.18999999999999995,0.0047600000000000975,-0.1886,-0.010259999999999936,1742257826.275609
0.29000000000000004,0.345,0.1200000000000001,-0.018799999999999928,0.12952000000000008,-0.018919999999999937,0.5550000000000002,-0.14500000000000002,0.2549999999999999,-0.03942000000000001,0.08850000000000002,0.013679999999999914,1742257826.38955
0.375,0.25,0.0,-0.033320000000000016,-0.04589999999999994,0.06640000000000001,0.375,-0.11499999999999999,-0.07999999999999996,0.07728000000000002,0.11182000000000003,-0.011240000000000028,1742257826.507027
0.345,0.365,0.24,0.03709999999999991,-0.10694000000000004,0.030279999999999863,0.33499999999999996,-0.15000000000000002,-0.15000000000000002,0.10095999999999994,-0.10938000000000003,-0.09289999999999998,1742257826.626795
0.395,0.33000000000000007,0.375,0.05030000000000001,0.0295399999999999,-0.010379999999999945,0.44999999999999996,-0.20999999999999996,0.135,0.07618000000000014,-0.14196000000000009,-0.06541999999999992,1742257826.731612
0.29000000000000004,0.32499999999999996,0.030000000000000027,-0.08055999999999996,0.18859999999999988,-0.06481999999999999,0.605,-0.15000000000000002,0.21999999999999997,-0.027959999999999985,0.024540000000000006,-0.0022000000000000908,1742257826.8473978
0.30000000000000004,0.2549999999999999,-0.050000000000000044,-0.03283999999999998,-0.010499999999999954,-0.0036599999999999966,0.44500000000000006,-0.16000000000000003,0.06499999999999995,-0.014780000000000015,0.1212200000000001,-0.0514,1742257826.9673212
0.29000000000000004,0.31000000000000005,0.135,0.005980000000000096,-0.12696000000000007,0.06666000000000016,0.3599999999999999,-0.13,-0.06499999999999995,-0.12732,0.09007999999999994,0.06666000000000016,1742257827.073576
0.53,0.1100000000000001,-0.09999999999999998,-0.39294000000000007,-0.28174,0.18628,0.3500000000000001,-0.19500000000000006,0.09499999999999997,-0.06799999999999995,-0.11878,0.027959999999999985,1742257827.1896589
0.365,0.33499999999999996,0.2849999999999999,-0.041139999999999954,0.10277999999999987,0.0029200000000000337,0.4950000000000001,-0.17999999999999994,0.28,0.037959999999999994,-0.07740000000000002,-0.07629999999999992,1742257827.307946
0.30000000000000004,0.33499999999999996,0.07000000000000006,-0.03394000000000008,0.10705999999999993,-0.008919999999999928,0.615,-0.18500000000000005,0.21500000000000008,-0.0968,0.04381999999999997,0.033560000000000034,1742257827.415489
0.44999999999999996,0.33000000000000007,0.24,0.14722000000000013,-0.04174,-0.09129999999999994,0.23499999999999988,-0.26,-0.05500000000000005,0.2943199999999999,-0.14196000000000009,-0.009639999999999982,1742257501.3035898
0.5150000000000001,0.2450000000000001,0.2549999999999999,0.05848000000000009,0.1190199999999999,-0.06738,0.29499999999999993,0.10000000000000009,-0.020000000000000018,-0.038940000000000086,0.011719999999999953,0.0354000000000001,1742257501.417269
0.30499999999999994,0.18500000000000005,-0.0050000000000000044,0.027839999999999865,0.08850000000000002,-0.06176000000000004,0.4950000000000001,-0.040000000000000036,-0.18500000000000005,0.05566000000000004,0.007200000000000095,-0.1370800000000001,1742257501.535795
0.2749999999999999,0.16500000000000004,-0.03500000000000003,-0.002080000000000082,-0.12378,0.046640000000000015,0.7349999999999999,-0.07000000000000006,0.18999999999999995,-0.07591999999999999,-0.009159999999999946,0.0025599999999998957,1742257501.645389
0.55,0.21999999999999997,0.345,0.28248000000000006,0.09007999999999994,-0.17188000000000003,0.345,-0.07000000000000006,0.030000000000000027,0.010499999999999954,0.03370000000000006,0.12316000000000016,1742257501.759326
0.56,0.14000000000000012,0.29499999999999993,0.08275999999999994,0.08543999999999996,-0.007080000000000086,0.2849999999999999,0.09000000000000008,-0.04500000000000004,0.028799999999999937,-0.019540000000000002,0.02293999999999996,1742257501.8738189
0.26,0.07499999999999996,-0.17999999999999994,-0.09179999999999999,0.09227999999999992,-0.0010999999999999899,0.4950000000000001,-0.17999999999999994,0.05499999999999994,0.11450000000000005,-0.029779999999999918,-0.13012,1742257501.987375
0.30000000000000004,0.20999999999999996,-0.020000000000000018,-0.047719999999999985,-0.06762000000000001,0.056519999999999904,0.6949999999999998,0.0,0.18999999999999995,-0.1311,0.06469999999999998,0.019039999999999946,1742257502.101321
0.47,0.23499999999999988,0.10499999999999998,0.07543999999999995,-0.10229999999999995,0.03723999999999994,0.42999999999999994,-0.07499999999999996,0.06000000000000005,-0.01208000000000009,0.038819999999999855,0.06788000000000016,1742257502.2154748
0.52,0.2549999999999999,0.3500000000000001,0.011479999999999935,0.07850000000000001,-0.06579999999999997,0.30000000000000004,0.16500000000000004,-0.07499999999999996,0.04577999999999993,-0.05164000000000002,-0.005739999999999967,1742257502.334048
0.3900000000000001,0.26,0.08000000000000007,-0.012940000000000063,0.0354000000000001,-0.06359999999999999,0.5550000000000002,0.10000000000000009,0.17999999999999994,0.03956000000000004,-0.03527999999999998,-0.08338000000000001,1742257502.4433951
0.3400000000000001,0.06499999999999995,-0.050000000000000044,-0.035760000000000014,-0.06494000000000011,0.006960000000000077,0.69,-0.125,0.375,-0.11450000000000005,0.036619999999999875,0.022820000000000062,1742257502.557291
0.355,0.16999999999999993,0.010000000000000009,0.10546000000000011,-0.06311999999999995,0.09973999999999994,0.4650000000000001,-0.020000000000000018,0.07499999999999996,-0.0045199999999999685,0.02648000000000006,0.00048000000000003595,1742257502.6742458
0.5150000000000001,0.3900000000000001,0.52,0.03833999999999982,0.06982,-0.00770000000000004,0.3900000000000001,0.09000000000000008,-0.08499999999999996,-0.06847999999999999,0.016119999999999912,0.0968,1742257502.785404
0.2650000000000001,0.21500000000000008,0.2450000000000001,0.07740000000000014,0.21043999999999996,-0.06640000000000001,0.42500000000000004,0.08499999999999996,0.17999999999999994,0.00550000000000006,-0.057499999999999996,-0.02294000000000007,1742257502.899339
0.23499999999999988,0.14000000000000012,-0.20999999999999996,-0.1754199999999999,-0.05358000000000007,0.0341800000000001,0.685,-0.06499999999999995,0.2849999999999999,-0.017080000000000095,0.015740000000000087,-0.00024000000000001798,1742257503.016586
0.45999999999999996,0.30499999999999994,0.2250000000000001,0.06678000000000006,-0.03295999999999999,0.06946000000000008,0.5449999999999999,-0.125,0.1499999999999999,-0.08911999999999998,0.023679999999999923,0.04027999999999987,1742257503.127454
0.3999999999999999,0.645,0.6600000000000001,0.0006200000000000649,0.05383999999999989,-0.0017000000000000348,0.3500000000000001,0.05499999999999994,0.0,0.005619999999999958,0.031239999999999934,0.058599999999999985,1742257503.241193
0.375,0.19999999999999996,0.19500000000000006,0.07275999999999994,0.13598,-0.05725999999999998,0.3400000000000001,-0.05500000000000005,-0.040000000000000036,0.07835999999999999,-0.022340000000000027,-0.04174,1742257503.355401
0.32000000000000006,0.06499999999999995,-0.135,-0.015139999999999931,-0.03515999999999997,-0.013419999999999987,0.5899999999999999,-0.020000000000000018,0.33499999999999996,0.04357999999999995,-0.022700000000000053,-0.07128000000000001,1742257503.4755242
0.375,0.27,0.1100000000000001,-0.060799999999999965,-0.07347999999999999,0.058720000000000105,0.635,-0.025000000000000022,0.27,-0.12012,0.016839999999999966,0.044440000000000035,1742257503.583198
0.4849999999999999,0.355,0.41500000000000004,-0.14281999999999995,-0.10438000000000003,0.05346000000000006,0.32499999999999996,-0.08499999999999996,-0.03500000000000003,-0.010619999999999963,0.09033999999999986,0.06188000000000016,1742257503.697299
0.48,0.2450000000000001,0.26,0.05761999999999978,0.07728000000000002,-0.05615999999999999,0.33000000000000007,0.004999999999999893,-0.09999999999999998,0.04248000000000007,-0.04174,-0.04747999999999997,1742257503.81476
0.375,0.21999999999999997,0.02499999999999991,0.07201999999999997,0.06542000000000003,-0.02648000000000006,0.5449999999999999,-0.09499999999999997,0.06499999999999995,0.12890000000000001,-0.04479999999999995,-0.11268000000000011,1742257503.925339
0.33499999999999996,0.18999999999999995,0.08499999999999996,-0.04283999999999999,-0.07434000000000007,0.04845999999999995,0.605,-0.07000000000000006,0.23499999999999988,-0.11729999999999996,0.056400000000000006,0.04468000000000005,1742257504.039402
0.44500000000000006,0.17999999999999994,0.19999999999999996,0.18652000000000002,-0.1224400000000001,0.016960000000000086,0.41999999999999993,-0.040000000000000036,0.010000000000000009,0.027579999999999938,0.07264000000000004,0.040159999999999973,1742257504.1548538
0.47,0.18999999999999995,0.31499999999999995,-0.02636000000000005,0.01305999999999985,-0.03491999999999995,0.33499999999999996,0.050000000000000044,-0.09999999999999998,0.03857999999999984,0.00035999999999991594,-0.02513999999999994,1742257504.2672331
0.3900000000000001,0.15999999999999992,0.11499999999999999,-0.19226,0.13038000000000016,-0.01966000000000001,0.49,0.020000000000000018,0.1499999999999999,0.10009999999999986,-0.04589999999999994,-0.043460000000000054,1742257504.3814368
0.345,0.15999999999999992,0.014999999999999902,0.013299999999999867,-0.03967999999999994,0.028799999999999937,0.72,-0.08499999999999996,0.23499999999999988,-0.019279999999999964,-0.0039000000000000146,0.009400000000000075,1742257504.496734
0.355,0.29000000000000004,0.125,0.10314000000000001,-0.07787999999999995,0.02624000000000004,0.54,-0.06000000000000005,0.06000000000000005,-0.026739999999999986,0.1177999999999999,0.02611999999999992,1742257504.612339
0.45999999999999996,0.2849999999999999,0.3599999999999999,0.05003999999999986,-0.016840000000000077,-0.0027999999999999137,0.29000000000000004,0.02499999999999991,-0.18999999999999995,-0.04822000000000004,0.006460000000000132,0.05383999999999989,1742257504.72325
0.33499999999999996,0.17500000000000004,0.2450000000000001,0.007079999999999975,0.18786000000000014,-0.03283999999999998,0.355,-0.22499999999999998,0.23499999999999988,-0.03186,-0.12976,-0.08751999999999993,1742257504.837431
0.30499999999999994,0.16500000000000004,-0.04500000000000004,0.020499999999999963,-0.0075599999999999,-0.030399999999999983,0.78,-0.03500000000000003,0.30000000000000004,-0.03698000000000001,0.0048799999999999955,-0.010379999999999945,1742257504.955001
0.3799999999999999,0.24,0.26,0.0032999999999998586,-0.11315999999999993,0.06372,0.4750000000000001,-0.12,0.1499999999999999,-0.08422000000000007,0.09179999999999988,-0.049919999999999964,1742257505.0653691
0.51,0.365,0.405,0.09436,-0.03979999999999995,0.0041599999999999415,0.3500000000000001,-0.08999999999999997,-0.07999999999999996,-0.03882000000000008,0.02391999999999994,0.02416000000000018,1742257505.179353
0.45999999999999996,0.22999999999999998,0.25,-0.01208000000000009,0.11364000000000019,-0.04039999999999999,0.345,-0.09499999999999997,-0.20499999999999996,0.09899999999999998,-0.13,0.02293999999999996,1742257505.2954938
0.2749999999999999,0.17500000000000004,-0.05500000000000005,-0.06640000000000001,0.018179999999999863,0.0042800000000000615,0.595,-0.14500000000000002,0.10000000000000009,0.09460000000000002,-0.16308,-0.031120000000000037,1742257505.407344
0.31000000000000005,0.22999999999999998,0.004999999999999893,-0.0747000000000001,-0.13842,0.11194000000000015,0.585,-0.06499999999999995,0.20999999999999996,-0.10218000000000005,0.08068000000000008,0.0626199999999999,1742257505.521314
0.3999999999999999,0.4650000000000001,0.5049999999999999,-0.11131999999999997,-0.11426000000000003,0.05188000000000015,0.3500000000000001,-0.09999999999999998,-0.030000000000000027,-0.021120000000000028,0.04833999999999983,0.06738000000000022,1742257505.6354911
0.42500000000000004,0.29499999999999993,0.3400000000000001,-0.0035399999999999876,0.11768,-0.04064000000000001,0.33000000000000007,-0.0050000000000000044,-0.14500000000000002,0.06690000000000018,-0.05908000000000002,-0.08299999999999996,1742257505.7553122
0.2450000000000001,0.2549999999999999,-0.020000000000000018,-0.025760000000000005,0.025760000000000005,-0.01525999999999994,0.645,-0.015000000000000013,0.07000000000000006,0.0684800000000001,-0.09251999999999994,-0.04747999999999997,1742257505.863351
0.33000000000000007,0.20999999999999996,0.014999999999999902,0.021239999999999926,-0.05018,0.025140000000000162,0.6600000000000001,-0.025000000000000022,0.29000000000000004,-0.10450000000000004,0.03088000000000002,0.03845999999999994,1742257505.977269
0.43999999999999995,0.2250000000000001,0.23499999999999988,0.0027999999999999137,-0.10596000000000005,0.05285999999999991,0.31499999999999995,-0.10499999999999998,0.0,0.0638399999999999,0.07909999999999995,0.05455999999999994,1742257506.095242
0.4750000000000001,0.33000000000000007,0.395,0.03992000000000018,0.06347999999999998,-0.03405999999999998,0.30000000000000004,-0.030000000000000027,-0.09499999999999997,0.10827999999999993,-0.06811999999999996,-0.06872,1742257506.2054698
0.33499999999999996,0.16500000000000004,0.03499999999999992,-0.04515999999999998,0.12719999999999998,-0.09020000000000006,0.5550000000000002,-0.06000000000000005,-0.08499999999999996,0.09582000000000002,-0.10863999999999996,-0.07044000000000006,1742257506.319544
0.30499999999999994,0.125,0.010000000000000009,-0.0010999999999999899,-0.03917999999999999,0.024900000000000144,0.655,-0.04500000000000004,0.2749999999999999,-0.12622,0.007200000000000095,0.0578599999999998,1742257506.435626
0.3900000000000001,0.24,0.16500000000000004,0.17578000000000005,-0.05615999999999999,-0.0026799999999999047,0.47,-0.030000000000000027,0.014999999999999902,0.15100000000000002,-0.01978000000000002,-0.04310000000000003,1742257506.547348
0.51,0.32000000000000006,0.3799999999999999,-0.0027999999999999137,0.0626199999999999,-0.02501999999999993,0.3500000000000001,-0.020000000000000018,0.0,0.06323999999999996,-0.06335999999999997,-0.035640000000000005,1742257506.661369
0.3599999999999999,0.20500000000000007,0.08499999999999996,-0.13585999999999998,0.11328000000000005,-0.05065999999999993,0.56,-0.07999999999999996,0.2749999999999999,0.12134,-0.060919999999999974,-0.05798000000000003,1742257506.776124
0.33000000000000007,0.1499999999999999,0.010000000000000009,-0.029059999999999975,-0.01648000000000005,0.020140000000000047,0.635,-0.04500000000000004,0.26,-0.07103999999999999,0.02942,0.048699999999999966,1742257506.892349
0.41500000000000004,0.42999999999999994,0.2749999999999999,0.14246000000000003,0.06372,-0.017220000000000013,0.42500000000000004,-0.08499999999999996,0.040000000000000036,0.07190000000000007,0.08311999999999986,0.012460000000000138,1742257507.0030642
0.5350000000000001,0.3799999999999999,0.41500000000000004,0.08031999999999995,0.0021999999999999797,-0.006460000000000021,0.30000000000000004,-0.0050000000000000044,-0.07999999999999996,-0.015739999999999976,-0.011840000000000073,0.023800000000000043,1742257507.116482
0.29499999999999993,0.27,0.16999999999999993,-0.08338000000000001,0.14026000000000005,-0.04310000000000003,0.5699999999999998,-0.15500000000000003,0.26,0.059700000000000086,0.023560000000000025,-0.05358000000000007,1742257507.236058
0.25,0.18500000000000005,-0.13,-0.00024000000000001798,-0.06568000000000007,0.01208000000000009,0.6699999999999999,0.08499999999999996,0.3400000000000001,-0.002080000000000082,0.007200000000000095,0.025020000000000042,1742257507.344104
0.3700000000000001,0.345,0.14000000000000012,-0.013679999999999914,-0.08996000000000004,0.06529999999999991,0.44999999999999996,-0.07499999999999996,0.10000000000000009,-0.05810000000000004,0.05553999999999992,0.013919999999999932,1742257507.458237
0.5049999999999999,0.33000000000000007,0.355,0.031500000000000083,0.006460000000000132,-0.02734000000000003,0.375,-0.0050000000000000044,-0.135,-0.01770000000000005,-0.0013400000000000079,0.08764000000000016,1742257507.576859
0.33000000000000007,0.2450000000000001,0.16999999999999993,-0.012820000000000054,0.1665000000000001,-0.03076000000000001,0.47,0.06499999999999995,0.23499999999999988,-0.025399999999999978,-0.01966000000000001,-0.0007399999999999629,1742257507.68627
0.2650000000000001,0.25,-0.125,-0.09239999999999993,-0.01746000000000003,-0.019540000000000002,0.7349999999999999,0.040000000000000036,0.16999999999999993,0.06896000000000013,-0.0050000000000000044,-0.00770000000000004,1742257507.800056
0.345,0.23499999999999988,0.14500000000000002,-0.14490000000000003,-0.11914000000000002,0.09631999999999996,0.5350000000000001,-0.07000000000000006,0.22999999999999998,-0.0008599999999999719,0.02416000000000018,-0.00024000000000001798,1742257507.915885
0.55,0.3500000000000001,0.44999999999999996,0.051020000000000065,-0.03539999999999999,-0.03295999999999999,0.3500000000000001,-0.05500000000000005,-0.050000000000000044,0.02320000000000011,0.06555999999999984,0.04248000000000007,1742257508.028175
0.355,0.22999999999999998,0.21999999999999997,0.07666000000000017,0.11840000000000006,-0.05700000000000005,0.3799999999999999,0.014999999999999902,-0.12,0.04455999999999993,-0.044320000000000026,-0.07555999999999996,1742257508.14236
0.2549999999999999,0.23499999999999988,0.02499999999999991,-0.03382000000000007,0.06678000000000006,-0.04283999999999999,0.5,-0.07999999999999996,-0.010000000000000009,0.05030000000000001,-0.11205999999999994,-0.06896000000000002,1742257508.256522
0.3700000000000001,0.2450000000000001,0.11499999999999999,-0.054320000000000035,-0.06029999999999991,0.07044000000000006,0.585,-0.040000000000000036,0.26,-0.07153999999999994,0.038939999999999975,0.03442000000000012,1742257508.3761349
0.4750000000000001,0.26,0.17999999999999994,-0.0022000000000000908,-0.10863999999999996,0.04711999999999983,0.395,-0.07999999999999996,0.004999999999999893,0.04039999999999999,0.07520000000000016,0.028079999999999883,1742257508.484214
0.4950000000000001,0.2749999999999999,0.3400000000000001,0.031500000000000083,0.056400000000000006,-0.04724000000000006,0.3799999999999999,-0.015000000000000013,-0.08999999999999997,0.06994000000000011,0.01110000000000011,-0.06005999999999989,1742257508.598258
0.355,0.2549999999999999,0.125,-0.04271999999999998,0.05164000000000013,-0.049919999999999964,0.54,-0.03500000000000003,0.10499999999999998,0.09045999999999998,-0.07898000000000005,-0.06896000000000002,1742257508.7166562
