L-AccX,L-AccY,L-AccZ,L-GyrX,L-GyrY,L-GyrZ,R-AccX,R-AccY,R-AccZ,R-GyrX,R-GyrY,R-GyrZ,timestamp
-0.42999999999999994,-0.11499999999999999,-0.6,0.13305999999999996,-0.17676000000000003,0.13598,-0.395,0.02499999999999991,0.44500000000000006,-0.0858199999999999,0.3066399999999998,-0.17846000000000006,1742248653.145817
-0.13,0.14000000000000012,-0.525,0.12390000000000012,-0.22105999999999992,0.12940000000000018,-0.595,-0.025000000000000022,0.16999999999999993,0.03709999999999991,-0.010379999999999945,-0.08862000000000003,1742248653.2616022
0.020000000000000018,0.16999999999999993,-0.255,0.017940000000000067,0.12390000000000012,0.017940000000000067,-0.535,-0.17500000000000004,0.07000000000000006,-0.19494,-0.07079999999999997,0.14808,1742248653.373874
-0.35,0.06499999999999995,-0.475,-0.19764000000000004,0.20422000000000007,-0.04027999999999998,-0.235,0.040000000000000036,0.4750000000000001,-0.17408,0.0329600000000001,0.014040000000000052,1742248653.487734
-0.2849999999999999,0.0,-0.44999999999999996,0.024780000000000024,-0.05676000000000003,0.0029200000000000337,-0.365,-0.07999999999999996,0.33000000000000007,0.009759999999999991,0.04747999999999997,-0.08177999999999996,1742248653.606316
-0.22999999999999998,0.050000000000000044,-0.47,0.11548000000000003,-0.12341999999999997,0.11827999999999994,-0.395,-0.040000000000000036,0.31000000000000005,0.10095999999999994,-0.0013400000000000079,0.01648000000000005,1742248653.721985
-0.08499999999999996,0.15999999999999992,-0.49,0.07957999999999998,-0.11363999999999996,0.06298000000000004,-0.525,-0.15000000000000002,0.1499999999999999,0.16456000000000004,-0.007080000000000086,-0.03724000000000005,1742248653.829842
-0.050000000000000044,0.22999999999999998,-0.32000000000000006,-0.04527999999999999,0.10729999999999995,-0.13488,-0.4650000000000001,-0.19999999999999996,0.07000000000000006,-0.11060000000000003,-0.13915999999999995,0.1677200000000001,1742248653.94382
-0.32000000000000006,0.06499999999999995,-0.525,-0.18908000000000003,0.09179999999999988,-0.19055999999999995,-0.18999999999999995,-0.09999999999999998,0.395,-0.03465999999999991,0.05030000000000001,0.046499999999999986,1742248654.064142
-0.3400000000000001,0.050000000000000044,-0.5,0.009759999999999991,-0.012820000000000054,-0.013539999999999996,-0.31499999999999995,-0.09999999999999998,0.44500000000000006,-0.025399999999999978,0.10119999999999996,-0.08704,1742248654.171833
-0.17000000000000004,0.02499999999999991,-0.43500000000000005,-0.040899999999999936,-0.13842,0.15539999999999998,-0.4,-0.03500000000000003,0.24,0.13805999999999985,0.010380000000000056,-0.11120000000000008,1742248654.285724
0.21999999999999997,0.385,-0.31499999999999995,0.043460000000000054,0.02293999999999996,0.03942000000000001,-0.595,-0.31000000000000005,0.20999999999999996,-0.05688000000000004,0.037599999999999856,0.10253999999999985,1742248654.402098
0.020000000000000018,0.22999999999999998,-0.365,-0.08472000000000002,0.09129999999999994,-0.0736,-0.4,-0.19999999999999996,0.395,-0.10486000000000006,-0.08948,0.1814,1742248654.5138292
-0.32000000000000006,0.04499999999999993,-0.61,-0.11072000000000004,0.043460000000000054,-0.08068000000000008,-0.26,-0.135,0.3900000000000001,0.024660000000000126,0.05152000000000001,-0.04188000000000003,1742248654.627872
-0.22499999999999998,0.17999999999999994,-0.535,0.12731999999999988,-0.15783999999999998,0.09301999999999988,-0.365,-0.05500000000000005,0.29499999999999993,0.12426000000000004,0.032480000000000064,-0.06494000000000011,1742248654.741785
0.0,0.25,-0.275,0.043099999999999916,-0.11756,0.08752000000000004,-0.555,-0.19999999999999996,0.14500000000000002,0.13623999999999992,-0.09924,-0.10486000000000006,1742248654.862515
0.06000000000000005,0.29000000000000004,-0.33000000000000007,-0.022340000000000027,0.09594000000000014,-0.055179999999999896,-0.48,-0.18500000000000005,0.30499999999999994,-0.12487999999999999,-0.05152000000000001,0.14647999999999994,1742248654.969821
-0.29499999999999993,0.07499999999999996,-0.64,-0.032220000000000026,0.16955999999999993,-0.09802,-0.16500000000000004,-0.08999999999999997,0.5049999999999999,0.03968000000000016,0.03980000000000006,0.06651999999999991,1742248655.085739
-0.21999999999999997,0.09000000000000008,-0.495,0.06103999999999998,-0.04125999999999996,-0.018320000000000003,-0.385,-0.18500000000000005,0.3900000000000001,0.019039999999999946,0.06555999999999984,-0.07508000000000004,1742248655.203375
-0.015000000000000013,0.19999999999999996,-0.39,0.13623999999999992,-0.0916800000000001,0.07128000000000001,-0.475,-0.17500000000000004,0.29499999999999993,0.04370000000000007,0.05188000000000015,-0.0747000000000001,1742248655.311717
0.15999999999999992,0.29000000000000004,-0.375,-0.0050000000000000044,0.03381999999999996,0.0008600000000000829,-0.49,-0.245,0.22999999999999998,-0.14879999999999993,-0.011099999999999999,0.08801999999999999,1742248655.4257889
-0.18500000000000005,0.19999999999999996,-0.41500000000000004,-0.09741999999999995,0.21472000000000002,-0.09265999999999996,-0.20499999999999996,-0.08499999999999996,0.41500000000000004,-0.08299999999999996,-0.006960000000000077,0.08299999999999996,1742248655.544629
-0.29000000000000004,0.04499999999999993,-0.615,0.005619999999999958,-0.06029999999999991,-0.009279999999999955,-0.16500000000000004,-0.10499999999999998,0.45999999999999996,0.03747999999999996,0.06298000000000004,-0.07153999999999994,1742248655.653762
-0.14,0.020000000000000018,-0.525,0.03527999999999998,-0.16784,0.1545399999999999,-0.25,0.030000000000000027,0.21999999999999997,0.2143600000000001,-0.06689999999999996,-0.12732,1742248655.767621
0.27,0.33000000000000007,-0.29000000000000004,-0.0686,0.04039999999999999,0.10265999999999997,-0.62,-0.41500000000000004,0.14500000000000002,0.08838000000000013,-0.05467999999999995,-0.0025599999999998957,1742248655.882559
-0.020000000000000018,0.1499999999999999,-0.30000000000000004,-0.03955999999999993,0.21031999999999984,0.00035999999999991594,-0.38,-0.08999999999999997,0.33000000000000007,-0.13770000000000004,-0.047860000000000014,0.0908199999999999,1742248656.003797
-0.37,0.0,-0.63,-0.11839999999999995,0.18663999999999992,-0.0029199999999999227,-0.18999999999999995,0.004999999999999893,0.5249999999999999,-0.05358000000000007,0.08166000000000007,-0.03320000000000001,1742248656.109619
-0.31000000000000005,0.050000000000000044,-0.59,0.24229999999999996,-0.10938000000000003,0.00024000000000001798,-0.265,0.0,0.28,0.1825000000000001,0.03198000000000012,-0.046499999999999986,1742248656.224183
-0.010000000000000009,0.23499999999999988,-0.275,0.13770000000000016,-0.1849400000000001,0.04735999999999985,-0.65,-0.265,0.03499999999999992,0.1299999999999999,-0.03527999999999998,-0.0858199999999999,1742248656.343085
-0.07000000000000006,0.18999999999999995,-0.395,-0.012580000000000036,0.06896000000000013,-0.01990000000000003,-0.475,-0.19999999999999996,0.14500000000000002,-0.08531999999999995,-0.0857,0.16003999999999996,1742248656.451723
-0.09999999999999998,0.20999999999999996,-0.41500000000000004,-0.019540000000000002,0.11499999999999999,-0.11853999999999998,-0.365,-0.125,0.365,-0.21496000000000004,-0.018059999999999965,0.1520999999999999,1742248656.566201
-0.385,0.10499999999999998,-0.62,0.011600000000000055,-0.03295999999999999,-0.04310000000000003,-0.255,-0.15000000000000002,0.405,0.10816000000000003,0.02868000000000004,-0.02844000000000002,1742248656.686848
-0.19999999999999996,0.15500000000000003,-0.45999999999999996,0.038819999999999855,-0.20594,0.042240000000000055,-0.31000000000000005,-0.12,0.14000000000000012,0.25024,0.02624000000000004,-0.04052,1742248656.793599
0.2549999999999999,0.43500000000000005,-0.19500000000000006,0.029900000000000038,-0.04565999999999992,0.012580000000000036,-0.53,-0.355,0.16999999999999993,0.022820000000000062,-0.05688000000000004,0.08105999999999991,1742248656.907577
-0.030000000000000027,0.27,-0.31499999999999995,-0.16455999999999993,0.13671999999999995,-0.02415999999999996,-0.33499999999999996,-0.32499999999999996,0.14500000000000002,-0.07689999999999997,-0.18128,0.15198,1742248657.024941
-0.29000000000000004,0.19500000000000006,-0.535,-0.08629999999999993,0.10328000000000004,-0.01660000000000006,-0.12,-0.18999999999999995,0.42999999999999994,0.015859999999999985,-0.007440000000000002,-0.018799999999999928,1742248657.142941
-0.255,0.2650000000000001,-0.575,0.1461199999999998,-0.14246000000000003,0.033560000000000034,-0.36,-0.14500000000000002,0.30000000000000004,0.07250000000000001,0.07264000000000004,-0.044320000000000026,1742248657.2496
-0.06499999999999995,0.28,-0.4,0.10803999999999991,-0.22729999999999995,-0.02088000000000001,-0.55,-0.30499999999999994,0.09000000000000008,0.01428000000000007,0.0036599999999999966,-0.13537999999999994,1742248657.363738
-0.050000000000000044,0.29000000000000004,-0.405,-0.06665999999999994,0.035760000000000014,-0.061880000000000046,-0.42999999999999994,-0.22999999999999998,0.16999999999999993,-0.21802,0.02088000000000001,0.13892000000000015,1742248657.484412
-0.020000000000000018,0.21500000000000008,-0.375,-0.20555999999999996,0.15295999999999998,-0.014639999999999986,-0.31499999999999995,-0.22499999999999998,0.45500000000000007,-0.29688000000000003,0.011239999999999917,0.15661999999999998,1742248657.591604
-0.355,-0.020000000000000018,-0.61,-0.19738,-0.01305999999999996,0.01550000000000007,-0.14,-0.06000000000000005,0.5150000000000001,0.11816000000000004,-0.00048000000000003595,-0.10010000000000008,1742248657.705699
-0.125,0.14000000000000012,-0.43999999999999995,0.09277999999999986,-0.17908000000000002,0.06591999999999998,-0.30499999999999994,-0.20999999999999996,0.32499999999999996,0.09179999999999988,-0.03882000000000008,-0.07323999999999997,1742248657.8243892
0.08499999999999996,0.26,-0.275,0.017819999999999947,-0.009759999999999991,0.03968000000000016,-0.515,-0.405,0.17500000000000004,0.021360000000000046,-0.04370000000000007,0.0283199999999999,1742248657.9336371
0.014999999999999902,0.31000000000000005,-0.43500000000000005,-0.013299999999999979,0.0662799999999999,-0.1311,-0.37,-0.265,0.27,-0.09998000000000007,-0.047860000000000014,0.17223999999999995,1742248658.04762
-0.16000000000000003,0.135,-0.555,0.022699999999999942,0.14757999999999982,-0.1261,-0.11499999999999999,-0.11499999999999999,0.575,0.12916000000000016,-0.07898000000000005,0.03442000000000012,1742248658.163302
-0.16500000000000004,0.16500000000000004,-0.58,0.05346000000000006,0.01550000000000007,-0.09204000000000001,-0.275,-0.265,0.45500000000000007,0.07898000000000005,0.04174000000000011,-0.06847999999999999,1742248658.28397
-0.04500000000000004,0.2749999999999999,-0.39,-0.06872,-0.08653999999999995,0.09851999999999994,-0.39,-0.20499999999999996,0.27,0.03161999999999998,0.04078000000000004,-0.054320000000000035,1742248658.389549
0.3400000000000001,0.395,-0.17000000000000004,-0.01097999999999999,0.02416000000000018,-0.0022000000000000908,-0.45999999999999996,-0.28,0.24,-0.032480000000000064,0.12817999999999996,0.09094000000000002,1742248658.504176
0.16500000000000004,0.28,-0.255,-0.12927999999999995,0.1459999999999999,-0.04932000000000003,-0.235,-0.245,0.42500000000000004,-0.26537999999999995,0.014639999999999986,0.1212200000000001,1742248658.623531
-0.265,0.11499999999999999,-0.65,-0.03465999999999991,-0.05565999999999993,-0.06408000000000003,-0.10999999999999999,-0.245,0.42500000000000004,0.002080000000000082,0.010380000000000056,-0.0795800000000001,1742248658.731562
-0.050000000000000044,0.19500000000000006,-0.56,-0.09789999999999999,-0.1272000000000001,0.06872000000000011,-0.26,-0.27,0.2849999999999999,0.010499999999999954,0.05003999999999986,-0.053100000000000036,1742248658.845521
0.45999999999999996,0.3400000000000001,-0.16500000000000004,-0.001960000000000073,0.08666000000000018,-0.019399999999999973,-0.485,-0.29000000000000004,0.345,-0.04479999999999995,0.029059999999999864,0.09864000000000006,1742248658.96385
0.09499999999999997,0.21500000000000008,-0.44999999999999996,-0.053340000000000054,0.059940000000000104,-0.16125999999999996,-0.21499999999999997,-0.21499999999999997,0.050000000000000044,-0.020379999999999954,-0.12768000000000002,0.13451999999999997,1742248659.073625
-0.09499999999999997,0.18500000000000005,-0.615,-0.03260000000000007,0.01537999999999995,-0.15013999999999994,0.020000000000000018,-0.135,0.56,0.03723999999999994,0.04590000000000005,0.014780000000000015,1742248659.1873322
-0.0050000000000000044,0.20999999999999996,-0.525,0.05726000000000009,-0.07311999999999996,0.03442000000000012,-0.09499999999999997,-0.17500000000000004,0.31499999999999995,0.08801999999999999,0.01868000000000003,-0.04565999999999992,1742248659.304526
0.1299999999999999,0.24,-0.33499999999999996,-0.05358000000000007,-0.19068000000000007,0.11718000000000006,-0.29000000000000004,-0.18500000000000005,0.125,0.0,-0.05018,-0.11658000000000002,1742248659.4238
0.2450000000000001,0.23499999999999988,-0.265,-0.07091999999999998,0.09704000000000002,0.03992000000000018,-0.27,-0.15000000000000002,0.5049999999999999,-0.04271999999999998,-0.13829999999999998,-0.07335999999999998,1742248659.528748
-0.025000000000000022,0.135,-0.405,-0.08350000000000002,0.27454,0.0295399999999999,-0.22499999999999998,-0.275,0.48,-0.041019999999999945,-0.11950000000000005,-0.07629999999999992,1742248659.644465
-0.30499999999999994,0.014999999999999902,-0.75,-0.05822000000000005,0.11607999999999996,0.09143999999999997,-0.20999999999999996,-0.07999999999999996,0.44999999999999996,0.10107999999999984,-0.05065999999999993,-0.10486000000000006,1742248659.764808
-0.06000000000000005,0.08000000000000007,-0.525,0.013419999999999987,-0.09522000000000008,0.11949999999999994,-0.35,-0.135,0.125,0.1358600000000001,0.0577399999999999,-0.05408000000000002,1742248659.870552
0.22999999999999998,0.395,-0.28,-0.019039999999999946,0.06372,0.014399999999999968,-0.6,-0.265,0.22999999999999998,-0.10241999999999996,0.05908000000000002,0.18579999999999997,1742248659.984551
-0.020000000000000018,0.18500000000000005,-0.36,0.01110000000000011,-0.00048000000000003595,-0.15466000000000002,-0.4099999999999999,-0.22499999999999998,0.27,-0.13549999999999995,-0.10644000000000009,0.17028,1742248660.0992908
-0.275,0.09499999999999997,-0.42500000000000004,-0.009759999999999991,0.07788000000000017,0.01415999999999995,-0.11499999999999999,-0.24,0.345,0.1827399999999999,-0.016720000000000068,-0.0916800000000001,1742248660.2126038
-0.2849999999999999,0.23499999999999988,-0.505,0.06761999999999979,0.04688000000000003,0.14525999999999994,-0.31000000000000005,-0.19500000000000006,0.31000000000000005,0.007200000000000095,-0.0027999999999999137,-0.17565999999999993,1742248660.326626
-0.12,0.395,-0.355,0.0954600000000001,-0.08299999999999996,0.18640000000000012,-0.65,-0.22999999999999998,0.07499999999999996,0.02198000000000011,-0.024780000000000024,-0.13585999999999998,1742248660.444486
0.0,0.3900000000000001,-0.38,-0.006340000000000012,0.13329999999999997,0.011719999999999953,-0.57,-0.22499999999999998,0.18500000000000005,-0.18212000000000006,-0.04601999999999995,0.13817999999999997,1742248660.5545962
-0.18999999999999995,0.31499999999999995,-0.31499999999999995,-0.026980000000000004,0.13781999999999983,-0.16149999999999998,-0.25,-0.07999999999999996,0.21999999999999997,-0.0007399999999999629,0.008419999999999872,0.11280000000000001,1742248660.6687338
-0.41500000000000004,0.135,-0.54,0.0041599999999999415,-0.051019999999999954,-0.015859999999999985,-0.265,-0.2849999999999999,0.26,-0.028200000000000003,0.05553999999999992,-0.10144000000000009,1742248660.784022
-0.235,0.3500000000000001,-0.4650000000000001,0.11095999999999995,-0.21020000000000005,0.03320000000000012,-0.44999999999999996,-0.20499999999999996,0.135,0.07264000000000004,-0.005979999999999985,-0.13366,1742248660.90501
0.19999999999999996,0.3799999999999999,-0.16500000000000004,-0.04834000000000005,0.053220000000000045,0.06433999999999984,-0.63,-0.33000000000000007,0.135,0.02844000000000002,0.0012199999999999989,0.02844000000000002,1742248661.010337
-0.135,0.29000000000000004,-0.275,-0.04747999999999997,0.09129999999999994,-0.04064000000000001,-0.38,-0.22499999999999998,-0.17999999999999994,-0.016000000000000014,-0.23072000000000004,0.10864000000000007,1742248661.124863
-0.36,0.24,-0.535,-0.04747999999999997,0.08861999999999992,-0.05053999999999992,-0.21999999999999997,-0.21999999999999997,0.33499999999999996,0.04357999999999995,0.01746000000000003,0.009160000000000057,1742248661.245743
-0.35,0.21500000000000008,-0.49,0.05371999999999999,0.009519999999999973,0.07996000000000003,-0.2849999999999999,-0.20999999999999996,0.32000000000000006,-0.10498000000000007,0.14722000000000013,-0.09448000000000001,1742248661.351558
-0.10999999999999999,0.3799999999999999,-0.37,0.09620000000000006,-0.12146000000000001,0.07250000000000001,-0.69,-0.32000000000000006,0.125,0.09240000000000004,-0.0017000000000000348,-0.12658000000000003,1742248661.46562
0.014999999999999902,0.32000000000000006,-0.20499999999999996,-0.018919999999999937,0.047719999999999985,0.005859999999999976,-0.54,-0.235,-0.015000000000000013,-0.11512,0.059700000000000086,0.14904000000000006,1742248661.588484
-0.06499999999999995,0.33000000000000007,-0.21499999999999997,-0.05822000000000005,0.1691800000000001,-0.09605999999999992,-0.35,-0.15000000000000002,0.15999999999999992,-0.19886000000000004,-0.025639999999999996,0.08996000000000004,1742248661.693632
-0.355,0.16999999999999993,-0.49,-0.010140000000000038,0.06445999999999996,-0.13049999999999995,-0.22499999999999998,-0.16000000000000003,0.30000000000000004,0.007200000000000095,0.016000000000000014,-0.03064,1742248661.807467
-0.35,0.29000000000000004,-0.555,-0.021720000000000073,-0.07946000000000009,0.06006,-0.42500000000000004,-0.06000000000000005,0.29499999999999993,-0.05249999999999999,0.14038000000000017,-0.17884,1742248661.924868
-0.14,0.27,-0.56,0.15844000000000014,-0.28381999999999996,0.09361999999999981,-0.615,-0.15000000000000002,0.07000000000000006,0.19178000000000006,0.015139999999999931,-0.11241999999999996,1742248662.03548
-0.040000000000000036,0.30499999999999994,-0.24,-0.06981999999999988,0.10668000000000011,0.047599999999999865,-0.57,-0.275,0.09000000000000008,-0.2096,0.14757999999999982,0.09570000000000012,1742248662.149448
-0.11499999999999999,0.30499999999999994,-0.22999999999999998,0.041140000000000176,0.15894000000000008,-0.07446000000000008,-0.5,-0.24,0.31000000000000005,-0.25122,-0.031120000000000037,0.08472000000000013,1742248662.264918
-0.48,0.16999999999999993,-0.615,-0.05553999999999992,0.058339999999999836,-0.036860000000000004,-0.255,-0.09999999999999998,0.3999999999999999,0.08177999999999996,-0.0024400000000001087,-0.08326,1742248662.385184
-0.25,0.30000000000000004,-0.55,0.013800000000000034,-0.14002000000000003,0.12170000000000014,-0.365,-0.030000000000000027,0.3500000000000001,0.10620000000000007,0.11268000000000011,-0.006840000000000068,1742248662.4914482
-0.13,0.33499999999999996,-0.275,0.0638399999999999,-0.26927999999999996,0.05298000000000003,-0.605,-0.17999999999999994,-0.08999999999999997,0.11206000000000005,-0.06408000000000003,-0.13951999999999998,1742248662.609181
-0.06499999999999995,0.28,-0.27,-0.09863999999999995,0.12390000000000012,0.02198000000000011,-0.55,-0.20499999999999996,0.2450000000000001,-0.08838000000000001,-0.06470000000000009,0.10559999999999992,1742248662.725751
-0.31499999999999995,0.3400000000000001,-0.37,-0.08055999999999996,0.19018000000000002,-0.06665999999999994,-0.2849999999999999,-0.14,0.2749999999999999,-0.06896000000000002,0.01195999999999997,0.06298000000000004,1742248662.833456
-0.45500000000000007,0.08499999999999996,-0.615,0.0027999999999999137,0.020019999999999927,-0.0041599999999999415,-0.255,-0.16000000000000003,0.3500000000000001,0.08251999999999993,-0.010379999999999945,-0.08751999999999993,1742248662.947552
-0.19500000000000006,0.19500000000000006,-0.45500000000000007,-0.007320000000000104,-0.27281999999999995,0.08435999999999999,-0.375,-0.010000000000000009,0.06499999999999995,0.28308,0.04455999999999993,-0.1261,1742248663.067575
0.010000000000000009,0.29499999999999993,-0.22499999999999998,-0.0013400000000000079,-0.06568000000000007,0.05493999999999999,-0.735,-0.405,-0.040000000000000036,-0.027100000000000013,0.04527999999999999,0.058720000000000105,1742248663.184685
-0.06000000000000005,0.25,-0.29499999999999993,0.006460000000000132,0.13513999999999982,-0.041139999999999954,-0.51,-0.09999999999999998,0.1200000000000001,-0.1975,-0.013799999999999923,0.10131999999999985,1742248663.289466
-0.32000000000000006,0.25,-0.525,-0.10694000000000004,0.15638000000000019,-0.0042799999999999505,-0.07499999999999996,-0.040000000000000036,0.47,-0.007940000000000058,0.016960000000000086,0.021120000000000028,1742248663.406062
-0.35,0.23499999999999988,-0.6,0.1604000000000001,-0.06689999999999996,-0.05164000000000002,-0.32499999999999996,-0.17500000000000004,0.41500000000000004,0.03516000000000008,0.16480000000000006,-0.039919999999999956,1742248663.525611
-0.135,0.29499999999999993,-0.5,0.12963999999999998,-0.18310000000000004,-0.010499999999999954,-0.63,-0.20499999999999996,-0.16000000000000003,0.16016000000000008,-0.026619999999999977,-0.1322000000000001,1742248663.631567
-0.07499999999999996,0.29000000000000004,-0.125,-0.04064000000000001,0.16759999999999997,0.08153999999999995,-0.555,-0.17999999999999994,0.135,-0.17468000000000006,0.02293999999999996,0.13451999999999997,1742248663.745321
-0.12,0.30000000000000004,-0.245,-0.059700000000000086,0.15563999999999978,-0.04248000000000007,-0.17999999999999994,-0.06000000000000005,0.1299999999999999,-0.03491999999999995,-0.020019999999999927,0.07433999999999985,1742248663.864901
-0.37,0.17500000000000004,-0.54,-0.03272000000000008,0.0023200000000000998,-0.04724000000000006,-0.21499999999999997,-0.18500000000000005,0.3500000000000001,0.0626199999999999,-0.01427999999999996,-0.09045999999999998,1742248663.9734411
-0.345,0.355,-0.6,0.1766399999999999,-0.31823999999999997,-0.08141999999999994,-0.2849999999999999,-0.0050000000000000044,-0.07999999999999996,0.33409999999999984,-0.07934000000000008,-0.08374000000000004,1742248664.089083
0.125,0.30499999999999994,-0.08999999999999997,-0.11474000000000006,-0.04479999999999995,0.10265999999999997,-0.67,-0.485,-0.14,-0.058599999999999985,0.04381999999999997,0.07898000000000005,1742248664.205207
-0.20999999999999996,0.26,-0.28,0.08177999999999996,0.054440000000000044,-0.16015999999999997,-0.32000000000000006,-0.265,-0.10499999999999998,-0.09448000000000001,-0.2096,0.06518000000000002,1742248664.325105
-0.32000000000000006,0.30499999999999994,-0.48,-0.014399999999999968,0.08948,-0.03870000000000007,-0.17000000000000004,-0.09499999999999997,0.385,0.009160000000000057,0.007319999999999993,-0.01867999999999992,1742248664.429358
-0.30499999999999994,0.345,-0.53,0.06054000000000004,-0.09192,-0.0006199999999999539,-0.24,-0.07999999999999996,0.23499999999999988,0.054079999999999906,0.15088000000000013,-0.07568000000000008,1742248664.546978
-0.015000000000000013,0.31000000000000005,-0.44999999999999996,0.08850000000000002,-0.21704,-0.01537999999999995,-0.525,-0.125,-0.010000000000000009,0.1656399999999998,0.01428000000000007,-0.04589999999999994,1742248664.664747
-0.07499999999999996,0.31000000000000005,-0.19999999999999996,-0.007320000000000104,-0.026000000000000023,0.027579999999999938,-0.58,-0.32000000000000006,0.04499999999999993,-0.15246000000000004,0.06761999999999979,0.1200000000000001,1742248664.7713358
-0.10999999999999999,0.2749999999999999,-0.28,-0.09129999999999994,0.15173999999999999,-0.04515999999999998,-0.21499999999999997,-0.15500000000000003,0.19999999999999996,-0.30286,0.08776000000000006,0.13573999999999997,1742248664.885493
-0.3400000000000001,0.345,-0.58,-0.09265999999999996,0.06469999999999998,-0.026000000000000023,-0.245,-0.18999999999999995,0.31000000000000005,0.16357999999999984,-0.07591999999999999,-0.07862000000000002,1742248665.005172
-0.26,0.29499999999999993,-0.505,0.03272000000000008,-0.17565999999999993,0.034660000000000135,-0.495,-0.17000000000000004,0.2250000000000001,0.10253999999999985,-0.019540000000000002,-0.09094000000000002,1742248665.113423
0.18500000000000005,0.29499999999999993,-0.07000000000000006,-0.07031999999999994,-0.09631999999999996,0.06372,-0.6,-0.27,-0.030000000000000027,0.035640000000000116,-0.012580000000000036,-0.016240000000000032,1742248665.227571
-0.020000000000000018,0.3400000000000001,-0.31000000000000005,-0.12854,0.1520999999999999,0.007440000000000113,-0.4,-0.21999999999999997,0.14000000000000012,-0.11987999999999999,0.008920000000000039,0.08094000000000001,1742248665.3453991
-0.255,0.24,-0.39,-0.21204,0.17896,0.06152000000000002,-0.22499999999999998,-0.17000000000000004,0.2749999999999999,-0.09105999999999992,-0.03724000000000005,-0.005240000000000022,1742248665.466487
-0.45500000000000007,-0.025000000000000022,-0.49,-0.060799999999999965,-0.04200000000000004,0.04821999999999993,-0.235,-0.15000000000000002,0.33000000000000007,0.028200000000000003,0.0014600000000000168,-0.16076000000000001,1742248665.569333
-0.35,0.014999999999999902,-0.44500000000000006,0.06738000000000022,-0.2771,0.16393999999999997,-0.30499999999999994,-0.050000000000000044,0.014999999999999902,0.24951999999999996,-0.12732,-0.16968000000000005,1742248665.685786
0.31000000000000005,0.4650000000000001,-0.235,-0.06396000000000002,0.11572000000000005,0.01415999999999995,-0.76,-0.39,0.17500000000000004,-0.0039000000000000146,0.03614000000000006,0.21058,1742248665.805425
-0.08499999999999996,0.22999999999999998,-0.37,0.07433999999999985,-0.0697000000000001,-0.19799999999999995,-0.35,-0.14,-0.21999999999999997,0.009039999999999937,-0.23718000000000006,0.17357999999999985,1742248665.911519
-0.495,0.15500000000000003,-0.595,-0.07091999999999998,0.0354000000000001,-0.13463999999999998,-0.19500000000000006,-0.04500000000000004,0.375,0.0009799999999999809,0.05357999999999996,-0.026000000000000023,1742248666.0258088
-0.27,0.24,-0.52,0.13196000000000008,-0.20323999999999998,0.035519999999999996,-0.39,-0.020000000000000018,0.2749999999999999,0.29381999999999997,-0.031240000000000046,-0.03417999999999999,1742248666.145082
0.040000000000000036,0.21999999999999997,-0.07000000000000006,0.04296000000000011,-0.12097999999999998,0.09338000000000002,-0.68,-0.355,-0.15500000000000003,0.07128000000000001,-0.07713999999999999,-0.08728000000000002,1742248666.2536142
-0.13,0.355,-0.29000000000000004,0.020499999999999963,0.14904000000000006,-0.008919999999999928,-0.505,-0.17999999999999994,0.07499999999999996,-0.12696000000000007,0.0012199999999999989,0.08582000000000001,1742248666.367254
-0.30499999999999994,0.2749999999999999,-0.52,-0.08972000000000002,0.19945999999999997,0.00048000000000003595,-0.21999999999999997,-0.18999999999999995,0.365,-0.04798000000000002,-0.0009799999999999809,0.03735999999999984,1742248666.485161
-0.31000000000000005,0.125,-0.485,0.034540000000000015,-0.045539999999999914,0.009160000000000057,-0.31000000000000005,-0.19500000000000006,0.375,0.14501999999999993,-0.005619999999999958,-0.13990000000000002,1742248666.595298
-0.11499999999999999,0.32000000000000006,-0.235,0.021360000000000046,-0.1814,0.01855999999999991,-0.36,-0.11499999999999999,0.10000000000000009,0.09179999999999988,0.03283999999999998,-0.12134,1742248666.7092109
0.1499999999999999,0.3400000000000001,-0.21999999999999997,-0.05506,0.05066000000000015,0.032480000000000064,-0.67,-0.27,0.06000000000000005,-0.06128,-0.012820000000000054,0.05285999999999991,1742248666.824695
-0.06000000000000005,0.355,-0.25,-0.013799999999999923,0.15198,-0.055179999999999896,-0.395,-0.17000000000000004,-0.07000000000000006,-0.09484000000000004,-0.23608000000000007,0.12329999999999997,1742248666.9456809
-0.38,0.2749999999999999,-0.58,-0.08240000000000003,0.11792000000000002,-0.012700000000000045,-0.18500000000000005,-0.07000000000000006,0.43500000000000005,-0.009159999999999946,-0.00012000000000000899,-0.03051999999999999,1742248667.0515049
-0.18500000000000005,0.2450000000000001,-0.585,0.11548000000000003,-0.12805999999999995,0.04614000000000007,-0.4650000000000001,-0.14500000000000002,0.17500000000000004,0.06323999999999996,0.07496000000000014,-0.11060000000000003,1742248667.16577
-0.17000000000000004,0.09499999999999997,-0.33000000000000007,-0.06128,-0.1311,0.03320000000000012,-0.635,-0.09499999999999997,-0.010000000000000009,0.20618000000000003,-0.14466,-0.10655999999999999,1742248667.285599
-0.125,0.29000000000000004,-0.345,-0.08311999999999997,0.05030000000000001,0.01537999999999995,-0.565,-0.21999999999999997,-0.025000000000000022,-0.07434000000000007,-0.04271999999999998,0.12353999999999998,1742248667.393491
-0.37,0.33000000000000007,-0.61,-0.08287999999999995,0.10973999999999995,0.07177999999999995,-0.30000000000000004,-0.15500000000000003,0.3799999999999999,-0.04688000000000003,0.011600000000000055,0.09606000000000003,1742248667.507253
-0.31499999999999995,0.18999999999999995,-0.63,-0.04174,0.00550000000000006,-0.014039999999999941,-0.33499999999999996,-0.17999999999999994,0.32499999999999996,0.0026800000000000157,0.033320000000000016,-0.012700000000000045,1742248667.6247292
-0.20499999999999996,0.19999999999999996,-0.515,-0.011960000000000082,-0.15394000000000008,0.045660000000000034,-0.42999999999999994,-0.125,0.2849999999999999,0.06407999999999991,0.09266000000000019,-0.05053999999999992,1742248667.745062
-0.025000000000000022,0.33000000000000007,-0.31499999999999995,-0.039919999999999956,-0.16015999999999997,0.0046399999999999775,-0.45500000000000007,-0.17000000000000004,0.010000000000000009,0.12670000000000003,-0.05688000000000004,-0.06774000000000002,1742248667.849447
0.020000000000000018,0.3799999999999999,-0.365,-0.10950000000000004,0.16003999999999996,-0.04310000000000003,-0.45500000000000007,-0.19500000000000006,0.10499999999999998,-0.21031999999999995,0.08081999999999989,0.012700000000000156,1742248667.965423
-0.18500000000000005,0.2250000000000001,-0.235,-0.09753999999999996,0.1949400000000001,-0.024419999999999997,-0.31499999999999995,-0.07999999999999996,0.2450000000000001,-0.1532,0.11241999999999996,0.051140000000000185,1742248668.0772731
-0.37,0.030000000000000027,-0.67,-0.2107,0.16527999999999987,0.06407999999999991,-0.28,-0.15000000000000002,0.365,-0.04846000000000006,0.01770000000000005,-0.08204,1742248668.19136
-0.255,0.09499999999999997,-0.48,0.08227999999999991,-0.23863999999999996,0.07469999999999999,-0.255,-0.07499999999999996,0.15999999999999992,0.15026000000000006,-0.10914000000000001,-0.09129999999999994,1742248668.305475
-0.08999999999999997,0.22999999999999998,-0.13,0.10131999999999985,-0.05041999999999991,0.03845999999999994,-0.73,-0.28,-0.05500000000000005,0.16296,-0.18420000000000003,-0.07946000000000009,1742248668.4245849
-0.040000000000000036,0.32499999999999996,-0.2849999999999999,-0.04870000000000008,0.19311999999999996,0.020999999999999908,-0.485,-0.06000000000000005,0.10000000000000009,-0.04577999999999993,-0.07886000000000004,0.16161999999999987,1742248668.5474272
-0.10999999999999999,0.2849999999999999,-0.365,-0.17712000000000006,0.24461999999999984,0.07020000000000004,-0.385,-0.13,0.21999999999999997,-0.22058,0.21043999999999996,0.14501999999999993,1742248668.647161
-0.565,-0.235,-0.565,-0.18725999999999998,-0.04810000000000003,0.20886000000000005,-0.18500000000000005,-0.14500000000000002,0.45500000000000007,-0.04382000000000008,-0.011360000000000037,0.01953999999999989,1742248668.7650628
-0.33000000000000007,0.10000000000000009,-0.555,0.52294,-0.4414,0.01208000000000009,-0.41500000000000004,-0.275,0.16999999999999993,0.18579999999999997,0.022460000000000147,-0.2586600000000001,1742248668.885341
0.09499999999999997,0.15500000000000003,-0.135,0.31274,-0.09144000000000008,-0.25184000000000006,-0.555,-0.31000000000000005,-0.015000000000000013,-0.19775999999999994,0.17968000000000006,0.01868000000000003,1742248668.989244
-0.06000000000000005,0.2650000000000001,-0.33000000000000007,0.10376000000000007,-0.01978000000000002,-0.20972000000000002,-0.525,-0.135,0.18999999999999995,-0.10827999999999993,-0.034420000000000006,0.18420000000000014,1742248669.1096451
-0.25,0.28,-0.4,0.07874000000000003,0.11976000000000009,-0.16088000000000002,-0.19500000000000006,-0.235,0.4099999999999999,0.06445999999999996,0.0006200000000000649,0.020259999999999945,1742248669.225951
-0.355,0.31000000000000005,-0.58,0.10364000000000018,-0.1483199999999999,0.008539999999999992,-0.25,-0.17999999999999994,0.33000000000000007,0.052119999999999944,0.1936,-0.06835999999999998,1742248669.331268
-0.09999999999999998,0.3500000000000001,-0.14500000000000002,0.06788000000000016,-0.32128,0.0329600000000001,-0.485,-0.25,-0.050000000000000044,0.03968000000000016,0.125,-0.10851999999999995,1742248669.445962
0.08000000000000007,0.3400000000000001,-0.19500000000000006,-0.031240000000000046,0.11450000000000005,-0.0232,-0.555,-0.29499999999999993,0.07000000000000006,-0.19384,-0.006099999999999994,0.11340000000000017,1742248669.5676851
-0.020000000000000018,0.29499999999999993,-0.31499999999999995,0.024900000000000144,0.16393999999999997,-0.09216000000000002,-0.44500000000000006,-0.24,0.43500000000000005,-0.18065999999999993,-0.08826,0.1203599999999998,1742248669.673262
-0.535,0.17500000000000004,-0.645,-0.09374000000000005,0.15136000000000016,-0.025880000000000014,-0.29499999999999993,-0.235,0.41999999999999993,0.0019599999999999618,0.04200000000000004,-0.10655999999999999,1742248669.7871091
-0.33499999999999996,0.32499999999999996,-0.5,0.08826,-0.2733199999999999,0.12548000000000004,-0.2849999999999999,-0.030000000000000027,0.20500000000000007,0.25292000000000003,-0.050899999999999945,-0.13903999999999994,1742248669.905113
0.17999999999999994,0.355,-0.12,-0.02088000000000001,-0.07874000000000003,0.08472000000000013,-0.715,-0.21999999999999997,-0.10999999999999999,0.07543999999999995,-0.11865999999999999,-0.07689999999999997,1742248670.0262542
-0.11499999999999999,0.24,-0.21499999999999997,-0.1493,0.23571999999999993,-0.00537999999999994,-0.585,-0.24,0.10499999999999998,-0.006840000000000068,-0.22033999999999998,0.16357999999999984,1742248670.1293
-0.4,0.05499999999999994,-0.595,-0.16931999999999992,0.22351999999999994,0.04920000000000013,-0.26,-0.15500000000000003,0.42999999999999994,0.025640000000000107,-0.02758000000000005,0.023800000000000043,1742248670.246183
-0.365,0.16999999999999993,-0.56,0.09606000000000003,-0.08448,-0.0009799999999999809,-0.2849999999999999,-0.09999999999999998,0.3999999999999999,-0.024899999999999922,0.15111999999999992,-0.10010000000000008,1742248670.3658812
-0.08999999999999997,0.345,-0.58,0.16968000000000005,-0.31762,-0.01305999999999996,-0.56,-0.07999999999999996,0.050000000000000044,0.15429999999999988,0.052000000000000046,-0.13160000000000005,1742248670.47107
0.010000000000000009,0.23499999999999988,-0.22499999999999998,-0.011099999999999999,0.07288000000000006,-0.0018400000000000638,-0.565,-0.20499999999999996,-0.0050000000000000044,-0.09058,-0.02307999999999999,0.13281999999999994,1742248670.588936
-0.125,0.27,-0.29499999999999993,-0.005619999999999958,0.10242000000000018,-0.03295999999999999,-0.42500000000000004,-0.22999999999999998,0.51,-0.13598,-0.020019999999999927,0.10119999999999996,1742248670.706617
-0.395,0.11499999999999999,-0.555,-0.12,0.12853999999999988,-0.008179999999999965,-0.24,-0.05500000000000005,0.3999999999999999,-0.033320000000000016,0.018440000000000012,-0.06603999999999999,1742248670.813283
-0.29499999999999993,0.14500000000000002,-0.58,0.1373199999999999,-0.21094000000000002,0.0307599999999999,-0.57,-0.08999999999999997,0.3700000000000001,0.15820000000000012,0.07068000000000008,-0.05346000000000006,1742248670.9270442
0.09000000000000008,0.22999999999999998,-0.19999999999999996,0.011239999999999917,-0.07629999999999992,0.025140000000000162,-0.775,-0.43500000000000005,-0.07499999999999996,-0.07665999999999995,0.07044000000000006,0.0035399999999998766,1742248671.047032
-0.14500000000000002,0.27,-0.37,0.04370000000000007,0.07116000000000011,-0.08826,-0.47,-0.28,0.014999999999999902,-0.12036000000000002,-0.06237999999999999,0.20178000000000007,1742248671.165361
-0.33000000000000007,0.135,-0.48,-0.011840000000000073,0.11170000000000013,-0.04174,-0.135,-0.06499999999999995,0.2749999999999999,-0.031379999999999963,-0.04858000000000007,0.03917999999999999,1742248671.269152
-0.33000000000000007,0.17500000000000004,-0.495,0.19446000000000008,-0.09227999999999992,-0.06458000000000008,-0.275,-0.20499999999999996,0.395,0.18786000000000014,-0.0008599999999999719,-0.056400000000000006,1742248671.3853922
-0.07999999999999996,0.29499999999999993,-0.52,0.09533999999999998,-0.20153999999999994,0.09838000000000013,-0.48,-0.235,0.10000000000000009,0.13817999999999997,0.03649999999999998,-0.13514000000000004,1742248671.507148
0.18999999999999995,0.41500000000000004,-0.08999999999999997,0.0895999999999999,-0.035519999999999996,-0.016840000000000077,-0.56,-0.31499999999999995,0.07000000000000006,-0.07629999999999992,0.006460000000000132,0.11792000000000002,1742248671.611064
-0.09999999999999998,0.31000000000000005,-0.30000000000000004,-0.09814,0.22058,-0.06372,-0.4,-0.18500000000000005,0.1100000000000001,-0.25573999999999997,0.03649999999999998,0.08704,1742248671.7260852
-0.31000000000000005,0.2549999999999999,-0.44999999999999996,-0.14868000000000003,0.19482,-0.041019999999999945,-0.17000000000000004,-0.265,0.43999999999999995,0.0672600000000001,-0.03320000000000001,-0.016720000000000068,1742248671.85018
-0.35,0.21999999999999997,-0.575,-0.03417999999999999,-0.04200000000000004,0.10218000000000016,-0.25,-0.22499999999999998,0.3799999999999999,-0.12866,0.17223999999999995,-0.13660000000000005,1742248671.95314
-0.14500000000000002,0.27,-0.45999999999999996,0.11803999999999992,-0.3722000000000001,0.0577399999999999,-0.45500000000000007,-0.17999999999999994,0.04499999999999993,-0.05125999999999997,0.10729999999999995,-0.14172000000000007,1742248672.068167
0.1299999999999999,0.33000000000000007,-0.18999999999999995,-0.03637999999999997,0.12524000000000002,-0.008179999999999965,-0.555,-0.22999999999999998,0.02499999999999991,-0.08251999999999993,-0.006340000000000012,0.11158000000000001,1742248672.184902
-0.21499999999999997,0.17500000000000004,-0.365,-0.15076,0.23438000000000003,-0.015499999999999958,-0.395,-0.24,0.16999999999999993,-0.0008599999999999719,-0.19628,0.15563999999999978,1742248672.30602
-0.495,0.04499999999999993,-0.605,-0.03405999999999998,0.05699999999999994,-0.08435999999999999,-0.29000000000000004,-0.17500000000000004,0.405,0.046499999999999986,0.005980000000000096,-0.08838000000000001,1742248672.408983
-0.365,0.2250000000000001,-0.615,0.17554000000000003,-0.26537999999999995,0.05261999999999989,-0.635,-0.125,0.31499999999999995,0.14844000000000013,0.02942,-0.12902000000000002,1742248672.526384
0.135,0.31499999999999995,-0.19500000000000006,0.14281999999999995,-0.18762,0.023560000000000025,-0.625,-0.30499999999999994,-0.050000000000000044,0.05152000000000001,0.018179999999999863,-0.08874000000000004,1742248672.645735
-0.025000000000000022,0.30000000000000004,-0.26,-0.041139999999999954,0.18053999999999992,-0.07079999999999997,-0.505,-0.29499999999999993,0.49,0.06298000000000004,0.01648000000000005,0.14416000000000007,1742248672.7509692
-0.20999999999999996,0.3500000000000001,-0.4,-0.053100000000000036,0.22938000000000014,-0.06677999999999995,-0.275,-0.10499999999999998,0.345,-0.15052,0.08923999999999999,0.09509999999999996,1742248672.866442
-0.39,0.135,-0.655,-0.006220000000000003,0.0,-0.04601999999999995,-0.27,-0.21499999999999997,0.32499999999999996,-0.01208000000000009,0.03064,-0.11681999999999992,1742248672.985417
-0.13,0.25,-0.07000000000000006,0.05566000000000004,-0.2376800000000001,0.024780000000000024,-0.32499999999999996,-0.21999999999999997,0.05499999999999994,0.13659999999999983,-0.15501999999999994,-0.12915999999999994,1742248673.0931468
0.1200000000000001,0.3400000000000001,-0.15000000000000002,-0.016120000000000023,-0.02185999999999999,0.07397999999999993,-0.645,-0.33000000000000007,-0.010000000000000009,0.07678000000000007,-0.019540000000000002,-0.04908000000000001,1742248673.207128
-0.040000000000000036,0.395,-0.3400000000000001,-0.036619999999999986,0.11316000000000015,-0.06787999999999994,-0.5,-0.25,0.11499999999999999,-0.07740000000000002,-0.028679999999999928,0.10631999999999997,1742248673.325293
-0.275,0.33000000000000007,-0.495,-0.02636000000000005,0.09899999999999998,0.046640000000000015,-0.28,-0.18999999999999995,0.30499999999999994,-0.09129999999999994,0.02966000000000002,0.058720000000000105,1742248673.445761
-0.32499999999999996,0.15500000000000003,-0.595,-0.0041599999999999415,0.012580000000000036,-0.031000000000000028,-0.255,-0.14500000000000002,0.345,-0.00024000000000001798,0.0611600000000001,-0.09998000000000007,1742248673.5491688
-0.15500000000000003,0.30000000000000004,-0.26,-0.20189999999999997,-0.10265999999999997,0.22022000000000008,-0.31000000000000005,-0.09999999999999998,0.1299999999999999,0.11853999999999987,-0.10974000000000006,-0.17931999999999992,1742248673.665857
0.19500000000000006,0.4099999999999999,-0.235,-0.12291999999999992,0.016960000000000086,0.12268000000000012,-0.69,-0.3400000000000001,0.14000000000000012,0.0577399999999999,0.0014600000000000168,-0.036860000000000004,1742248673.785418
-0.13,0.20999999999999996,-0.30000000000000004,-0.006840000000000068,0.11548000000000003,-0.10205999999999993,-0.52,-0.17000000000000004,0.09499999999999997,-0.14246000000000003,-0.0686,0.11572000000000005,1742248673.8911722
-0.345,0.18500000000000005,-0.53,-0.14734000000000003,0.18116,-0.049799999999999955,-0.20999999999999996,-0.09999999999999998,0.3900000000000001,0.04956000000000005,-0.03355999999999992,0.05493999999999999,1742248674.005651
-0.42999999999999994,0.06000000000000005,-0.58,0.07654000000000005,-0.09729999999999994,0.020620000000000083,-0.355,-0.135,0.4099999999999999,0.10095999999999994,0.13207999999999998,-0.07520000000000004,1742248674.124759
-0.18500000000000005,0.19500000000000006,-0.49,0.13892000000000015,-0.41881999999999997,0.009879999999999889,-0.555,-0.20499999999999996,-0.050000000000000044,0.08557999999999999,0.07264000000000004,-0.10729999999999995,1742248674.2330592
0.18999999999999995,0.385,-0.17000000000000004,-0.060919999999999974,0.08007999999999993,-0.016000000000000014,-0.43999999999999995,-0.24,0.004999999999999893,-0.1997000000000001,-0.035760000000000014,0.14501999999999993,1742248674.347039
-0.11499999999999999,0.30499999999999994,-0.30499999999999994,-0.0075599999999999,0.05761999999999978,-0.06286000000000003,-0.33499999999999996,-0.22499999999999998,0.3999999999999999,0.016240000000000032,-0.08618000000000003,0.1297600000000001,1742248674.465676
-0.29000000000000004,0.17999999999999994,-0.5,-0.04747999999999997,0.09094000000000002,-0.018179999999999974,-0.20999999999999996,-0.255,0.42500000000000004,-0.022460000000000035,0.04468000000000005,-0.05676000000000003,1742248674.575095
-0.30000000000000004,0.345,-0.525,0.18127999999999989,-0.19152000000000002,0.02222000000000013,-0.42999999999999994,-0.22999999999999998,0.18999999999999995,0.14832,-0.01085999999999998,-0.06408000000000003,1742248674.6891148
0.05499999999999994,0.3500000000000001,-0.21499999999999997,0.14124000000000003,-0.17810000000000004,0.046499999999999986,-0.52,-0.245,-0.025000000000000022,0.051020000000000065,-0.08204,-0.11681999999999992,1742248674.806109
0.09000000000000008,0.385,-0.17999999999999994,-0.013539999999999996,0.17833999999999994,-0.04747999999999997,-0.475,-0.22999999999999998,-0.08999999999999997,-0.10108000000000006,-0.0015800000000000258,0.13904000000000005,1742248674.9256508
-0.08999999999999997,0.3500000000000001,-0.25,0.03980000000000006,0.21240000000000014,-0.13049999999999995,-0.4,-0.18999999999999995,0.30000000000000004,-0.22424,-0.03417999999999999,0.14038000000000017,1742248675.0310478
-0.57,0.2650000000000001,-0.735,0.08227999999999991,-0.06541999999999992,-0.13624000000000003,-0.265,-0.245,0.345,0.09631999999999996,-0.00537999999999994,-0.03149999999999997,1742248675.1454358
-0.16500000000000004,0.2549999999999999,-0.17500000000000004,0.0317400000000001,-0.31286,0.08557999999999999,-0.505,-0.30000000000000004,0.1200000000000001,0.2915000000000001,0.03272000000000008,-0.08704,1742248675.266248
0.29000000000000004,0.41500000000000004,0.040000000000000036,0.00865999999999989,-0.12963999999999998,0.07177999999999995,-0.595,-0.41500000000000004,-0.040000000000000036,-0.09741999999999995,0.045420000000000016,0.027099999999999902,1742248675.3730528
0.05499999999999994,0.3900000000000001,-0.19999999999999996,-0.09144000000000008,0.3777999999999999,-0.021480000000000055,-0.4099999999999999,-0.20499999999999996,0.32000000000000006,-0.1975,0.07190000000000007,0.0013400000000001189,1742248675.486984
-0.345,0.16999999999999993,-0.44500000000000006,-0.2316800000000001,0.2583,0.10533999999999999,-0.19999999999999996,-0.15500000000000003,0.41500000000000004,-0.0023200000000000998,-0.027100000000000013,0.013679999999999914,1742248675.610035
-0.10499999999999998,0.18999999999999995,-0.22499999999999998,0.04468000000000005,-0.047599999999999976,0.054319999999999924,-0.595,-0.2849999999999999,0.1200000000000001,-0.03283999999999998,0.01770000000000005,-0.028799999999999937,1742250076.1218271
-0.07999999999999996,0.30499999999999994,-0.36,-0.06616,0.06469999999999998,0.013800000000000034,-0.4099999999999999,-0.17500000000000004,0.08000000000000007,-0.055419999999999914,-0.16688000000000003,0.08776000000000006,1742250076.232309
-0.07000000000000006,0.22999999999999998,-0.27,-0.21789999999999998,0.14440000000000008,-0.05467999999999995,-0.17000000000000004,-0.0050000000000000044,0.4650000000000001,0.021360000000000046,0.02391999999999994,-0.0017000000000000348,1742250076.346202
-0.41500000000000004,-0.03500000000000003,-0.625,0.00024000000000001798,0.013299999999999867,-0.006720000000000059,-0.47,-0.08499999999999996,0.33499999999999996,0.19103999999999988,0.09179999999999988,-0.06518000000000002,1742250076.462082
-0.17500000000000004,0.22999999999999998,-0.36,0.20496000000000003,-0.15674,0.07800000000000007,-0.605,-0.395,0.040000000000000036,-0.04858000000000007,0.023560000000000025,0.016240000000000032,1742250076.574202
-0.0050000000000000044,0.21500000000000008,-0.22499999999999998,-0.056640000000000024,0.051020000000000065,0.03186,-0.42999999999999994,-0.30499999999999994,0.18999999999999995,-0.025639999999999996,-0.25329999999999997,0.1297600000000001,1742250076.688282
-0.30499999999999994,0.14500000000000002,-0.48,-0.19422000000000006,0.20457999999999998,-0.056520000000000015,-0.22499999999999998,-0.015000000000000013,0.42500000000000004,0.10400000000000009,-0.0032999999999999696,-0.06652000000000002,1742250076.8023229
-0.38,0.020000000000000018,-0.5,0.14636000000000005,-0.02525999999999995,-0.0039000000000000146,-0.345,-0.05500000000000005,0.1100000000000001,0.20909999999999984,0.027839999999999865,-0.11524000000000001,1742250076.9161751
-0.10499999999999998,0.15999999999999992,-0.41999999999999993,0.1654,-0.23985999999999996,0.07177999999999995,-0.65,-0.28,0.15500000000000003,-0.06568000000000007,0.11146000000000011,0.10522000000000009,1742250077.030072
-0.040000000000000036,0.27,-0.31499999999999995,-0.04405999999999999,-0.006099999999999994,-0.04747999999999997,-0.32499999999999996,-0.13,0.47,-0.19910000000000005,-0.00036000000000002697,0.10827999999999993,1742250077.144335
-0.345,0.050000000000000044,-0.6,-0.12122,0.17700000000000005,-0.04625999999999997,-0.29499999999999993,-0.14500000000000002,0.3799999999999999,0.11583999999999994,-0.02758000000000005,-0.10192000000000001,1742250077.262343
-0.31499999999999995,0.20999999999999996,-0.605,0.3226399999999998,-0.03210000000000002,-0.017220000000000013,-0.52,-0.16500000000000004,0.11499999999999999,0.16405999999999987,0.07153999999999994,-0.09155999999999997,1742250077.3721752
0.10499999999999998,0.30000000000000004,-0.17000000000000004,0.06529999999999991,-0.10620000000000007,0.03807999999999989,-0.49,-0.20999999999999996,0.06000000000000005,-0.19898000000000005,-0.007940000000000058,0.09851999999999994,1742250077.486161
-0.050000000000000044,0.24,-0.26,-0.14403999999999995,0.09826000000000001,-0.03355999999999992,-0.17000000000000004,-0.030000000000000027,0.355,-0.15637999999999996,0.04920000000000013,0.07397999999999993,1742250077.603198
-0.4099999999999999,0.05499999999999994,-0.62,-0.06774000000000002,0.09594000000000014,-0.07250000000000001,-0.41500000000000004,-0.08499999999999996,0.43999999999999995,0.11268000000000011,0.04968000000000017,-0.04834000000000005,1742250077.714106
-0.275,0.03499999999999992,-0.6,0.06567999999999996,-0.16674,0.1471,-0.61,-0.235,0.004999999999999893,0.04064000000000001,-0.018919999999999937,-0.07299999999999995,1742250077.828159
0.10000000000000009,0.4099999999999999,-0.20499999999999996,-0.10863999999999996,-0.031000000000000028,0.06433999999999984,-0.42500000000000004,-0.13,0.1499999999999999,-0.17858000000000007,-0.04370000000000007,0.10461999999999994,1742250077.942796
-0.135,0.17500000000000004,-0.32499999999999996,-0.20068000000000008,0.10816000000000003,-0.06884000000000001,-0.16000000000000003,0.0,0.5049999999999999,-0.06872,0.009039999999999937,0.058339999999999836,1742250078.056004
-0.49,-0.09999999999999998,-0.695,-0.15870000000000006,0.06678000000000006,-0.021600000000000064,-0.395,-0.050000000000000044,0.32000000000000006,0.10766000000000009,0.05738000000000021,-0.06298000000000004,1742250078.170089
-0.30499999999999994,0.040000000000000036,-0.38,0.019039999999999946,-0.11987999999999999,0.15270000000000006,-0.655,-0.25,-0.03500000000000003,0.14196000000000009,-0.10155999999999998,-0.13549999999999995,1742250078.284255
0.07499999999999996,0.45500000000000007,-0.22999999999999998,0.023679999999999923,-0.057740000000000014,0.05615999999999999,-0.38,-0.125,0.07499999999999996,-0.12402000000000002,-0.027959999999999985,0.14172000000000007,1742250078.403571
-0.16500000000000004,0.2450000000000001,-0.30000000000000004,-0.13122,0.15246000000000004,-0.15686,-0.135,0.04499999999999993,0.5350000000000001,0.03807999999999989,0.08203999999999989,-0.06408000000000003,1742250078.5119722
-0.405,-0.08499999999999996,-0.61,0.11414000000000013,-0.06005999999999989,-0.03295999999999999,-0.45500000000000007,-0.18500000000000005,0.3999999999999999,0.18518000000000012,0.04468000000000005,-0.04736000000000007,1742250078.626088
-0.17999999999999994,0.20500000000000007,-0.44500000000000006,0.26672000000000007,-0.19591999999999998,0.010000000000000009,-0.54,-0.41500000000000004,0.030000000000000027,0.05518000000000001,-0.01208000000000009,-0.01746000000000003,1742250078.743383
0.04499999999999993,0.22999999999999998,-0.14500000000000002,-0.022220000000000018,0.07885999999999993,-0.015020000000000033,-0.375,-0.255,0.05499999999999994,-0.047719999999999985,-0.20740000000000003,0.09766000000000008,1742250078.8542342
-0.18500000000000005,0.19999999999999996,-0.38,-0.10584000000000005,0.17125999999999997,-0.057499999999999996,-0.15500000000000003,-0.040000000000000036,0.51,0.07740000000000014,-0.006340000000000012,-0.041019999999999945,1742250078.968181
-0.31499999999999995,0.040000000000000036,-0.53,0.12280000000000002,-0.00048000000000003595,0.01097999999999999,-0.365,-0.09999999999999998,0.19999999999999996,0.27783999999999986,0.16271999999999998,-0.09058,1742250079.083789
-0.17000000000000004,0.26,-0.54,0.17345999999999995,-0.27564,-0.01415999999999995,-0.61,-0.35,0.11499999999999999,-0.24694000000000005,0.043460000000000054,0.0709200000000001,1742250079.196148
-0.0050000000000000044,0.345,-0.265,-0.16198,0.10509999999999997,-0.010000000000000009,-0.385,-0.16000000000000003,0.54,-0.25354,-0.11646000000000001,0.10840000000000005,1742250079.3100622
-0.375,-0.03500000000000003,-0.55,-0.28968000000000005,0.26490000000000014,0.04638000000000009,-0.245,-0.08499999999999996,0.44500000000000006,0.18652000000000002,-0.03515999999999997,-0.11803999999999992,1742250079.4241788
-0.345,0.21999999999999997,-0.555,0.2267999999999999,-0.007940000000000058,0.06946000000000008,-0.59,-0.11499999999999999,0.1499999999999999,0.18506,0.09094000000000002,-0.1593,1742250079.544523
0.02499999999999991,0.16999999999999993,-0.08999999999999997,0.16602000000000006,-0.12463999999999997,0.04394000000000009,-0.53,-0.21999999999999997,0.040000000000000036,-0.17565999999999993,0.014040000000000052,0.16198,1742250079.652076
-0.08499999999999996,0.21999999999999997,-0.265,-0.006960000000000077,0.044440000000000035,-0.09510000000000007,-0.08499999999999996,0.0,0.41500000000000004,-0.08105999999999991,0.027579999999999938,0.09338000000000002,1742250079.766094
-0.515,-0.030000000000000027,-0.7,-0.08410000000000006,0.0954600000000001,-0.04027999999999998,-0.39,-0.07000000000000006,0.345,0.16809999999999992,-0.01305999999999996,-0.09436,1742250079.885208
-0.32000000000000006,0.10000000000000009,-0.515,0.03516000000000008,-0.14160000000000006,0.09498000000000006,-0.665,-0.24,-0.06499999999999995,0.03980000000000006,-0.0048799999999999955,-0.06811999999999996,1742250079.994195
0.04499999999999993,0.45500000000000007,-0.17500000000000004,-0.07481999999999989,-0.022580000000000044,0.037599999999999856,-0.4,-0.050000000000000044,0.19500000000000006,-0.12,-0.050899999999999945,0.10914000000000001,1742250080.108224
-0.20999999999999996,0.21999999999999997,-0.29000000000000004,-0.13097999999999999,0.15222000000000002,-0.07177999999999995,-0.135,0.040000000000000036,0.49,-0.0968,0.08275999999999994,0.006839999999999957,1742250080.2282429
-0.43999999999999995,-0.06000000000000005,-0.6,-0.08263999999999994,0.028799999999999937,0.03747999999999996,-0.32499999999999996,-0.07499999999999996,0.3999999999999999,0.18188000000000004,-0.06213999999999997,-0.043340000000000045,1742250080.336066
-0.28,0.18500000000000005,-0.55,0.30042000000000013,-0.10899999999999999,-0.0034199999999999786,-0.655,-0.515,0.10000000000000009,0.024780000000000024,-0.03955999999999993,-0.0034199999999999786,1742250080.4502778
-0.125,0.17999999999999994,-0.27,-0.01208000000000009,-0.04358000000000006,0.015859999999999985,-0.32000000000000006,-0.17999999999999994,0.10000000000000009,-0.09374000000000005,-0.13122,0.12719999999999998,1742250080.5654132
-0.21499999999999997,0.14000000000000012,-0.38,-0.21350000000000002,0.15417999999999998,-0.049679999999999946,-0.24,-0.10499999999999998,0.43500000000000005,0.17979999999999996,-0.08094000000000001,-0.10277999999999998,1742250080.678112
-0.275,0.14000000000000012,-0.44999999999999996,0.19324000000000008,-0.011960000000000082,-0.028320000000000012,-0.29499999999999993,-0.08499999999999996,0.20500000000000007,0.15088000000000013,0.17003999999999997,-0.022220000000000018,1742250080.7919931
-0.18500000000000005,0.29499999999999993,-0.535,0.2462200000000001,-0.23584000000000005,-0.09423999999999999,-0.59,-0.375,0.1200000000000001,-0.11658000000000002,0.10206000000000004,0.15772000000000008,1742250080.909801
-0.050000000000000044,0.26,-0.28,-0.006840000000000068,-0.031000000000000028,-0.09192,-0.3400000000000001,-0.28,0.3700000000000001,-0.16174,-0.14989999999999992,0.1395200000000001,1742250081.024814
-0.30000000000000004,0.2549999999999999,-0.49,-0.11108000000000007,0.2216800000000001,0.010499999999999954,-0.27,-0.28,0.31499999999999995,0.05896000000000012,-0.018799999999999928,-0.10950000000000004,1742250081.1340811
-0.19500000000000006,0.30499999999999994,-0.43999999999999995,0.0638399999999999,-0.018320000000000003,0.07508000000000004,-0.48,-0.21999999999999997,0.17500000000000004,0.11976000000000009,0.06933999999999996,-0.09704000000000002,1742250081.248003
-0.07000000000000006,0.365,-0.2849999999999999,0.08397999999999994,-0.15025999999999995,0.009879999999999889,-0.48,-0.19500000000000006,0.020000000000000018,-0.24268000000000012,0.02635999999999994,0.06994000000000011,1742250081.364886
-0.05500000000000005,0.355,-0.245,-0.14942,0.06603999999999988,-0.06922000000000006,-0.21499999999999997,-0.125,0.44999999999999996,-0.0908199999999999,-0.0032999999999999696,0.018440000000000012,1742250081.476078
-0.33000000000000007,0.1200000000000001,-0.575,-0.12658000000000003,0.15161999999999987,-0.021120000000000028,-0.3400000000000001,-0.09499999999999997,0.355,0.07055999999999996,-0.0048799999999999955,-0.11438000000000004,1742250081.590058
-0.255,0.16999999999999993,-0.485,0.07238000000000011,-0.062019999999999964,0.11583999999999994,-0.55,-0.17000000000000004,0.06000000000000005,0.08068000000000008,0.02611999999999992,-0.056520000000000015,1742250081.708521
0.08000000000000007,0.44500000000000006,-0.14500000000000002,0.04455999999999993,-0.0736,0.038819999999999855,-0.45500000000000007,-0.13,0.1299999999999999,-0.07410000000000005,-0.06164000000000003,0.05566000000000004,1742250081.82621
-0.11499999999999999,0.27,-0.275,-0.13978000000000002,0.06957999999999998,-0.06910000000000005,-0.22999999999999998,-0.125,0.41999999999999993,-0.10438000000000003,0.06690000000000018,0.030160000000000187,1742250081.931998
-0.365,0.07000000000000006,-0.625,-0.16955999999999993,0.008299999999999974,0.06372,-0.31499999999999995,-0.15500000000000003,0.30000000000000004,0.018799999999999928,0.02416000000000018,-0.06994,1742250082.045984
-0.265,0.16500000000000004,-0.615,-0.06176000000000004,-0.0697000000000001,0.08409999999999984,-0.44999999999999996,-0.040000000000000036,0.15500000000000003,0.10242000000000018,0.006599999999999939,-0.0675,1742250082.1668658
-0.16500000000000004,0.21999999999999997,-0.33499999999999996,-0.04589999999999994,-0.10363999999999995,0.06579999999999986,-0.42999999999999994,-0.08499999999999996,0.06000000000000005,-0.08263999999999994,-0.043340000000000045,0.062019999999999964,1742250082.274061
-0.16000000000000003,0.19500000000000006,-0.32499999999999996,-0.10424,0.03516000000000008,-0.02100000000000002,-0.275,-0.12,0.42999999999999994,-0.022460000000000035,-0.01990000000000003,-0.06725999999999999,1742250082.388073
-0.33000000000000007,-0.050000000000000044,-0.67,-0.054440000000000044,0.04614000000000007,0.047719999999999985,-0.385,-0.09499999999999997,0.26,0.0009799999999999809,0.06372,-0.06359999999999999,1742250082.506228
-0.20499999999999996,0.17500000000000004,-0.495,0.07933999999999997,-0.05384,0.030279999999999863,-0.64,-0.15500000000000003,-0.010000000000000009,-0.033320000000000016,-0.008660000000000001,0.018920000000000048,1742250082.616097
-0.050000000000000044,0.385,-0.235,-0.03198000000000001,-0.039059999999999984,-0.02624000000000004,-0.53,-0.16500000000000004,0.125,-0.13672000000000006,-0.056520000000000015,0.10792000000000002,1742250082.7302248
-0.07499999999999996,0.15999999999999992,-0.28,-0.10277999999999998,0.11633999999999989,-0.06213999999999997,-0.27,-0.09499999999999997,0.3500000000000001,0.05738000000000021,-0.01660000000000006,-0.020499999999999963,1742250082.846456
-0.21999999999999997,0.14000000000000012,-0.405,0.04455999999999993,0.05615999999999999,-0.0035399999999999876,-0.265,-0.12,0.20999999999999996,0.17028,0.12268000000000012,0.048699999999999966,1742250082.966012
-0.16500000000000004,0.1200000000000001,-0.54,0.08752000000000004,-0.14588,0.0662799999999999,-0.62,-0.21999999999999997,0.004999999999999893,-0.23729999999999996,0.05821999999999994,0.1322000000000001,1742250083.071997
-0.125,0.21999999999999997,-0.28,-0.08189999999999997,0.014899999999999913,-0.07677999999999996,-0.3400000000000001,-0.16500000000000004,0.52,-0.32177999999999995,0.058599999999999985,0.17028,1742250083.188614
-0.375,-0.08499999999999996,-0.4650000000000001,-0.46838,0.1679600000000001,0.06702000000000008,-0.21999999999999997,-0.10499999999999998,0.41500000000000004,-0.0012199999999999989,0.023560000000000025,-0.08374000000000004,1742250083.306346
-0.30499999999999994,-0.08999999999999997,-0.54,0.16979999999999995,-0.0549400000000001,0.09742000000000006,-0.675,-0.26,0.15500000000000003,0.018440000000000012,0.03601999999999994,-0.15881999999999996,1742250083.4139671
-0.050000000000000044,0.21500000000000008,-0.245,0.1545399999999999,-0.057740000000000014,0.027959999999999985,-0.52,-0.17999999999999994,0.17500000000000004,-0.1261,-0.00048000000000003595,0.12220000000000009,1742250083.5280871
-0.17999999999999994,0.2250000000000001,-0.29499999999999993,-0.07189999999999996,0.011239999999999917,-0.09094000000000002,-0.17000000000000004,-0.040000000000000036,0.3900000000000001,-0.18811999999999995,0.11499999999999999,0.06788000000000016,1742250083.64694
-0.33000000000000007,-0.135,-0.62,-0.09350000000000003,0.03088000000000002,-0.048820000000000086,-0.21999999999999997,-0.12,0.3700000000000001,0.10705999999999993,-0.031240000000000046,-0.12475999999999998,1742250083.7559628
-0.37,-0.015000000000000013,-0.615,0.17149999999999999,-0.02307999999999999,0.07909999999999995,-0.615,-0.14500000000000002,0.14000000000000012,0.03833999999999982,0.00011999999999989797,-0.11815999999999993,1742250083.869941
0.004999999999999893,0.395,-0.16500000000000004,-0.020019999999999927,-0.016960000000000086,0.04248000000000007,-0.43500000000000005,-0.08999999999999997,0.09000000000000008,-0.09144000000000008,-0.017220000000000013,0.1200000000000001,1742250083.987173
-0.17000000000000004,0.20500000000000007,-0.32499999999999996,-0.020379999999999954,0.036739999999999995,-0.12170000000000003,-0.17000000000000004,-0.05500000000000005,0.32499999999999996,-0.10033999999999998,0.03492000000000006,0.0283199999999999,1742250084.107108
-0.4099999999999999,-0.050000000000000044,-0.61,-0.16186,0.08740000000000014,-0.023440000000000016,-0.345,-0.09499999999999997,0.385,0.03649999999999998,-0.008419999999999983,-0.10741999999999996,1742250084.212068
-0.35,0.09499999999999997,-0.62,0.27698,-0.08251999999999993,-0.017220000000000013,-0.655,-0.17999999999999994,0.1100000000000001,0.08496000000000015,0.045660000000000034,-0.08020000000000005,1742250084.32761
-0.0050000000000000044,0.24,-0.17500000000000004,0.07678000000000007,-0.08204,0.04188000000000014,-0.44999999999999996,-0.08499999999999996,0.19500000000000006,-0.10070000000000001,0.008920000000000039,0.08142000000000005,1742250084.447492
-0.16000000000000003,0.20999999999999996,-0.3400000000000001,-0.11768000000000012,0.051140000000000185,-0.04724000000000006,-0.10499999999999998,-0.020000000000000018,0.49,-0.09045999999999998,0.06529999999999991,0.033560000000000034,1742250084.553922
-0.395,-0.025000000000000022,-0.62,-0.05479999999999996,0.04614000000000007,0.014899999999999913,-0.39,-0.14500000000000002,0.3999999999999999,0.16442,0.04956000000000005,-0.017940000000000067,1742250084.6684
-0.2849999999999999,0.17999999999999994,-0.47,0.10230000000000006,-0.04955999999999994,0.07788000000000017,-0.615,-0.20999999999999996,-0.06499999999999995,0.10888000000000009,-0.01660000000000006,-0.1016800000000001,1742250084.7868092
-0.040000000000000036,0.355,-0.22999999999999998,-0.00537999999999994,-0.02076,0.0032999999999998586,-0.395,-0.13,0.2450000000000001,-0.15855999999999992,0.027099999999999902,0.08240000000000003,1742250084.8957691
-0.235,0.24,-0.36,-0.021120000000000028,0.08874000000000004,-0.07299999999999995,-0.11499999999999999,-0.07000000000000006,0.44500000000000006,-0.15661999999999998,0.10179999999999989,-0.0006199999999999539,1742250085.009923
-0.4,-0.015000000000000013,-0.64,-0.03760000000000008,-0.06934000000000007,0.07225999999999999,-0.35,-0.15500000000000003,0.33499999999999996,0.13281999999999994,0.017819999999999947,-0.11634,1742250085.127142
-0.20499999999999996,0.31499999999999995,-0.4099999999999999,-0.013419999999999987,-0.1274400000000001,0.12304000000000004,-0.695,-0.17500000000000004,-0.025000000000000022,0.10450000000000004,-0.13122,-0.033440000000000025,1742250085.24663
-0.05500000000000005,0.2849999999999999,-0.275,-0.016120000000000023,0.0329600000000001,-0.008059999999999956,-0.43999999999999995,-0.13,0.08499999999999996,-0.14612000000000003,-0.10021999999999998,0.10021999999999998,1742250085.351927
-0.14,0.1200000000000001,-0.355,-0.009399999999999964,0.08397999999999994,-0.05944000000000005,-0.21999999999999997,-0.11499999999999999,0.3999999999999999,0.09448000000000012,-0.05676000000000003,-0.03051999999999999,1742250085.4683928
-0.265,0.11499999999999999,-0.515,0.08570000000000011,0.019279999999999964,-0.0009799999999999809,-0.36,-0.14500000000000002,0.2650000000000001,0.07142000000000004,0.1324400000000001,-0.027959999999999985,1742250085.587156
-0.20499999999999996,0.17500000000000004,-0.39,0.13038000000000016,-0.09350000000000003,-0.0029199999999999227,-0.685,-0.30000000000000004,0.010000000000000009,0.044319999999999915,-0.03760000000000008,-0.005120000000000013,1742250085.693836
-0.06000000000000005,0.26,-0.26,0.010860000000000092,-0.008539999999999992,-0.03515999999999997,-0.375,-0.14,-0.0050000000000000044,-0.13585999999999998,-0.10010000000000008,0.09570000000000012,1742250085.8090932
-0.07000000000000006,0.18999999999999995,-0.265,-0.05164000000000002,0.15161999999999987,-0.12158000000000002,-0.11499999999999999,-0.05500000000000005,0.49,-0.04712000000000005,0.023800000000000043,0.006839999999999957,1742250085.926996
-0.35,0.040000000000000036,-0.59,-0.01648000000000005,0.017220000000000013,-0.035640000000000005,-0.29499999999999993,-0.10999999999999999,0.345,0.21118000000000015,0.03968000000000016,0.0697000000000001,1742250086.035666
-0.255,0.18999999999999995,-0.35,0.007200000000000095,-0.15148000000000006,0.047599999999999865,-0.81,-0.30499999999999994,-0.030000000000000027,0.0626199999999999,-0.09644000000000008,-0.21165999999999996,1742250086.150079
-0.0050000000000000044,0.3700000000000001,-0.30000000000000004,-0.0022000000000000908,-0.03173999999999999,-0.08068000000000008,-0.395,-0.20499999999999996,0.07000000000000006,-0.28001999999999994,0.05908000000000002,0.17491999999999996,1742250086.268202
-0.15500000000000003,0.1499999999999999,-0.345,-0.10997999999999997,0.14344,-0.0625,-0.07499999999999996,-0.05500000000000005,0.4650000000000001,0.04200000000000004,0.04932000000000003,-0.10914000000000001,1742250086.3878348
-0.33499999999999996,0.29499999999999993,-0.515,0.02855999999999992,-0.04125999999999996,0.07409999999999983,-0.41500000000000004,-0.22499999999999998,0.31000000000000005,0.08666000000000018,-0.04944000000000004,-0.08544000000000007,1742250086.491948
-0.19999999999999996,0.31499999999999995,-0.43500000000000005,0.09704000000000002,-0.13636000000000004,0.1263399999999999,-0.62,-0.36,0.050000000000000044,0.045539999999999914,-0.00048000000000003595,-0.0039000000000000146,1742250086.608518
0.020000000000000018,0.3400000000000001,-0.21999999999999997,-0.0039000000000000146,-0.00770000000000004,-0.07311999999999996,-0.31499999999999995,-0.17500000000000004,-0.04500000000000004,-0.08665999999999996,-0.11962000000000006,0.11280000000000001,1742250086.7207649
-0.22499999999999998,0.22999999999999998,-0.38,-0.06140000000000001,0.11729999999999996,-0.13660000000000005,-0.17999999999999994,-0.20499999999999996,0.44999999999999996,0.01635999999999993,0.04064000000000001,-0.054440000000000044,1742250086.833786
-0.30000000000000004,0.09499999999999997,-0.52,0.06773999999999991,-0.006340000000000012,0.019400000000000084,-0.32499999999999996,-0.17500000000000004,0.31000000000000005,0.12805999999999984,0.006720000000000059,-0.10339999999999994,1742250086.947913
-0.20499999999999996,0.30499999999999994,-0.505,0.18798000000000004,-0.15894000000000008,0.08129999999999993,-0.675,-0.365,0.010000000000000009,0.007079999999999975,-0.042360000000000064,0.01868000000000003,1742250087.06791
0.014999999999999902,0.3500000000000001,-0.21499999999999997,-0.01978000000000002,-0.0232,-0.022220000000000018,-0.31499999999999995,-0.275,0.08499999999999996,-0.11084000000000005,-0.15270000000000006,0.10424000000000011,1742250087.1758778
-0.10499999999999998,0.21500000000000008,-0.39,-0.09216000000000002,0.14026000000000005,-0.04527999999999999,-0.14,-0.15000000000000002,0.4650000000000001,0.05371999999999999,0.010860000000000092,-0.06934000000000007,1742250087.289751
-0.22999999999999998,0.21500000000000008,-0.4650000000000001,0.06922000000000006,-0.013679999999999914,0.015740000000000087,-0.385,-0.13,0.21999999999999997,0.2216800000000001,0.028200000000000003,-0.07799999999999996,1742250087.408469
-0.19500000000000006,0.29499999999999993,-0.52,0.03516000000000008,-0.17077999999999993,0.060799999999999965,-0.63,-0.37,0.05499999999999994,-0.10424,-0.0010999999999999899,0.07972000000000001,1742250087.527787
-0.05500000000000005,0.28,-0.25,-0.008539999999999992,0.028939999999999966,-0.07508000000000004,-0.275,-0.21999999999999997,0.19500000000000006,-0.04834000000000005,-0.18946000000000007,0.12098000000000009,1742250087.631874
-0.29499999999999993,0.17500000000000004,-0.45999999999999996,-0.06103999999999998,0.17676000000000003,-0.052000000000000046,-0.17000000000000004,-0.20999999999999996,0.3500000000000001,0.12256,-0.04955999999999994,-0.07850000000000001,1742250087.748775
-0.265,0.17999999999999994,-0.53,0.09509999999999996,-0.02100000000000002,0.020380000000000065,-0.4650000000000001,-0.17999999999999994,0.16500000000000004,0.0966800000000001,0.017819999999999947,-0.13927999999999996,1742250087.86893
-0.06499999999999995,0.30499999999999994,-0.25,0.052000000000000046,-0.11462000000000006,0.06054000000000004,-0.565,-0.17999999999999994,0.135,-0.08948,0.05285999999999991,0.05078000000000005,1742250087.9736562
-0.12,0.29499999999999993,-0.35,-0.04491999999999996,0.04785999999999979,-0.09399999999999997,-0.31000000000000005,-0.19500000000000006,0.4950000000000001,-0.05700000000000005,-0.1174400000000001,0.04381999999999997,1742250088.088845
-0.42999999999999994,0.014999999999999902,-0.615,-0.19823999999999997,0.18261999999999978,0.022460000000000147,-0.36,-0.235,0.3400000000000001,0.10851999999999995,-0.04479999999999995,-0.10572000000000004,1742250088.211367
-0.28,0.19999999999999996,-0.53,0.11572000000000005,-0.046640000000000015,0.03210000000000002,-0.545,-0.11499999999999999,0.10000000000000009,0.17456000000000005,-0.005499999999999949,-0.08679999999999999,1742250088.3157918
-0.09499999999999997,0.29499999999999993,-0.18500000000000005,0.07153999999999994,-0.05958000000000008,0.08519999999999994,-0.52,-0.20499999999999996,0.16500000000000004,-0.13891999999999993,0.04370000000000007,0.15661999999999998,1742250088.429771
-0.125,0.20500000000000007,-0.31499999999999995,-0.03846000000000005,0.06311999999999984,-0.03710000000000002,-0.14500000000000002,-0.07000000000000006,0.43500000000000005,-0.27844,0.15501999999999994,0.09948000000000001,1742250088.5477629
-0.37,0.06499999999999995,-0.635,-0.11962000000000006,0.07508000000000004,-0.023440000000000016,-0.26,-0.11499999999999999,0.385,0.08557999999999999,0.05809999999999982,-0.053220000000000045,1742250088.658274
-0.30499999999999994,0.07499999999999996,-0.56,0.06835999999999998,-0.12268000000000001,0.058339999999999836,-0.58,-0.17000000000000004,0.07000000000000006,-0.013799999999999923,-0.018799999999999928,-0.12622,1742250088.771895
0.06000000000000005,0.41999999999999993,-0.12,-0.07020000000000004,0.0024399999999999977,0.041380000000000194,-0.4650000000000001,-0.14500000000000002,0.15999999999999992,-0.09620000000000006,-0.021360000000000046,0.135,1742250088.88901
-0.15000000000000002,0.2650000000000001,-0.32000000000000006,-0.03724000000000005,0.047719999999999985,-0.13329999999999997,-0.32499999999999996,-0.27,0.51,-0.13573999999999997,0.04601999999999995,0.06542000000000003,1742250089.00835
-0.29499999999999993,-0.0050000000000000044,-0.54,-0.19848,0.11792000000000002,-0.009399999999999964,-0.32499999999999996,-0.17000000000000004,0.385,0.12146000000000012,0.04235999999999995,-0.09899999999999998,1742250089.113788
-0.32000000000000006,0.21999999999999997,-0.565,0.35827999999999993,-0.07653999999999994,-0.0907,-0.565,-0.18500000000000005,0.10499999999999998,0.15611999999999981,-0.03979999999999995,-0.13073999999999997,1742250089.2317529
-0.0050000000000000044,0.375,-0.12,0.05188000000000015,-0.10875999999999997,0.09948000000000001,-0.53,-0.21499999999999997,0.1499999999999999,-0.11548000000000003,0.019160000000000066,0.1459999999999999,1742250089.3480031
-0.14,0.24,-0.31000000000000005,-0.028940000000000077,0.07702000000000009,-0.06384000000000001,-0.21499999999999997,-0.13,0.44999999999999996,-0.24926000000000004,0.09704000000000002,0.08460000000000001,1742250089.455575
-0.29000000000000004,0.07000000000000006,-0.56,-0.10997999999999997,0.10914000000000001,-0.01867999999999992,-0.29000000000000004,-0.18999999999999995,0.41999999999999993,0.08716000000000013,0.06433999999999984,-0.0343,1742250089.569672
-0.245,0.21500000000000008,-0.535,0.05920000000000014,-0.11791999999999991,0.060920000000000085,-0.575,-0.24,0.135,0.10888000000000009,0.027839999999999865,-0.10498000000000007,1742250089.689939
-0.030000000000000027,0.3599999999999999,-0.125,0.024780000000000024,-0.058599999999999985,0.03492000000000006,-0.48,-0.16500000000000004,0.10499999999999998,-0.15246000000000004,-0.02525999999999995,0.1504000000000001,1742250089.808429
-0.14,0.27,-0.29499999999999993,-0.08240000000000003,0.09753999999999996,-0.060799999999999965,-0.10999999999999999,-0.10999999999999999,0.395,-0.042240000000000055,-0.04405999999999999,0.05030000000000001,1742250089.911862
-0.32000000000000006,0.1100000000000001,-0.605,-0.05286000000000002,0.07678000000000007,-0.03272000000000008,-0.38,-0.17000000000000004,0.395,0.02844000000000002,0.12744,-0.058719999999999994,1742250090.028141
-0.235,0.22999999999999998,-0.47,0.04747999999999997,-0.15222000000000002,0.07654000000000005,-0.53,-0.26,0.06000000000000005,0.05518000000000001,-0.026000000000000023,-0.03503999999999996,1742250090.148902
0.004999999999999893,0.365,-0.20499999999999996,-0.03649999999999998,-0.015859999999999985,0.014639999999999986,-0.45999999999999996,-0.18500000000000005,0.17999999999999994,-0.06053999999999993,-0.036860000000000004,0.07335999999999987,1742250090.2536309
-0.10499999999999998,0.2450000000000001,-0.265,-0.060799999999999965,0.10961999999999983,-0.09129999999999994,-0.17500000000000004,-0.17000000000000004,0.375,0.040039999999999853,-0.10705999999999993,0.024900000000000144,1742250090.369163
-0.32499999999999996,0.16500000000000004,-0.56,-0.014519999999999977,0.07103999999999999,-0.05932000000000004,-0.2849999999999999,-0.22499999999999998,0.3799999999999999,0.04200000000000004,0.09388000000000019,-0.06041999999999992,1742250090.488478
-0.21499999999999997,0.27,-0.54,0.22486000000000006,-0.12060000000000004,-0.05249999999999999,-0.54,-0.26,0.050000000000000044,0.08129999999999993,0.04625999999999997,-0.11438000000000004,1742250090.5955358
0.03499999999999992,0.355,-0.14,-0.1272000000000001,-0.04283999999999999,0.14392000000000005,-0.4650000000000001,-0.16500000000000004,0.22999999999999998,-0.18628,-0.006099999999999994,0.10328000000000004,1742250090.7111208
-0.14,0.17500000000000004,-0.32000000000000006,-0.14672000000000007,0.13707999999999987,-0.022820000000000062,-0.17500000000000004,-0.04500000000000004,0.43500000000000005,0.007560000000000011,-0.08105999999999991,0.01195999999999997,1742250090.828078
-0.4,0.040000000000000036,-0.615,-0.07422000000000006,0.06994000000000011,-0.005120000000000013,-0.16500000000000004,-0.07999999999999996,0.3900000000000001,0.08507999999999982,0.11450000000000005,-0.04283999999999999,1742250090.946659
-0.30000000000000004,0.07000000000000006,-0.68,0.07397999999999993,-0.19226,0.04968000000000017,-0.675,-0.2849999999999999,0.030000000000000027,0.13416000000000006,-0.03870000000000007,-0.07225999999999999,1742250091.051866
0.050000000000000044,0.3599999999999999,-0.14,-0.09484000000000004,0.0023200000000000998,0.05249999999999999,-0.43999999999999995,-0.17500000000000004,0.2749999999999999,-0.20335999999999999,-0.048960000000000004,0.09338000000000002,1742250091.169008
-0.20499999999999996,0.15500000000000003,-0.29499999999999993,-0.06286000000000003,0.1360999999999999,-0.06591999999999998,-0.11499999999999999,-0.07999999999999996,0.565,-0.034540000000000015,0.038819999999999855,-0.05346000000000006,1742250091.288369
-0.41500000000000004,-0.10999999999999999,-0.695,0.02540000000000009,-0.04027999999999998,0.00878000000000001,-0.4,-0.10999999999999999,0.3900000000000001,0.11241999999999996,0.08031999999999995,-0.09692,1742250091.393585
-0.15500000000000003,0.23499999999999988,-0.29000000000000004,0.1299999999999999,-0.10974000000000006,0.09985999999999984,-0.68,-0.37,0.06000000000000005,0.07347999999999999,-0.027700000000000058,-0.029059999999999975,1742250091.508359
-0.04500000000000004,0.2650000000000001,-0.29000000000000004,-0.011960000000000082,-0.0043999999999999595,-0.006340000000000012,-0.355,-0.19500000000000006,0.014999999999999902,-0.07775999999999994,-0.16271999999999998,0.11596000000000006,1742250091.627736
-0.255,0.16500000000000004,-0.405,-0.08898000000000006,0.14954,-0.10765999999999998,-0.15500000000000003,-0.125,0.375,0.00048000000000003595,0.07264000000000004,-0.029059999999999975,1742250091.7356029
-0.30499999999999994,0.03499999999999992,-0.565,0.08996000000000004,-0.04834000000000005,-0.042240000000000055,-0.45999999999999996,-0.17500000000000004,0.30499999999999994,0.10973999999999995,0.022699999999999942,-0.12024000000000001,1742250091.8496552
-0.19999999999999996,0.23499999999999988,-0.30000000000000004,0.10314000000000001,-0.09350000000000003,0.0674999999999999,-0.7,-0.4,0.11499999999999999,-0.04637999999999998,-0.01317999999999997,0.0024399999999999977,1742250091.9687512
-0.09499999999999997,0.20500000000000007,-0.31499999999999995,-0.050899999999999945,0.026000000000000023,-0.0037800000000000056,-0.355,-0.22999999999999998,0.3799999999999999,-0.07568000000000008,-0.12060000000000004,0.10277999999999987,1742250092.087922
-0.2849999999999999,0.11499999999999999,-0.44500000000000006,-0.11036000000000001,0.15551999999999988,-0.01990000000000003,-0.245,-0.12,0.345,0.07946000000000009,-0.03858000000000006,-0.05065999999999993,1742250092.191642
-0.30000000000000004,0.14000000000000012,-0.45999999999999996,0.07714000000000021,-0.0045199999999999685,-0.030279999999999974,-0.405,-0.16500000000000004,0.20500000000000007,0.15894000000000008,-0.051019999999999954,-0.03808,1742250092.308011
-0.18999999999999995,0.2650000000000001,-0.37,0.12146000000000012,-0.06481999999999999,0.01966000000000001,-0.595,-0.30000000000000004,0.1200000000000001,0.05699999999999994,-0.02734000000000003,0.01977999999999991,1742250092.42741
-0.07999999999999996,0.2849999999999999,-0.30000000000000004,-0.013679999999999914,0.015859999999999985,0.0031799999999999606,-0.4650000000000001,-0.235,0.14500000000000002,-0.13281999999999994,-0.08960000000000001,0.06103999999999998,1742250092.533708
-0.135,0.24,-0.3400000000000001,-0.018799999999999928,0.12353999999999998,-0.06579999999999997,-0.17999999999999994,-0.13,0.42999999999999994,-0.028940000000000077,0.005619999999999958,-0.012700000000000045,1742250092.647914
-0.355,0.05499999999999994,-0.61,0.07579999999999987,-0.007080000000000086,-0.006099999999999994,-0.38,-0.17999999999999994,0.32499999999999996,0.16931999999999992,0.0026800000000000157,-0.028679999999999928,1742250092.767918
-0.19500000000000006,0.29499999999999993,-0.385,0.10753999999999997,-0.11414000000000002,-0.013299999999999979,-0.635,-0.29499999999999993,0.0,0.011360000000000037,0.01305999999999985,-0.010259999999999936,1742250092.875492
0.004999999999999893,0.395,-0.20499999999999996,-0.026120000000000032,-0.021720000000000073,-0.025760000000000005,-0.4650000000000001,-0.255,0.040000000000000036,-0.11718000000000006,-0.12524000000000002,0.09582000000000002,1742250092.989558
-0.125,0.22999999999999998,-0.29499999999999993,-0.11253999999999997,0.14403999999999995,-0.005499999999999949,-0.03500000000000003,-0.11499999999999999,0.53,0.06982,0.013539999999999885,0.02624000000000004,1742250093.107473
-0.37,0.050000000000000044,-0.61,0.08373999999999993,-0.05384,-0.030159999999999965,-0.24,-0.19999999999999996,0.2549999999999999,0.13318000000000008,0.01868000000000003,-0.06958000000000009,1742250093.217503
-0.17000000000000004,0.17999999999999994,-0.45999999999999996,0.16393999999999997,-0.16577999999999993,-0.022340000000000027,-0.705,-0.255,-0.07499999999999996,0.07177999999999995,0.0026800000000000157,-0.16442,1742250093.331553
0.07499999999999996,0.47,-0.18500000000000005,-0.09008000000000005,-0.018059999999999965,0.04601999999999995,-0.44500000000000006,-0.17999999999999994,0.18999999999999995,-0.16161999999999999,0.016599999999999948,0.11535999999999991,1742250093.447302
-0.10499999999999998,0.3400000000000001,-0.21999999999999997,-0.09350000000000003,0.19788000000000006,-0.03649999999999998,0.040000000000000036,-0.07499999999999996,0.6200000000000001,-0.0042799999999999505,0.02416000000000018,0.034540000000000015,1742250093.5676212
-0.47,0.10499999999999998,-0.695,-0.0034199999999999786,0.0035399999999998766,-0.07323999999999997,-0.20499999999999996,-0.18500000000000005,0.3400000000000001,0.08496000000000015,0.03685999999999989,-0.04798000000000002,1742250093.6734982
-0.265,0.3799999999999999,-0.45999999999999996,0.22533999999999987,-0.19422000000000006,-0.029299999999999993,-0.725,-0.32000000000000006,-0.14,0.026000000000000023,0.040039999999999853,-0.10363999999999995,1742250093.790329
0.16500000000000004,0.4849999999999999,-0.03500000000000003,-0.10887999999999998,-0.0034199999999999786,0.07421999999999995,-0.4,-0.18500000000000005,0.14500000000000002,-0.15234000000000003,-0.07225999999999999,0.10083999999999982,1742250093.9086442
-0.09499999999999997,0.32000000000000006,-0.275,-0.11902000000000001,0.1927399999999999,-0.019279999999999964,0.014999999999999902,-0.07000000000000006,0.55,0.015859999999999985,0.013539999999999885,-0.00024000000000001798,1742250094.015363
-0.375,0.10499999999999998,-0.65,0.026619999999999866,-0.037959999999999994,-0.021120000000000028,-0.31499999999999995,-0.09999999999999998,0.355,0.12220000000000009,0.13378,-0.07091999999999998,1742250094.129477
-0.18500000000000005,0.24,-0.3400000000000001,0.05346000000000006,-0.21644000000000008,0.033440000000000136,-0.675,-0.36,-0.030000000000000027,0.016839999999999966,0.011360000000000037,-0.03625999999999996,1742250094.24726
0.05499999999999994,0.3700000000000001,-0.17500000000000004,-0.09265999999999996,0.011239999999999917,0.02966000000000002,-0.42500000000000004,-0.31000000000000005,-0.010000000000000009,-0.05932000000000004,-0.11756,0.07299999999999995,1742250094.3576782
-0.17500000000000004,0.29000000000000004,-0.35,-0.10450000000000004,0.15002000000000004,-0.07579999999999998,-0.15000000000000002,-0.18999999999999995,0.43500000000000005,0.02635999999999994,-0.019039999999999946,-0.05274000000000001,1742250094.471529
-0.2849999999999999,0.1200000000000001,-0.555,0.01415999999999995,-0.017080000000000095,0.015740000000000087,-0.30499999999999994,-0.125,0.355,0.07752000000000003,0.12390000000000012,-0.03260000000000007,1742250094.58864
-0.20499999999999996,0.16500000000000004,-0.43500000000000005,-0.04455999999999993,-0.22046,0.06396000000000002,-0.565,-0.245,0.030000000000000027,-0.04382000000000008,-0.026619999999999977,-0.14184000000000008,1742250094.700104
0.04499999999999993,0.3999999999999999,-0.20999999999999996,-0.10253999999999996,-0.01085999999999998,0.0577399999999999,-0.49,-0.20999999999999996,0.24,-0.13561999999999996,-0.009759999999999991,0.10218000000000016,1742250094.813496
-0.18500000000000005,0.21999999999999997,-0.32000000000000006,-0.10229999999999995,0.10364000000000018,0.006099999999999994,-0.040000000000000036,0.04499999999999993,0.49,-0.10438000000000003,0.09655999999999998,0.01746000000000003,1742250094.927941
-0.31499999999999995,0.10499999999999998,-0.6,-0.0043999999999999595,-0.02429999999999999,-0.03637999999999997,-0.29499999999999993,-0.16500000000000004,0.3500000000000001,0.11059999999999981,0.0021999999999999797,-0.05346000000000006,1742250095.049401
-0.17500000000000004,0.20500000000000007,-0.505,0.15379999999999994,-0.09545999999999999,-0.04724000000000006,-0.69,-0.29499999999999993,-0.025000000000000022,0.05455999999999994,-0.04577999999999993,-0.04027999999999998,1742250095.1555278
0.0,0.33499999999999996,-0.20999999999999996,-0.017940000000000067,-0.00660000000000005,-0.01770000000000005,-0.365,-0.15500000000000003,0.2650000000000001,-0.14537999999999995,0.01537999999999995,0.09192,1742250095.2694569
-0.09999999999999998,0.2849999999999999,-0.2849999999999999,-0.02088000000000001,0.09498000000000006,-0.0650599999999999,-0.07000000000000006,-0.07499999999999996,0.5699999999999998,-0.032480000000000064,-0.02734000000000003,0.02210000000000001,1742250095.388205
-0.33000000000000007,0.08499999999999996,-0.64,0.011239999999999917,0.017940000000000067,-0.02513999999999994,-0.2849999999999999,-0.06499999999999995,0.395,0.10411999999999999,0.07555999999999985,-0.05884,1742250095.508158
-0.19999999999999996,0.16999999999999993,-0.495,0.06164000000000014,-0.15588000000000002,0.04405999999999999,-0.655,-0.29499999999999993,0.010000000000000009,0.09620000000000006,-0.08653999999999995,-0.08801999999999999,1742250095.611468
0.07499999999999996,0.405,-0.19999999999999996,-0.05798000000000003,-0.0075599999999999,0.03747999999999996,-0.42500000000000004,-0.14500000000000002,0.20999999999999996,-0.1261,-0.029299999999999993,0.10107999999999984,1742250095.731764
-0.15500000000000003,0.22999999999999998,-0.265,-0.05920000000000003,0.11218000000000017,-0.059700000000000086,-0.11499999999999999,-0.14500000000000002,0.585,0.017819999999999947,-0.0601799999999999,0.00878000000000001,1742250095.84832
-0.365,0.020000000000000018,-0.61,0.02171999999999996,0.03698000000000001,0.012580000000000036,-0.30499999999999994,-0.11499999999999999,0.385,0.07520000000000016,0.05908000000000002,-0.05041999999999991,1742250095.953402
-0.22999999999999998,0.19999999999999996,-0.625,0.030999999999999917,-0.15870000000000006,0.029779999999999918,-0.595,-0.235,-0.0050000000000000044,0.037959999999999994,-0.023799999999999932,-0.05298000000000003,1742250096.06802
0.06499999999999995,0.4750000000000001,-0.19999999999999996,-0.06420000000000003,-0.02403999999999995,0.04821999999999993,-0.41999999999999993,-0.17500000000000004,0.26,-0.08275999999999994,0.0013400000000001189,0.10766000000000009,1742250096.1896582
-0.17000000000000004,0.21500000000000008,-0.365,-0.06140000000000001,0.08582000000000001,-0.043220000000000036,-0.17500000000000004,-0.09999999999999998,0.3999999999999999,-0.09387999999999996,0.029900000000000038,0.03394000000000008,1742250096.295394
-0.30499999999999994,0.10499999999999998,-0.6,-0.056520000000000015,0.07654000000000005,-0.02844000000000002,-0.38,-0.18500000000000005,0.3799999999999999,0.12146000000000012,0.06591999999999998,-0.06115999999999999,1742250096.409402
-0.21499999999999997,0.30000000000000004,-0.43500000000000005,0.07933999999999997,-0.13403999999999994,0.04405999999999999,-0.58,-0.20999999999999996,-0.0050000000000000044,0.08972000000000002,0.014399999999999968,-0.07728000000000002,1742250096.527764
0.07000000000000006,0.48,-0.18999999999999995,-0.040899999999999936,-0.08410000000000006,0.037839999999999874,-0.43500000000000005,-0.19999999999999996,0.21500000000000008,-0.14025999999999994,-0.010379999999999945,0.12414000000000014,1742250096.648322
-0.08499999999999996,0.25,-0.29000000000000004,-0.06541999999999992,0.1360999999999999,-0.05932000000000004,-0.09999999999999998,-0.10999999999999999,0.5699999999999998,0.0008600000000000829,-0.03601999999999994,0.011600000000000055,1742250096.751338
-0.33000000000000007,0.125,-0.65,0.00048000000000003595,0.04150000000000009,0.004999999999999893,-0.32499999999999996,-0.15000000000000002,0.3999999999999999,0.13538000000000006,0.08153999999999995,-0.03198000000000001,1742250096.868702
-0.20999999999999996,0.21500000000000008,-0.42500000000000004,-0.011840000000000073,-0.18053999999999992,0.10620000000000007,-0.615,-0.31499999999999995,-0.04500000000000004,0.04248000000000007,0.034540000000000015,-0.06335999999999997,1742250096.988802
0.09499999999999997,0.5150000000000001,-0.19999999999999996,-0.04955999999999994,-0.06568000000000007,0.031380000000000186,-0.35,-0.17500000000000004,0.23499999999999988,-0.12512,-0.04479999999999995,0.09179999999999988,1742250097.093358
-0.09999999999999998,0.27,-0.31499999999999995,-0.09204000000000001,0.1360999999999999,-0.043460000000000054,-0.11499999999999999,-0.17500000000000004,0.45999999999999996,-0.030399999999999983,-0.0502999999999999,-0.01636000000000004,1742250097.211448
-0.365,0.1100000000000001,-0.67,-0.03465999999999991,0.10253999999999985,0.008920000000000039,-0.36,-0.15500000000000003,0.4099999999999999,0.15501999999999994,0.0578599999999998,-0.04846000000000006,1742250097.328074
-0.21499999999999997,0.25,-0.365,0.01317999999999997,-0.14478000000000002,0.09959999999999991,-0.7,-0.375,-0.05500000000000005,0.0027999999999999137,0.005980000000000096,-0.023320000000000007,1742250097.435356
-0.010000000000000009,0.365,-0.24,-0.05298000000000003,-0.018440000000000012,-0.00012000000000000899,-0.33499999999999996,-0.22499999999999998,0.040000000000000036,-0.16224000000000005,-0.048820000000000086,0.13270000000000004,1742250097.549357
-0.07000000000000006,0.2450000000000001,-0.345,-0.023679999999999923,0.13050000000000006,-0.10474000000000006,-0.04500000000000004,-0.04500000000000004,0.4750000000000001,0.006839999999999957,-0.007940000000000058,-0.07103999999999999,1742250097.669269
-0.28,0.1299999999999999,-0.52,0.058339999999999836,-0.009639999999999982,0.01868000000000003,-0.4,-0.17500000000000004,0.3599999999999999,0.11548000000000003,0.04027999999999987,-0.0916800000000001,1742250097.7884831
-0.17999999999999994,0.30499999999999994,-0.30499999999999994,0.09373999999999993,-0.12438000000000005,0.09143999999999997,-0.605,-0.32000000000000006,0.06000000000000005,0.025020000000000042,-0.027840000000000087,-0.005240000000000022,1742250097.891328
-0.030000000000000027,0.3500000000000001,-0.255,-0.02088000000000001,-0.00988,0.0023200000000000998,-0.4099999999999999,-0.20499999999999996,0.050000000000000044,-0.14085999999999999,-0.08105999999999991,0.10474000000000006,1742250098.008765
-0.05500000000000005,0.2450000000000001,-0.32000000000000006,-0.009159999999999946,0.11182000000000003,-0.12426000000000004,-0.20999999999999996,-0.19999999999999996,0.45500000000000007,-0.04503999999999997,0.031119999999999814,0.014040000000000052,1742250098.12807
-0.41500000000000004,0.16999999999999993,-0.625,-0.01966000000000001,0.07591999999999999,-0.041139999999999954,-0.24,-0.18500000000000005,0.3500000000000001,0.13232,-0.00782000000000005,0.00048000000000003595,1742250098.233236
-0.22499999999999998,0.15999999999999992,-0.52,0.010499999999999954,-0.1521,-0.029179999999999984,-0.51,-0.27,0.14000000000000012,0.027700000000000058,0.01648000000000005,-0.07641999999999993,1742250098.348465
-0.025000000000000022,0.2749999999999999,-0.135,-0.017340000000000022,-0.061880000000000046,0.11949999999999994,-0.41500000000000004,-0.245,0.24,-0.06494000000000011,-0.0009799999999999809,0.04039999999999999,1742250098.467666
-0.07499999999999996,0.29000000000000004,-0.35,-0.07591999999999999,0.06835999999999998,-0.0034199999999999786,-0.275,-0.22499999999999998,0.5150000000000001,-0.20850000000000002,0.00782000000000016,0.07433999999999985,1742250098.575208
-0.2849999999999999,0.19999999999999996,-0.625,-0.08326,0.12792000000000003,-0.035760000000000014,-0.29000000000000004,-0.33000000000000007,0.30000000000000004,0.05932000000000004,-0.02734000000000003,-0.03405999999999998,1742250098.6899688
-0.17000000000000004,0.25,-0.47,0.17688000000000015,-0.02844000000000002,-0.04137999999999997,-0.265,-0.18500000000000005,0.2749999999999999,0.08519999999999994,0.1302399999999999,-0.0075599999999999,1742250098.808334
-0.15500000000000003,0.2849999999999999,-0.43500000000000005,0.18628,-0.20886000000000005,-0.06494000000000011,-0.45999999999999996,-0.365,0.20500000000000007,-0.01208000000000009,0.006460000000000132,0.05688000000000004,1742250098.928671
-0.030000000000000027,0.29499999999999993,-0.32000000000000006,-0.015020000000000033,0.02088000000000001,-0.04052,-0.27,-0.265,0.08000000000000007,-0.1018,-0.12670000000000003,0.06591999999999998,1742250099.031342
-0.040000000000000036,0.30000000000000004,-0.36,-0.07629999999999992,0.20520000000000005,-0.07555999999999996,-0.14500000000000002,-0.19500000000000006,0.41999999999999993,0.10167999999999999,-0.07225999999999999,-0.09875999999999996,1742250099.148298
-0.18500000000000005,0.20999999999999996,-0.44500000000000006,0.08850000000000002,0.0027999999999999137,0.06800000000000006,-0.35,-0.12,0.18500000000000005,0.16503999999999985,0.06164000000000014,-0.12878,1742250099.268
-0.17999999999999994,0.30499999999999994,-0.37,-0.008179999999999965,-0.21239999999999992,0.09105999999999992,-0.555,-0.35,0.15500000000000003,-0.10997999999999997,0.04503999999999997,0.0932599999999999,1742250099.3731189
-0.125,0.3700000000000001,-0.365,-0.018919999999999937,0.02210000000000001,-0.04200000000000004,-0.31000000000000005,-0.28,-0.040000000000000036,-0.037719999999999976,-0.1802999999999999,0.1358600000000001,1742250099.48841
-0.015000000000000013,0.2749999999999999,-0.22999999999999998,0.0039000000000000146,0.14904000000000006,-0.11827999999999994,-0.15500000000000003,-0.17500000000000004,0.43500000000000005,0.04968000000000017,0.03807999999999989,-0.032340000000000035,1742250099.6078908
-0.14500000000000002,0.19500000000000006,-0.395,0.12426000000000004,-0.048820000000000086,-0.01770000000000005,-0.19500000000000006,-0.14500000000000002,0.20500000000000007,0.22643999999999997,0.05249999999999999,-0.13085999999999998,1742250099.715075
-0.135,0.27,-0.375,0.07666000000000017,-0.19531999999999994,0.07190000000000007,-0.57,-0.41500000000000004,0.050000000000000044,-0.039919999999999956,-0.023320000000000007,0.02171999999999996,1742250099.8292322
-0.06000000000000005,0.3400000000000001,-0.28,-0.07055999999999996,0.045539999999999914,0.014520000000000088,-0.3400000000000001,-0.245,0.030000000000000027,-0.06787999999999994,-0.16771999999999998,0.07409999999999983,1742250099.9482791
-0.05500000000000005,0.21500000000000008,-0.32000000000000006,-0.06494000000000011,0.18945999999999996,-0.04491999999999996,-0.14500000000000002,-0.12,0.45999999999999996,0.013539999999999885,0.0030599999999998406,-0.07874000000000003,1742250100.0689878
-0.20499999999999996,0.19500000000000006,-0.405,0.07347999999999999,-0.04077999999999993,0.012820000000000054,-0.16000000000000003,-0.07999999999999996,0.2549999999999999,0.12768000000000002,0.05908000000000002,-0.11096000000000006,1742250100.171078
-0.13,0.20999999999999996,-0.395,0.043339999999999934,-0.17003999999999997,0.08153999999999995,-0.6,-0.355,0.04499999999999993,-0.05944000000000005,0.0041599999999999415,-0.010739999999999972,1742250100.2884128
-0.05500000000000005,0.29499999999999993,-0.255,-0.08299999999999996,0.04200000000000004,0.05066000000000015,-0.41999999999999993,-0.20499999999999996,0.06499999999999995,-0.13463999999999998,-0.16027999999999998,0.04638000000000009,1742250100.4082692
-0.15500000000000003,0.2549999999999999,-0.35,-0.0007399999999999629,0.16711999999999994,-0.09715999999999991,-0.29000000000000004,-0.16500000000000004,0.41500000000000004,0.10289999999999999,-0.03942000000000001,-0.05688000000000004,1742250100.514264
-0.29499999999999993,0.20999999999999996,-0.53,0.19763999999999982,-0.03539999999999999,-0.025639999999999996,-0.245,-0.14,0.19999999999999996,0.10509999999999997,0.10301999999999989,0.0046399999999999775,1742250100.628039
-0.22999999999999998,0.21500000000000008,-0.62,-0.01427999999999996,-0.1533199999999999,0.0015800000000001369,-0.575,-0.36,0.16500000000000004,-0.048960000000000004,0.02540000000000009,0.03198000000000012,1742250100.747197
-0.11499999999999999,0.2849999999999999,-0.345,-0.045419999999999905,0.019279999999999964,-0.008539999999999992,-0.37,-0.22999999999999998,0.050000000000000044,-0.11414000000000002,-0.12365999999999999,0.06909999999999994,1742250100.855234
-0.010000000000000009,0.2450000000000001,-0.255,-0.08544000000000007,0.13172000000000006,0.024900000000000144,-0.18999999999999995,-0.12,0.43500000000000005,0.0966800000000001,-0.05249999999999999,-0.07311999999999996,1742250100.969235
-0.21999999999999997,0.23499999999999988,-0.45999999999999996,0.11021999999999998,-0.06555999999999995,-0.028679999999999928,-0.22999999999999998,-0.08999999999999997,0.18999999999999995,0.06407999999999991,0.10277999999999987,-0.05113999999999996,1742250101.087774
-0.14500000000000002,0.355,-0.43999999999999995,0.1459999999999999,-0.14903999999999995,-0.06347999999999998,-0.675,-0.3400000000000001,0.09000000000000008,-0.08055999999999996,0.08448000000000011,0.027099999999999902,1742250101.197093
-0.16000000000000003,0.32000000000000006,-0.395,-0.06555999999999995,0.043460000000000054,0.025640000000000107,-0.505,-0.345,0.30499999999999994,-0.10387999999999997,-0.26025999999999994,0.04161999999999999,1742250101.311218
-0.20999999999999996,0.30499999999999994,-0.385,-0.13915999999999995,0.18957999999999986,0.02075999999999989,-0.27,-0.25,0.30000000000000004,0.10474000000000006,-0.08422000000000007,-0.034420000000000006,1742250101.427542
-0.17000000000000004,0.2450000000000001,-0.41999999999999993,0.03503999999999996,0.0015800000000001369,0.002080000000000082,-0.16000000000000003,-0.07499999999999996,0.2250000000000001,0.07728000000000002,0.047599999999999865,-0.06701999999999997,1742250101.548106
-0.19500000000000006,0.2450000000000001,-0.605,-0.04382000000000008,-0.12829999999999997,0.04638000000000009,-0.635,-0.32499999999999996,0.08499999999999996,-0.1533199999999999,0.0709200000000001,0.05346000000000006,1742250101.6531048
-0.16000000000000003,0.25,-0.355,-0.04724000000000006,0.04785999999999979,-0.006220000000000003,-0.2849999999999999,-0.16000000000000003,0.20999999999999996,-0.08435999999999999,-0.18884,0.07250000000000001,1742250101.768079
-0.28,0.19500000000000006,-0.4,-0.09644000000000008,0.21350000000000002,0.03088000000000002,-0.32499999999999996,-0.21499999999999997,0.28,0.1520999999999999,-0.09277999999999997,-0.08496000000000004,1742250101.888365
-0.255,0.15999999999999992,-0.48,0.15002000000000004,0.0026800000000000157,-0.011360000000000037,-0.4650000000000001,-0.09999999999999998,0.2749999999999999,0.11596000000000006,0.14525999999999994,-0.023679999999999923,1742250101.995014
-0.48,0.09499999999999997,-0.5,0.044319999999999915,0.06616,0.05553999999999992,-0.22499999999999998,-0.42999999999999994,0.19999999999999996,0.03283999999999998,0.12220000000000009,-0.060919999999999974,1742255426.223115
-0.38,0.1299999999999999,-0.30499999999999994,0.033320000000000016,-0.21911999999999998,0.09826000000000001,-0.47,-0.3400000000000001,-0.18500000000000005,0.027579999999999938,-0.04296,-0.09558,1742255426.337208
-0.030000000000000027,0.5249999999999999,0.050000000000000044,0.0012199999999999989,-0.01636000000000004,0.007079999999999975,-0.275,-0.29000000000000004,0.15500000000000003,-0.018440000000000012,-0.06053999999999993,0.03917999999999999,1742255426.451234
-0.32000000000000006,0.16500000000000004,-0.21499999999999997,-0.22131999999999996,0.11376000000000008,0.028079999999999883,-0.08999999999999997,-0.47,0.23499999999999988,-0.04736000000000007,0.02416000000000018,0.07142000000000004,1742255426.56511
-0.45500000000000007,-0.06000000000000005,-0.59,-0.1224400000000001,-0.01648000000000005,0.016720000000000068,-0.20499999999999996,-0.30499999999999994,0.22999999999999998,-0.029779999999999918,0.11840000000000006,-0.05003999999999997,1742255426.679202
-0.39,0.10000000000000009,-0.395,0.12207999999999997,-0.09155999999999997,0.034540000000000015,-0.5,-0.44999999999999996,0.014999999999999902,0.01648000000000005,0.11047999999999991,-0.10218000000000005,1742255426.797903
-0.18999999999999995,0.41999999999999993,-0.030000000000000027,0.06006,-0.11009999999999998,0.056519999999999904,-0.37,-0.385,0.030000000000000027,-0.07481999999999989,-0.07141999999999993,0.08716000000000013,1742255426.907159
-0.21999999999999997,0.24,-0.15500000000000003,-0.10827999999999993,0.06347999999999998,-0.014639999999999986,-0.12,-0.42500000000000004,0.2650000000000001,0.010499999999999954,-0.04125999999999996,0.07481999999999989,1742255427.021107
-0.545,0.09000000000000008,-0.535,-0.022580000000000044,0.09289999999999998,0.0034199999999999786,-0.21499999999999997,-0.4,0.16500000000000004,0.005740000000000078,0.08642000000000016,-0.012820000000000054,1742255427.136801
-0.42500000000000004,0.15999999999999992,-0.375,0.07690000000000019,-0.10120000000000007,0.03283999999999998,-0.395,-0.385,0.02499999999999991,-0.01415999999999995,0.041140000000000176,-0.06458000000000008,1742255427.2490802
-0.16500000000000004,0.3799999999999999,-0.08999999999999997,0.013299999999999867,-0.12341999999999997,0.02429999999999999,-0.33000000000000007,-0.39,-0.010000000000000009,-0.11962000000000006,-0.07835999999999999,0.08874000000000004,1742255427.363222
-0.18999999999999995,0.2650000000000001,-0.125,-0.21436,0.08094000000000001,0.023440000000000127,-0.14500000000000002,-0.365,0.405,-0.04161999999999999,0.016599999999999948,0.024660000000000126,1742255427.481386
-0.545,0.0,-0.63,-0.12353999999999998,0.06884000000000001,-0.05065999999999993,-0.21499999999999997,-0.375,0.17999999999999994,0.03381999999999996,0.10533999999999999,-0.01660000000000006,1742255427.591059
-0.485,0.1200000000000001,-0.44500000000000006,0.13573999999999997,-0.07910000000000006,-0.0122000000000001,-0.41999999999999993,-0.375,0.030000000000000027,0.044319999999999915,0.09522000000000008,-0.0907,1742255427.705037
-0.17000000000000004,0.31000000000000005,-0.11499999999999999,0.05809999999999982,-0.1528400000000001,0.05140000000000011,-0.35,-0.355,-0.025000000000000022,-0.050779999999999936,-0.04798000000000002,0.04845999999999995,1742255427.81917
-0.255,0.27,-0.17500000000000004,-0.11096000000000006,0.0908199999999999,-0.010140000000000038,-0.20999999999999996,-0.33000000000000007,0.18999999999999995,-0.008179999999999965,-0.10363999999999995,0.04381999999999997,1742255427.9331431
-0.42500000000000004,0.07499999999999996,-0.355,-0.09715999999999991,0.09631999999999996,0.023679999999999923,-0.255,-0.38,0.16999999999999993,0.01977999999999991,0.05699999999999994,-0.026619999999999977,1742255428.047043
-0.49,0.10000000000000009,-0.4099999999999999,0.09227999999999992,-0.05944000000000005,0.015859999999999985,-0.41999999999999993,-0.43500000000000005,-0.0050000000000000044,0.006220000000000114,0.12683999999999984,-0.05884,1742255428.1610692
-0.18999999999999995,0.28,-0.13,0.05479999999999996,-0.12451999999999996,0.056519999999999904,-0.385,-0.44999999999999996,-0.040000000000000036,-0.02185999999999999,-0.05286000000000002,0.04638000000000009,1742255428.2774029
-0.21999999999999997,0.28,-0.20499999999999996,-0.03515999999999997,0.037599999999999856,-0.015619999999999967,-0.235,-0.4,0.08499999999999996,-0.021240000000000037,-0.09436,0.029179999999999984,1742255428.389078
-0.37,0.14000000000000012,-0.32000000000000006,-0.05408000000000002,0.08790000000000009,0.03820000000000001,-0.19999999999999996,-0.35,0.10499999999999998,0.04577999999999993,0.00550000000000006,-0.01978000000000002,1742255428.503026
-0.475,0.14000000000000012,-0.44999999999999996,0.053220000000000045,-0.043340000000000045,0.0307599999999999,-0.39,-0.4,0.06000000000000005,0.049799999999999844,0.13038000000000016,-0.09314,1742255428.61808
-0.19999999999999996,0.27,-0.16500000000000004,0.07520000000000016,-0.14978000000000002,-0.010259999999999936,-0.36,-0.395,-0.020000000000000018,-0.07068000000000008,-0.04846000000000006,0.06666000000000016,1742255428.7311969
-0.245,0.2749999999999999,-0.20499999999999996,-0.02088000000000001,0.06445999999999996,-0.04625999999999997,-0.24,-0.395,0.08499999999999996,0.011600000000000055,-0.09216000000000002,0.033440000000000136,1742255428.844981
-0.42500000000000004,0.16500000000000004,-0.385,-0.08216000000000001,0.12414000000000014,0.0048799999999999955,-0.20499999999999996,-0.3400000000000001,0.09000000000000008,0.045660000000000034,0.014520000000000088,-0.029299999999999993,1742255428.960842
-0.4650000000000001,0.135,-0.48,0.09033999999999986,-0.025760000000000005,0.015139999999999931,-0.39,-0.37,0.040000000000000036,-0.02734000000000003,0.13440000000000007,-0.06665999999999994,1742255429.078758
-0.2849999999999999,0.16999999999999993,-0.22499999999999998,0.09033999999999986,-0.1435599999999999,0.006839999999999957,-0.32499999999999996,-0.385,0.11499999999999999,-0.07677999999999996,0.0006200000000000649,0.059819999999999984,1742255429.186975
-0.22499999999999998,0.2549999999999999,-0.245,-0.005739999999999967,0.03161999999999998,-0.043460000000000054,-0.24,-0.37,0.09499999999999997,0.035880000000000134,-0.07787999999999995,0.04845999999999995,1742255429.3010209
-0.31000000000000005,0.17500000000000004,-0.30499999999999994,-0.08410000000000006,0.08166000000000007,-0.005240000000000022,-0.275,-0.38,0.19500000000000006,0.015020000000000033,0.07555999999999985,-0.008179999999999965,1742255429.41971
-0.43500000000000005,0.1499999999999999,-0.3400000000000001,0.1299999999999999,0.025020000000000042,-0.04601999999999995,-0.3400000000000001,-0.39,0.09000000000000008,0.08190000000000008,0.09875999999999996,-0.10718000000000005,1742255429.528962
-0.2849999999999999,0.16999999999999993,-0.27,0.2280199999999999,-0.09545999999999999,-0.04283999999999999,-0.39,-0.42500000000000004,0.03499999999999992,-0.08629999999999993,-0.034540000000000015,0.040159999999999973,1742255429.64303
-0.245,0.2250000000000001,-0.22999999999999998,-0.09510000000000007,0.023320000000000007,-0.009639999999999982,-0.28,-0.405,0.03499999999999992,-0.04944000000000004,-0.12585999999999997,0.062140000000000084,1742255429.758775
-0.36,0.1299999999999999,-0.32499999999999996,-0.1691800000000001,0.08251999999999993,-0.0022000000000000908,-0.30000000000000004,-0.35,0.16500000000000004,0.07835999999999999,0.05090000000000017,-0.033320000000000016,1742255429.871181
-0.41999999999999993,0.11499999999999999,-0.345,0.10364000000000018,0.011600000000000055,-0.027220000000000022,-0.29499999999999993,-0.31000000000000005,0.125,0.08850000000000002,0.13232,-0.08422000000000007,1742255429.984921
-0.3400000000000001,0.18500000000000005,-0.35,0.2231399999999999,-0.09986000000000006,-0.01636000000000004,-0.39,-0.42500000000000004,0.06499999999999995,-0.0035399999999999876,-0.059940000000000104,0.019400000000000084,1742255430.099144
-0.26,0.26,-0.24,-0.016000000000000014,0.005619999999999958,-0.02648000000000006,-0.245,-0.37,0.17500000000000004,0.024780000000000024,-0.07264000000000004,0.04283999999999999,1742255430.218624
-0.345,0.18500000000000005,-0.355,-0.06384000000000001,0.09924,-0.03834000000000004,-0.27,-0.4,0.16999999999999993,-0.0029199999999999227,0.07972000000000001,-0.0012199999999999989,1742255430.326936
-0.39,0.14500000000000002,-0.31499999999999995,0.08068000000000008,0.015619999999999967,-0.016960000000000086,-0.22999999999999998,-0.28,0.1100000000000001,0.09522000000000008,0.09777999999999998,-0.05688000000000004,1742255430.440919
-0.32499999999999996,0.135,-0.4,0.17736000000000018,-0.08410000000000006,-0.02100000000000002,-0.45999999999999996,-0.41999999999999993,-0.06000000000000005,-0.02746000000000004,-0.06616,-0.054200000000000026,1742255430.5593028
-0.21499999999999997,0.3700000000000001,-0.17999999999999994,-0.03051999999999999,0.015139999999999931,0.0029200000000000337,-0.31000000000000005,-0.385,0.11499999999999999,0.005239999999999911,-0.08653999999999995,0.07397999999999993,1742255430.668931
-0.32000000000000006,0.21500000000000008,-0.2849999999999999,-0.1493,0.08484000000000003,-0.04527999999999999,-0.18999999999999995,-0.25,0.20999999999999996,0.06922000000000006,0.018920000000000048,-0.029899999999999927,1742255430.782905
-0.485,-0.025000000000000022,-0.45999999999999996,0.18786000000000014,0.026980000000000004,0.015859999999999985,-0.2849999999999999,-0.28,0.19500000000000006,-0.035640000000000005,0.16296,-0.01770000000000005,1742255430.8992078
-0.375,0.30000000000000004,-0.235,-0.007440000000000002,-0.09729999999999994,0.06152000000000002,-0.485,-0.42500000000000004,-0.010000000000000009,-0.007940000000000058,-0.009519999999999973,-0.031379999999999963,1742255431.0119731
-0.21999999999999997,0.3999999999999999,-0.10999999999999999,-0.0023200000000000998,-0.046760000000000024,-0.0050000000000000044,-0.4099999999999999,-0.42500000000000004,-0.05500000000000005,-0.03917999999999999,-0.10084000000000004,0.07347999999999999,1742255431.1250172
-0.17500000000000004,0.29499999999999993,-0.11499999999999999,-0.14318000000000008,0.08861999999999992,-0.026619999999999977,-0.14,-0.17999999999999994,0.345,-0.08287999999999995,-0.011600000000000055,0.029900000000000038,1742255431.2392662
-0.55,0.05499999999999994,-0.625,-0.0549400000000001,0.04699999999999993,-0.00660000000000005,-0.255,-0.33499999999999996,0.20999999999999996,0.054319999999999924,0.11816000000000004,0.0023200000000000998,1742255431.359676
-0.375,0.16999999999999993,-0.32000000000000006,-0.035760000000000014,-0.13196000000000008,0.04797999999999991,-0.405,-0.36,0.03499999999999992,-0.11865999999999999,0.08790000000000009,-0.052000000000000046,1742255431.466995
-0.21499999999999997,0.355,-0.14500000000000002,-0.049799999999999955,-0.12818000000000007,0.035760000000000014,-0.375,-0.355,-0.025000000000000022,-0.038940000000000086,-0.05565999999999993,0.058599999999999985,1742255431.58097
-0.19500000000000006,0.27,-0.20499999999999996,-0.2158199999999999,0.06666000000000016,0.008059999999999956,-0.17999999999999994,-0.27,0.3400000000000001,-0.08618000000000003,-0.12451999999999996,0.07728000000000002,1742255431.699046
-0.4099999999999999,0.08000000000000007,-0.43999999999999995,-0.13660000000000005,0.02929999999999988,-0.018919999999999937,-0.25,-0.385,0.1499999999999999,0.014399999999999968,0.04614000000000007,-0.04491999999999996,1742255431.808801
-0.41999999999999993,0.1100000000000001,-0.475,0.07752000000000003,-0.027840000000000087,0.008920000000000039,-0.355,-0.375,0.15500000000000003,0.031119999999999814,0.09472000000000014,-0.08605999999999991,1742255431.922869
-0.26,0.135,-0.32000000000000006,0.10155999999999987,-0.11096000000000006,0.03709999999999991,-0.365,-0.45999999999999996,0.11499999999999999,-0.04064000000000001,0.022460000000000147,0.030019999999999936,1742255432.0394251
-0.245,0.29000000000000004,-0.29499999999999993,-0.02501999999999993,0.006599999999999939,-0.042360000000000064,-0.21999999999999997,-0.32499999999999996,0.15999999999999992,-0.04161999999999999,-0.12634,0.05078000000000005,1742255432.150826
-0.32000000000000006,0.09000000000000008,-0.355,-0.12353999999999998,0.10485999999999995,-0.01758000000000004,-0.30000000000000004,-0.395,0.18999999999999995,0.09948000000000001,0.026739999999999986,-0.04491999999999996,1742255432.264811
-0.32000000000000006,0.1100000000000001,-0.32000000000000006,0.06396000000000002,0.054319999999999924,0.007560000000000011,-0.235,-0.275,0.15500000000000003,0.12353999999999998,0.10718000000000005,-0.06041999999999992,1742255432.379586
-0.31000000000000005,0.10000000000000009,-0.395,0.21777999999999986,-0.08751999999999993,0.02391999999999994,-0.42999999999999994,-0.495,-0.025000000000000022,0.04833999999999983,-0.04908000000000001,-0.02734000000000003,1742255432.493056
-0.16000000000000003,0.23499999999999988,-0.27,-0.02648000000000006,0.019160000000000066,-0.022220000000000018,-0.275,-0.39,0.19999999999999996,0.008059999999999956,-0.0908199999999999,0.03980000000000006,1742255432.606803
-0.35,0.22999999999999998,-0.4099999999999999,-0.12390000000000001,0.08349999999999991,-0.037719999999999976,-0.17999999999999994,-0.275,0.3400000000000001,0.03638000000000008,0.01428000000000007,-0.028799999999999937,1742255432.7206988
-0.385,0.05499999999999994,-0.44500000000000006,0.1372,0.02404000000000006,-0.02307999999999999,-0.275,-0.22499999999999998,0.16500000000000004,-0.00537999999999994,0.1875,-0.01525999999999994,1742255432.840182
-0.32000000000000006,0.21500000000000008,-0.365,0.08728000000000002,-0.12670000000000003,0.06018000000000012,-0.4650000000000001,-0.42999999999999994,-0.05500000000000005,0.06274000000000002,-0.031000000000000028,-0.03698000000000001,1742255432.948965
-0.16000000000000003,0.27,-0.21999999999999997,0.008920000000000039,-0.0018400000000000638,0.0037799999999998946,-0.345,-0.41500000000000004,0.135,-0.014039999999999941,-0.15979999999999994,0.016240000000000032,1742255433.062884
-0.2849999999999999,0.20999999999999996,-0.32000000000000006,-0.12866,0.09436,-0.03979999999999995,-0.125,-0.26,0.3900000000000001,-0.05249999999999999,0.05090000000000017,0.01097999999999999,1742255433.179874
-0.43999999999999995,-0.010000000000000009,-0.65,0.030399999999999983,-0.02088000000000001,0.016000000000000014,-0.30000000000000004,-0.3400000000000001,0.24,-0.03917999999999999,0.1469800000000001,0.009279999999999955,1742255433.290771
-0.27,0.1100000000000001,-0.31000000000000005,0.029179999999999984,-0.14612000000000003,0.04956000000000005,-0.42500000000000004,-0.365,0.014999999999999902,0.053099999999999925,0.05797999999999992,-0.08338000000000001,1742255433.404844
-0.21499999999999997,0.32000000000000006,-0.17000000000000004,0.02855999999999992,-0.09814,0.02746000000000004,-0.37,-0.33499999999999996,-0.050000000000000044,-0.027100000000000013,-0.09863999999999995,0.05346000000000006,1742255433.519396
-0.17999999999999994,0.24,-0.21999999999999997,-0.09765999999999997,0.11328000000000005,-0.05712000000000006,-0.12,-0.2849999999999999,0.4849999999999999,-0.06372,0.018320000000000114,0.053220000000000045,1742255433.6406898
-0.485,-0.07999999999999996,-0.765,-0.11009999999999998,0.012460000000000138,0.02307999999999999,-0.255,-0.35,0.19500000000000006,-0.018799999999999928,0.07421999999999995,-0.03625999999999996,1742255433.7467678
-0.365,0.10000000000000009,-0.52,0.07898000000000005,-0.09350000000000003,0.03601999999999994,-0.44999999999999996,-0.405,0.06000000000000005,0.03845999999999994,0.10277999999999987,-0.05944000000000005,1742255433.861065
-0.20499999999999996,0.27,-0.18999999999999995,0.06457999999999986,-0.10694000000000004,0.030279999999999863,-0.37,-0.39,-0.020000000000000018,-0.07713999999999999,-0.03979999999999995,0.09251999999999994,1742255433.983927
-0.19500000000000006,0.29499999999999993,-0.19999999999999996,-0.013419999999999987,0.07225999999999999,-0.053220000000000045,-0.18500000000000005,-0.31499999999999995,0.26,-0.032340000000000035,-0.16405999999999998,0.06555999999999984,1742255434.088793
-0.44500000000000006,0.040000000000000036,-0.6,-0.10718000000000005,0.12329999999999997,-0.018179999999999974,-0.26,-0.395,0.19500000000000006,0.07764000000000015,0.03638000000000008,-0.08129999999999993,1742255434.2027562
-0.385,0.050000000000000044,-0.575,0.045660000000000034,-0.12341999999999997,0.043339999999999934,-0.33000000000000007,-0.31000000000000005,0.09000000000000008,-0.0007399999999999629,0.10400000000000009,-0.07689999999999997,1742255434.320767
-0.20499999999999996,0.18999999999999995,-0.2849999999999999,0.01208000000000009,-0.1372000000000001,0.035880000000000134,-0.405,-0.44500000000000006,0.014999999999999902,-0.07287999999999994,-0.009759999999999991,0.04479999999999995,1742255434.4309409
-0.255,0.2749999999999999,-0.29499999999999993,-0.03820000000000001,0.04174000000000011,-0.0013400000000000079,-0.22499999999999998,-0.345,0.14500000000000002,-0.03748000000000007,-0.14686,0.0671400000000002,1742255434.544739
-0.31000000000000005,0.15500000000000003,-0.385,-0.13561999999999996,0.12194000000000016,-0.055419999999999914,-0.30000000000000004,-0.395,0.22999999999999998,0.08850000000000002,-0.00770000000000004,-0.056520000000000015,1742255434.660343
-0.27,0.07499999999999996,-0.33499999999999996,0.041020000000000056,0.05809999999999982,0.0041599999999999415,-0.28,-0.275,0.1100000000000001,0.06407999999999991,0.1423399999999999,-0.057499999999999996,1742255434.780277
-0.31000000000000005,0.09000000000000008,-0.535,0.25292000000000003,-0.07374000000000003,-0.02513999999999994,-0.5,-0.47,-0.06000000000000005,-0.035640000000000005,-0.039059999999999984,0.009519999999999973,1742255434.886733
-0.18999999999999995,0.375,-0.22999999999999998,0.007440000000000113,-0.033320000000000016,-0.01305999999999996,-0.28,-0.355,0.18500000000000005,-0.03808,-0.12658000000000003,0.09753999999999996,1742255435.00429
-0.245,0.26,-0.30499999999999994,-0.15161999999999998,0.08898000000000006,-0.04834000000000005,-0.15000000000000002,-0.31000000000000005,0.32000000000000006,-0.006099999999999994,-0.03539999999999999,0.01097999999999999,1742255435.1211169
-0.38,0.0,-0.635,0.016240000000000032,0.009640000000000093,0.0024399999999999977,-0.235,-0.29000000000000004,0.25,-0.00036000000000002697,0.09655999999999998,-0.023559999999999914,1742255435.2287638
-0.32000000000000006,0.10499999999999998,-0.535,0.09448000000000012,-0.12341999999999997,0.018059999999999965,-0.44500000000000006,-0.405,0.02499999999999991,0.047599999999999865,0.07299999999999995,-0.08165999999999995,1742255435.3426151
-0.19500000000000006,0.32499999999999996,-0.14500000000000002,0.06433999999999984,-0.07201999999999997,0.03807999999999989,-0.355,-0.385,0.05499999999999994,-0.08350000000000002,-0.10229999999999995,0.09301999999999988,1742255435.463283
-0.18500000000000005,0.28,-0.235,-0.07604,0.09129999999999994,-0.04467999999999994,-0.19500000000000006,-0.33000000000000007,0.31000000000000005,0.0046399999999999775,-0.08129999999999993,0.046499999999999986,1742255435.570665
-0.365,0.0,-0.605,-0.10450000000000004,0.06298000000000004,0.011479999999999935,-0.265,-0.375,0.2250000000000001,0.052000000000000046,0.03381999999999996,-0.05003999999999997,1742255435.684616
-0.3400000000000001,0.08000000000000007,-0.545,0.05761999999999978,-0.07264000000000004,0.031119999999999814,-0.38,-0.365,0.10000000000000009,0.05750000000000011,0.1236600000000001,-0.11499999999999999,1742255435.8012109
-0.275,0.21999999999999997,-0.37,0.23083999999999993,-0.08704,0.020999999999999908,-0.4099999999999999,-0.475,0.040000000000000036,-0.08484000000000003,-0.018059999999999965,0.062140000000000084,1742255435.922577
-0.20999999999999996,0.2849999999999999,-0.265,-0.05152000000000001,0.0354000000000001,-0.025399999999999978,-0.27,-0.385,0.10499999999999998,-0.022340000000000027,-0.20472,0.09118000000000004,1742255436.026732
-0.245,0.09000000000000008,-0.355,-0.08874000000000004,0.1165799999999999,-0.024780000000000024,-0.22999999999999998,-0.32499999999999996,0.21999999999999997,0.07531999999999983,0.03259999999999996,-0.03382000000000007,1742255436.141848
-0.29499999999999993,0.05499999999999994,-0.52,0.08885999999999994,0.04296000000000011,-0.04798000000000002,-0.345,-0.26,0.125,0.08716000000000013,0.12683999999999984,-0.13805999999999996,1742255436.261653
-0.265,0.25,-0.345,0.1701600000000001,-0.06359999999999999,0.02648000000000006,-0.44999999999999996,-0.4650000000000001,0.04499999999999993,-0.00024000000000001798,-0.04834000000000005,-0.0034199999999999786,1742255436.3688378
-0.19999999999999996,0.23499999999999988,-0.30000000000000004,-0.06347999999999998,0.0012199999999999989,0.010860000000000092,-0.265,-0.365,0.125,-0.0023200000000000998,-0.10314000000000001,0.07543999999999995,1742255436.484826
-0.27,0.09499999999999997,-0.4099999999999999,-0.15942,0.07909999999999995,-0.009039999999999937,-0.2849999999999999,-0.29000000000000004,0.30000000000000004,0.006839999999999957,0.05896000000000012,-0.028079999999999994,1742255436.601608
-0.38,0.08499999999999996,-0.42500000000000004,0.1290199999999999,0.03723999999999994,-0.01085999999999998,-0.33499999999999996,-0.21499999999999997,0.16999999999999993,0.0662799999999999,0.1849400000000001,-0.09326000000000001,1742255436.710499
-0.27,0.20500000000000007,-0.3400000000000001,-0.018440000000000012,-0.14915999999999996,0.11548000000000003,-0.505,-0.41500000000000004,-0.050000000000000044,-0.042360000000000064,0.0014600000000000168,-0.03527999999999998,1742255436.824703
-0.18999999999999995,0.22999999999999998,-0.275,-0.05408000000000002,0.00035999999999991594,0.012939999999999952,-0.3400000000000001,-0.36,0.11499999999999999,-0.01427999999999996,-0.13294000000000006,0.08094000000000001,1742255436.942899
