L-AccX,L-AccY,L-AccZ,L-GyrX,L-GyrY,L-GyrZ,R-AccX,R-AccY,R-AccZ,R-GyrX,R-GyrY,R-GyrZ,timestamp
-0.31,-0.03,1.3,4.39,-24.72,22.16,0.78,-0.58,0.14,1.1,-2.62,-5.68,1742312084.356061
-0.58,0.59,1.38,-359.37,101.68,-121.95,0.81,-0.61,0.15,14.65,14.71,5.37,1742312084.473324
0.51,0.26,-0.06,-221.44,187.13,-201.54,0.76,-0.67,0.07,70.07,-35.58,-14.04,1742312084.5831602
0.9,0.12,0.19,-31.62,-34.91,-100.34,0.78,-0.57,0.06,61.58,-26.86,25.51,1742312084.696992
0.82,0.42,0.31,-37.6,-0.79,-25.45,0.81,-0.47,0.14,26.12,-18.31,22.58,1742312084.81314
0.82,0.45,0.29,-20.08,13.37,-25.21,0.8,-0.49,0.12,-0.61,-3.23,9.7,1742312084.925041
0.86,0.43,0.23,8.18,4.15,-2.56,0.85,-0.52,0.11,5.49,-9.58,5.13,1742312085.038979
0.85,0.47,0.24,0.67,7.26,-1.4,0.81,-0.56,0.16,-13.92,-9.64,9.03,1742312085.153517
0.87,0.45,0.21,8.12,-6.35,-2.38,0.86,-0.47,0.12,-3.3,-6.53,10.19,1742312085.267043
0.84,0.45,0.28,7.32,-8.79,-3.6,0.84,-0.49,0.18,-5.07,-2.44,9.83,1742312085.381046
0.84,0.43,0.29,8.54,-2.75,-4.76,0.85,-0.45,0.17,0.98,2.87,4.39,1742312085.4948149
0.85,0.41,0.29,1.71,-4.46,-2.44,0.86,-0.48,0.16,-1.1,2.5,-2.81,1742312085.608023
0.84,0.43,0.3,-6.35,1.71,-1.71,0.86,-0.44,0.15,-5.55,0.37,0.85,1742312085.721954
0.84,0.42,0.33,0.61,0.0,-2.08,0.87,-0.46,0.13,-2.5,3.17,1.77,1742312085.835926
0.84,0.42,0.33,3.11,-1.46,-1.46,0.87,-0.47,0.13,-3.17,-1.34,-0.24,1742312085.953009
0.84,0.4,0.33,6.41,-3.97,0.55,0.87,-0.47,0.13,-1.16,8.79,3.42,1742312086.063963
0.84,0.43,0.34,0.98,-0.49,0.12,0.87,-0.48,0.15,-2.44,1.71,2.2,1742312086.1779451
0.84,0.41,0.33,1.77,2.14,-2.14,0.86,-0.46,0.14,-6.77,2.44,3.6,1742312086.292709
0.84,0.42,0.32,-4.58,3.23,-1.04,0.88,-0.44,0.15,-4.39,1.89,3.66,1742312086.40592
0.86,0.42,0.31,0.06,1.83,-2.14,0.88,-0.44,0.14,-0.61,4.64,2.56,1742312086.5200682
0.85,0.41,0.33,1.65,-0.92,-2.32,0.89,-0.44,0.14,-7.08,0.43,2.62,1742312086.633919
0.85,0.41,0.31,5.43,4.58,-0.67,0.88,-0.43,0.14,1.46,-2.81,0.31,1742312086.747941
0.85,0.41,0.31,-0.73,2.93,-0.31,0.88,-0.44,0.15,1.59,-0.79,0.79,1742312086.8619351
0.86,0.39,0.3,0.43,2.56,-2.26,0.88,-0.43,0.16,-1.53,-0.43,-1.04,1742312086.976021
0.85,0.4,0.29,1.71,0.49,-0.37,0.87,-0.43,0.15,3.91,3.54,-0.92,1742312087.0929449
0.89,0.39,0.31,7.69,-2.56,-2.81,0.86,-0.38,0.09,21.85,8.3,-7.93,1742312087.2037828
0.93,0.33,0.36,11.47,22.58,-8.18,0.88,-0.36,0.03,45.41,-28.93,-29.66,1742312087.317033
0.67,0.48,0.26,12.51,-25.21,-11.72,1.02,-0.9,0.42,27.83,-12.51,3.85,1742312087.4335842
0.91,0.39,0.36,11.72,-73.3,-2.14,0.52,0.02,-0.58,-15.32,48.77,59.69,1742312087.544933
1.03,0.27,0.6,1.83,82.46,-19.29,0.74,-0.81,0.73,24.17,-43.4,-90.82,1742312087.658924
0.54,0.37,-0.08,26.61,4.27,13.31,1.45,-1.34,1.01,-15.01,36.5,9.28,1742312087.773607
0.64,0.42,-0.07,-13.73,-99.49,15.44,0.75,-0.39,-0.01,35.22,45.23,56.64,1742312087.8867872
1.4,0.25,1.07,16.11,42.3,-16.36,0.36,0.16,-0.45,-6.1,-49.38,-23.44,1742312088.0009909
0.83,0.13,0.19,3.78,46.81,-19.96,0.88,-0.65,-0.05,62.62,-37.78,-93.87,1742312088.11499
0.56,0.35,-0.1,23.62,-36.44,7.93,1.01,-0.89,0.39,-4.7,32.47,42.3,1742312088.228798
0.87,0.48,0.29,42.97,-101.87,6.29,0.38,-0.39,-0.27,78.25,10.93,-22.89,1742312088.343019
1.15,0.24,0.77,10.86,32.23,-12.45,0.54,-0.15,0.12,-26.12,-24.41,-38.45,1742312088.456963
0.71,0.23,0.25,-71.72,83.44,9.7,1.31,-1.2,0.55,57.56,-13.31,-42.79,1742312088.5748532
0.53,0.27,-0.3,40.83,-44.62,12.27,0.88,-0.59,0.36,-25.63,59.88,49.13,1742312088.684906
1.04,0.29,0.99,13.73,-108.4,-1.28,0.39,-0.17,-0.69,-24.48,-2.26,52.67,1742312088.7990131
0.91,0.28,0.56,-14.28,75.26,-26.98,0.73,-0.47,0.12,-102.11,3.6,-24.35,1742312088.9146209
0.58,0.14,0.12,-27.95,81.79,-0.43,1.51,-0.95,0.9,-44.25,-28.75,4.76,1742312089.026902
0.64,0.28,-0.07,25.33,-88.44,29.6,0.69,-0.45,0.08,-11.72,71.84,31.49,1742312089.1408
1.07,0.42,0.98,-27.22,-36.32,-14.77,0.43,-0.06,-0.47,-27.34,7.81,71.04,1742312089.255415
0.92,0.13,0.64,39.0,57.31,-19.65,1.09,-0.51,0.3,-45.84,-12.45,-44.37,1742312089.369087
0.61,0.38,-0.09,-2.01,3.23,-13.18,0.94,-0.24,-0.09,25.76,50.17,47.3,1742312089.482801
0.94,0.34,0.4,-25.45,11.47,25.76,0.89,-0.49,0.01,0.85,-12.33,-12.02,1742312089.5968761
0.88,0.38,0.22,1.83,1.71,-6.04,0.92,-0.47,0.1,2.08,-6.9,29.3,1742312089.715359
0.95,0.3,0.35,-18.55,-0.67,-10.38,0.9,-0.32,0.09,8.06,-3.3,3.85,1742312089.8248
0.87,0.32,0.3,8.61,-4.09,-4.33,0.92,-0.35,0.05,6.77,4.7,-1.46,1742312089.9386308
0.89,0.34,0.3,0.49,2.5,0.98,0.91,-0.36,0.05,-1.89,0.79,2.56,1742312090.0549939
0.88,0.32,0.26,1.16,-2.01,-1.95,0.92,-0.34,0.05,-6.29,-2.26,19.35,1742312090.1667972
0.9,0.3,0.36,3.66,-0.85,-6.35,0.95,-0.29,0.08,8.91,3.6,9.89,1742312090.2807748
0.89,0.3,0.32,6.29,0.61,3.91,0.95,-0.31,0.02,5.8,2.08,0.06,1742312090.395851
0.89,0.33,0.31,5.68,4.58,-1.34,0.94,-0.34,0.06,3.91,-2.5,1.95,1742312090.5076668
0.88,0.31,0.3,6.35,2.87,-5.0,0.94,-0.29,0.05,2.87,-0.98,4.21,1742312090.6216562
0.9,0.3,0.32,-9.09,2.38,0.31,0.94,-0.3,0.05,1.53,5.68,-0.12,1742312090.7364569
0.9,0.33,0.3,-8.73,-2.93,1.1,0.96,-0.29,0.02,3.97,8.73,1.04,1742312090.850081
0.89,0.33,0.3,3.17,-4.7,0.98,0.95,-0.3,0.0,6.41,5.07,3.36,1742312090.9625542
0.88,0.31,0.32,2.81,-0.06,-0.85,0.95,-0.29,0.01,2.75,0.43,1.71,1742312091.076076
0.9,0.33,0.3,-11.47,-0.24,-2.69,0.95,-0.29,0.01,-1.89,4.21,2.69,1742312091.1886551
0.91,0.29,0.3,-13.92,-6.65,-3.6,0.95,-0.25,0.05,-4.09,13.79,2.38,1742312091.30263
0.89,0.3,0.32,-6.84,-14.04,6.53,0.95,-0.27,-0.02,-5.62,21.48,-4.64,1742312091.416894
0.97,0.33,0.33,-1.53,-23.68,2.56,1.02,-0.32,0.19,-29.11,42.79,24.35,1742312091.535607
1.0,0.3,0.28,10.68,-82.28,-2.26,0.89,-0.19,-0.11,-11.78,119.93,29.24,1742312091.644816
0.67,0.36,0.49,52.86,-122.07,2.56,0.76,-0.3,-0.43,14.22,133.3,28.38,1742312091.758765
0.48,0.32,0.58,1.89,-133.91,-7.32,0.52,-0.2,-0.65,17.03,136.11,53.1,1742312091.876214
0.11,0.25,0.89,22.34,-125.31,-19.29,0.36,-0.07,-0.91,-0.79,97.29,35.34,1742312091.986758
-0.07,0.21,1.03,-7.45,-82.82,-20.81,0.35,0.01,-1.12,-5.98,60.49,27.4,1742312092.100866
-0.15,0.2,1.19,-6.84,-22.03,-22.64,0.34,0.09,-1.2,-9.4,-11.72,20.39,1742312092.21775
0.03,0.15,1.04,-15.38,12.57,-15.69,0.36,0.01,-0.85,-9.28,-9.95,-5.0,1742312092.328778
0.01,0.25,0.91,12.02,-9.03,8.12,0.33,-0.02,-0.96,8.85,8.79,-2.26,1742312092.442807
-0.01,0.19,0.99,-3.3,2.08,6.65,0.37,-0.02,-0.92,-3.54,-1.95,-11.05,1742312092.5571
0.05,0.27,0.97,-1.46,-0.06,5.07,0.37,-0.05,-0.98,1.28,3.05,-0.67,1742312092.676509
0.01,0.23,1.01,3.85,5.74,-2.14,0.37,-0.0,-0.96,5.92,-9.64,1.46,1742312092.7848058
0.04,0.19,0.98,4.7,7.69,-2.62,0.39,-0.02,-0.91,0.98,-10.38,-1.77,1742312092.898776
0.08,0.21,0.96,2.5,6.65,-1.83,0.4,-0.02,-0.92,3.48,-2.93,2.14,1742312093.016497
0.07,0.19,0.99,2.08,4.39,-1.77,0.42,-0.01,-0.89,4.7,-3.66,3.11,1742312093.126732
0.08,0.18,0.98,2.56,-0.06,-2.08,0.41,0.01,-0.92,3.42,-1.04,1.22,1742312093.2406201
0.08,0.19,0.99,0.18,1.95,-1.83,0.42,0.01,-0.92,0.18,-2.08,0.18,1742312093.35681
0.07,0.18,0.99,-0.61,4.09,-0.37,0.42,0.01,-0.92,-0.31,-5.55,-2.01,1742312093.4688718
0.09,0.2,0.98,-0.98,5.43,0.0,0.44,-0.01,-0.89,3.66,-3.05,-1.1,1742312093.582773
0.1,0.2,0.98,2.38,1.22,-0.24,0.44,-0.0,-0.91,3.48,-2.14,1.22,1742312093.698634
0.1,0.18,0.98,2.32,1.16,-1.77,0.44,0.02,-0.9,2.56,-1.1,1.53,1742312093.816236
0.1,0.17,0.99,2.08,0.18,-0.67,0.43,0.03,-0.91,0.98,-1.34,-0.24,1742312093.9245892
0.1,0.17,0.98,2.08,1.34,0.49,0.44,0.03,-0.9,2.14,0.12,0.55,1742312094.038343
0.11,0.18,0.98,2.2,0.0,0.61,0.44,0.03,-0.9,3.91,0.55,0.49,1742312094.1571882
0.11,0.17,0.98,0.67,0.31,-0.37,0.44,0.04,-0.9,4.21,1.28,0.31,1742312094.2653701
0.1,0.16,0.98,1.46,-0.18,0.31,0.44,0.03,-0.91,3.66,1.1,-0.12,1742312094.378415
0.1,0.18,0.98,-0.06,0.12,-0.67,0.44,0.04,-0.91,2.44,1.71,0.98,1742312094.496005
0.11,0.16,0.98,0.18,-0.06,-1.22,0.43,0.05,-0.91,1.71,1.4,0.43,1742312094.605346
0.1,0.14,0.99,-0.24,0.12,0.31,0.44,0.05,-0.91,-0.06,-0.49,-1.89,1742312094.719904
0.11,0.17,0.98,-2.56,1.89,0.49,0.44,0.04,-0.91,1.04,0.79,-0.43,1742312094.835958
0.11,0.18,0.97,0.98,0.18,-0.79,0.43,0.06,-0.92,5.25,2.44,1.77,1742312094.9463449
0.09,0.16,0.99,2.62,-0.18,0.12,0.43,0.06,-0.91,5.31,0.37,-0.92,1742312095.059447
0.11,0.17,0.98,0.12,1.22,-0.18,0.44,0.05,-0.91,3.54,3.36,1.1,1742312095.178787
0.11,0.16,1.0,2.32,0.31,-1.4,0.43,0.07,-0.91,0.61,-2.08,1.65,1742312095.286475
0.11,0.15,0.99,1.89,1.59,-2.56,0.43,0.07,-0.9,0.73,-1.46,1.4,1742312095.40044
0.11,0.15,0.99,1.28,0.85,-1.71,0.44,0.08,-0.9,2.2,-1.1,0.79,1742312095.515649
0.11,0.14,0.99,3.05,0.49,-1.1,0.44,0.09,-0.9,2.62,-0.61,0.73,1742312095.6283689
0.12,0.13,0.99,1.77,1.22,-0.73,0.44,0.09,-0.89,2.38,0.37,0.43,1742312095.7423308
0.12,0.14,0.99,0.73,-0.06,-0.43,0.44,0.09,-0.91,0.49,-0.37,1.53,1742312095.856417
0.12,0.13,0.99,1.59,0.24,-1.4,0.44,0.1,-0.9,0.0,0.12,1.46,1742312095.975071
0.12,0.13,0.99,0.61,0.12,-1.4,0.43,0.11,-0.9,0.43,0.37,0.85,1742312096.0833201
0.11,0.12,0.99,-0.92,-0.37,-0.24,0.44,0.1,-0.9,0.49,0.43,-0.43,1742312096.1964202
0.11,0.13,0.99,-0.24,-1.04,0.85,0.44,0.1,-0.9,0.49,0.31,-0.85,1742312096.314796
0.12,0.13,0.99,-1.22,-0.37,-0.18,0.44,0.09,-0.91,-0.55,0.92,-0.37,1742312096.424532
0.11,0.14,0.98,-0.24,-0.67,-0.79,0.43,0.1,-0.92,-0.43,-0.12,-0.37,1742312096.5386019
0.12,0.14,0.99,-0.18,0.18,-0.06,0.43,0.09,-0.9,-0.55,-0.24,0.0,1742312096.652472
0.12,0.14,0.98,-0.49,0.61,-1.04,0.43,0.1,-0.9,-0.06,-0.12,-0.24,1742312096.766609
0.12,0.14,0.99,-0.73,-0.06,-0.37,0.44,0.1,-0.91,-0.06,-0.73,-0.43,1742312096.8805811
0.13,0.14,0.98,-0.12,0.79,0.31,0.43,0.09,-0.91,0.43,0.31,-0.92,1742312096.9944088
0.12,0.14,0.98,-0.06,1.04,-0.12,0.43,0.09,-0.9,0.79,-0.12,0.49,1742312097.1084101
0.12,0.14,0.99,0.73,-0.06,-0.85,0.43,0.1,-0.91,2.62,-0.06,0.49,1742312097.222411
0.11,0.14,0.99,0.61,0.18,-0.43,0.44,0.12,-0.91,0.31,-2.87,-1.53,1742312097.3365078
0.11,0.12,0.99,-2.87,3.91,1.4,0.44,0.1,-0.9,-4.64,-5.25,-5.98,1742312097.455266
0.15,0.18,0.97,-2.93,1.1,1.34,0.45,0.08,-0.92,5.49,2.38,3.36,1742312097.564196
0.11,0.15,1.0,2.56,0.55,-2.93,0.45,0.11,-0.88,2.99,-1.95,2.62,1742312097.677393
0.13,0.13,0.98,2.01,1.46,-1.89,0.45,0.11,-0.89,-1.28,-2.5,-1.16,1742312097.7953322
0.14,0.14,0.99,-3.42,2.56,0.18,0.47,0.11,-0.92,-8.3,-8.91,-2.93,1742312097.905505
0.08,0.12,1.05,-6.35,16.17,1.95,0.64,-0.01,-0.74,-84.35,-23.38,-2.32,1742312098.019659
-0.09,0.27,0.71,10.31,-36.44,10.44,0.12,0.09,-1.39,-50.84,7.39,-19.29,1742312098.133404
0.34,0.27,1.26,-37.05,20.51,-4.7,0.28,-0.12,-1.02,-26.92,-10.13,-40.83,1742312098.247565
0.08,0.18,0.95,-27.47,31.13,11.78,1.29,-0.73,-0.13,-23.25,-18.07,-69.58,1742312098.361564
0.25,0.37,0.43,-7.39,-25.76,-22.83,0.83,-0.38,-0.54,4.52,60.0,42.24,1742312098.4752882
0.03,0.23,1.02,-1.4,-114.75,-30.76,-0.21,0.17,-1.41,54.69,84.59,39.61,1742312098.5892868
0.04,-0.02,1.62,-18.43,66.77,-15.44,0.3,-0.19,-0.71,-91.25,-31.01,-57.86,1742312098.703567
0.01,0.3,0.71,-48.89,16.85,43.58,1.73,-1.09,0.58,-117.55,24.54,5.98,1742312098.8173451
0.16,0.33,0.92,41.75,17.46,2.2,0.32,-0.29,-0.84,132.93,140.87,-37.72,1742312098.935804
0.03,0.26,1.25,27.53,-75.56,-10.8,-0.35,0.54,-1.28,-10.07,42.42,47.55,1742312099.045408
0.02,0.09,1.05,-30.03,-12.08,14.83,0.25,0.31,-1.28,17.03,-114.26,-58.29,1742312099.159474
-0.43,0.1,0.9,30.4,22.64,34.06,0.84,-0.12,-0.92,3.6,18.19,-6.47,1742312099.275647
-0.15,0.16,0.84,-22.22,-116.39,-3.97,-0.68,0.2,-1.63,23.5,51.03,50.48,1742312099.387265
-0.02,-0.01,1.38,-38.88,29.11,-15.5,0.4,-0.09,-0.55,-127.14,-86.98,-45.35,1742312099.501546
-0.15,0.3,0.7,-5.62,72.57,25.88,1.38,-0.88,0.02,-33.75,55.85,53.34,1742312099.6154702
-0.19,0.22,0.9,24.29,-7.39,2.01,0.02,-0.02,-1.08,131.29,97.84,-13.31,1742312099.735491
0.12,0.0,1.13,49.01,7.93,6.53,-0.06,0.36,-1.21,-11.9,-54.99,-20.51,1742312099.843499
-0.1,0.07,1.08,-48.22,10.62,7.08,0.76,0.06,-1.74,-55.11,-43.58,64.33,1742312099.9572558
-0.33,0.29,1.03,-13.06,-5.92,-5.98,0.42,-0.17,-0.95,48.52,-6.71,64.15,1742312100.071326
0.09,0.12,0.95,42.18,25.63,-33.63,0.21,-0.1,-1.15,-14.47,6.41,40.04,1742312100.185259
-0.04,0.24,0.95,1.34,-4.7,-23.93,0.42,-0.11,-0.89,8.42,-1.65,8.24,1742312100.299385
0.01,0.07,0.99,20.08,14.65,-4.58,0.36,-0.01,-0.93,-4.15,4.33,-9.09,1742312100.415411
0.0,0.14,1.01,4.82,6.23,13.37,0.35,-0.16,-0.93,0.61,5.49,-8.12,1742312100.527275
0.06,0.22,0.98,-5.62,-1.28,1.65,0.36,-0.13,-0.93,16.91,14.04,6.96,1742312100.641293
0.03,0.16,0.96,11.23,-7.39,-1.95,0.34,-0.07,-0.96,3.6,8.06,12.21,1742312100.7551181
0.02,0.13,1.0,-6.96,-1.1,-7.57,0.32,-0.02,-1.01,-9.34,-0.24,5.25,1742312100.869333
-0.06,0.08,1.06,-19.65,14.53,1.1,0.21,0.21,-1.82,-73.36,-92.35,-71.72,1742312100.983299
-0.58,0.02,1.56,-153.99,232.91,6.16,0.33,-0.11,-0.85,-42.97,-399.96,-72.57,1742312101.097354
0.35,0.47,0.31,13.49,356.26,35.03,0.44,-1.02,-0.18,-107.3,-276.25,-8.24,1742312101.2168891
0.42,0.79,0.2,-74.58,225.77,-35.1,-0.18,-0.23,0.08,-47.97,-341.92,86.98,1742312101.3262799
0.44,0.2,-0.79,-23.13,255.0,-84.29,-0.22,-0.03,1.37,-42.66,-93.14,90.03,1742312101.440313
0.96,0.15,-1.13,49.26,62.99,-33.57,0.31,-0.1,1.16,57.01,33.57,48.34,1742312101.559948
0.85,0.06,-0.77,51.03,-4.21,-9.09,0.28,-0.18,1.01,27.16,3.6,-0.73,1742312101.667135
0.7,0.21,-0.71,11.47,3.42,4.76,0.25,-0.33,0.84,-4.52,-4.7,-9.52,1742312101.7812748
0.64,0.3,-0.62,-11.05,4.21,-1.71,0.27,-0.3,0.83,-0.12,-12.33,-3.66,1742312101.895885
0.67,0.31,-0.61,-0.67,6.65,-2.81,0.28,-0.39,0.9,20.02,-18.86,4.64,1742312102.009095
0.72,0.35,-0.69,20.57,8.3,-15.62,0.26,-0.4,0.87,0.61,-7.26,22.34,1742312102.123255
0.73,0.26,-0.65,8.61,-0.31,-41.44,0.3,-0.1,0.94,-11.29,-0.61,30.03,1742312102.237178
0.77,0.03,-0.64,-2.44,1.04,-25.21,0.3,-0.14,0.94,1.1,17.64,-6.41,1742312102.355325
0.74,0.2,-0.62,8.61,-9.58,10.86,0.33,-0.33,0.87,-3.3,6.71,-2.81,1742312102.465219
0.73,0.25,-0.61,-6.9,-5.74,-5.25,0.36,-0.22,0.85,-7.39,4.7,5.43,1742312102.579072
0.73,0.22,-0.58,6.59,-4.58,-5.98,0.29,-0.36,0.89,8.48,-4.15,9.7,1742312102.6948311
0.81,0.09,-0.67,-6.71,-5.49,-24.72,0.41,-0.06,0.92,-18.37,15.81,-2.62,1742312102.807169
0.8,0.11,-0.56,5.8,-0.06,3.66,0.37,-0.29,0.89,10.19,8.12,-21.3,1742312102.9210958
0.79,0.3,-0.61,10.19,-10.8,12.21,0.4,-0.29,0.88,-17.21,22.77,-9.28,1742312103.035381
0.76,0.23,-0.55,10.07,-10.38,0.67,0.43,-0.22,0.8,1.77,16.3,-2.08,1742312103.1490922
0.79,0.15,-0.55,-18.55,1.04,0.55,0.42,-0.19,0.81,20.69,-7.26,-20.57,1742312103.263165
0.83,0.11,-0.62,-9.89,3.6,-0.55,0.34,-0.03,0.83,-8.79,-11.72,-34.55,1742312103.377125
0.92,0.18,-0.7,-3.48,35.95,26.55,0.74,-0.51,0.95,43.03,16.97,-51.7,1742312103.4911108
0.53,0.19,-0.7,-14.77,-81.91,38.94,0.54,-0.42,1.04,-19.53,36.01,-15.75,1742312103.605078
0.68,0.31,-0.54,-40.89,-69.82,51.21,0.13,-0.27,0.59,-0.37,0.06,-9.46,1742312103.719054
1.09,0.69,0.26,-2.08,12.51,8.91,0.17,-0.09,0.23,-61.16,8.18,3.78,1742312103.835032
0.8,0.22,-0.55,-0.67,105.1,-65.86,0.97,-0.51,1.53,-1.95,36.74,26.55,1742312103.9470038
0.49,-0.1,-0.86,17.46,-62.62,38.94,0.5,-0.18,0.63,14.16,18.86,-19.47,1742312104.061111
1.02,0.52,-0.06,-20.94,-47.73,76.9,0.01,-0.55,0.58,19.78,7.69,27.47,1742312104.175392
1.06,0.37,-0.03,37.48,101.2,-37.05,0.66,0.49,-0.03,136.9,-117.31,-24.9,1742312104.288085
0.28,0.29,-0.99,12.45,33.14,11.66,0.51,-0.49,1.06,51.88,3.78,-45.72,1742312104.401983
0.75,0.57,-0.52,-51.27,-94.18,78.06,-0.1,-0.54,0.19,7.14,-5.55,-19.04,1742312104.516143
1.05,0.57,-0.02,56.52,51.82,-47.0,0.39,-0.4,0.16,-5.92,79.59,39.43,1742312104.6344378
0.56,0.38,-0.75,-11.47,37.11,-48.22,0.91,-0.2,0.84,-1.28,-0.73,-9.58,1742312104.7440488
0.65,0.29,-0.55,-39.37,-105.9,65.43,0.09,-0.58,0.34,39.37,0.18,-4.27,1742312104.858021
0.96,0.73,0.17,-40.04,-45.53,21.12,0.14,-0.3,0.34,-70.25,9.22,25.94,1742312104.971835
0.73,0.36,-0.61,-21.42,67.5,-38.15,0.83,-0.71,1.62,10.68,-28.02,6.47,1742312105.08596
0.62,0.1,-0.89,17.03,-10.74,4.15,0.37,-0.48,1.05,108.95,-4.76,-21.3,1742312105.1999528
0.89,0.68,-0.35,38.76,-29.24,33.33,0.06,-0.65,0.41,-85.45,21.73,60.18,1742312105.316415
0.94,0.68,-0.01,36.32,56.52,-27.59,0.56,-0.92,0.45,-79.16,-30.03,15.26,1742312105.427949
0.46,0.27,-0.84,-62.26,17.52,2.62,0.75,-0.72,0.93,27.04,-19.23,-19.41,1742312105.5419352
0.63,0.27,-0.75,-10.5,-98.94,52.73,-0.0,-0.63,0.27,19.04,-54.93,-25.02,1742312105.6565492
1.11,0.7,0.38,68.85,23.56,-38.64,0.25,-0.28,0.62,-28.69,-47.3,18.68,1742312105.7765062
0.6,0.61,-0.47,-53.1,76.72,-38.21,0.71,-0.61,1.16,37.78,26.31,-25.76,1742312105.8838232
0.53,0.18,-0.95,11.78,-21.12,-0.31,0.39,-0.43,0.54,60.42,75.07,-2.38,1742312105.997828
0.96,0.72,0.26,-10.13,-35.34,26.86,0.11,-0.55,0.22,-79.22,23.07,93.69,1742312106.116891
0.98,0.37,0.09,60.97,128.66,-70.92,0.83,0.16,1.39,-103.21,-24.9,16.91,1742312106.225823
0.42,0.05,-1.16,41.44,66.28,-81.3,0.39,-0.29,0.89,57.25,-0.92,-10.01,1742312106.339006
0.83,0.37,-0.46,38.82,-47.42,6.35,0.37,-0.31,0.43,3.54,20.87,3.42,1742312106.456207
0.98,0.31,-0.24,74.4,23.93,-35.95,0.46,-0.55,0.88,31.01,-28.93,-43.95,1742312106.5659258
0.62,0.23,-0.78,-19.71,4.03,15.08,0.45,-0.45,0.66,5.43,15.99,5.37,1742312106.679778
0.85,0.31,-0.37,6.71,-3.05,-13.06,0.5,-0.4,0.78,1.71,3.05,-1.95,1742312106.796936
0.82,0.3,-0.48,-1.71,3.11,1.46,0.46,-0.44,0.72,2.32,1.77,1.04,1742312106.906667
0.79,0.33,-0.48,3.23,-1.04,-0.85,0.47,-0.4,0.75,2.99,-3.23,2.62,1742312107.0197928
0.8,0.29,-0.49,-0.67,4.64,0.12,0.46,-0.4,0.79,0.55,-2.62,-3.48,1742312107.137625
0.81,0.28,-0.52,-2.08,-0.24,7.75,0.47,-0.42,0.76,-0.73,2.26,-10.44,1742312107.247909
0.79,0.32,-0.5,-6.29,-0.92,9.77,0.47,-0.45,0.76,-2.14,1.34,-9.34,1742312107.3619251
0.79,0.35,-0.49,-3.66,0.67,5.92,0.48,-0.42,0.74,-4.21,-2.62,-5.55,1742312107.477549
0.79,0.31,-0.46,-1.77,6.96,3.78,0.58,-0.32,0.7,-16.05,-11.17,-20.75,1742312107.598015
0.82,0.14,-0.39,-31.07,32.17,26.18,0.5,-0.24,0.53,-41.99,-45.17,-71.23,1742312107.703979
0.59,0.24,-0.39,-78.8,86.3,52.73,0.08,-0.27,0.78,-43.03,-64.64,-96.31,1742312107.818635
0.23,0.38,-0.78,-63.48,68.97,73.3,-0.21,-0.49,0.86,19.53,-89.29,-64.76,1742312107.9378319
0.15,0.37,-1.03,-35.89,104.49,36.07,-0.28,-0.35,1.15,-6.23,-44.49,-31.74,1742312108.046058
0.16,0.36,-1.26,-24.6,45.47,7.87,-0.32,-0.42,1.12,0.18,-14.71,4.82,1742312108.159889
0.15,0.26,-1.14,-2.99,-1.89,-8.67,-0.23,-0.32,0.87,4.64,6.77,10.56,1742312108.27717
0.08,0.23,-0.95,0.67,-4.52,-7.63,-0.23,-0.36,0.83,7.75,5.8,7.93,1742312108.387755
0.13,0.28,-0.95,9.58,-6.04,-5.8,-0.27,-0.42,0.84,68.05,12.57,-0.92,1742312108.501842
0.43,0.44,-0.65,-78.31,-34.61,28.32,0.08,-0.6,1.18,72.81,-15.32,-1.04,1742312108.6178198
0.06,-0.21,-0.89,77.64,-0.49,6.04,-0.08,-0.47,0.78,85.39,-17.7,-52.25,1742312108.738145
0.13,0.25,-1.04,8.67,-13.61,45.23,-0.57,-0.28,0.63,74.83,-40.59,-33.08,1742312108.843909
0.41,0.64,-0.61,22.28,29.54,-18.98,-0.65,-0.65,0.26,20.14,-97.53,11.23,1742312108.9585469
0.06,0.16,-1.03,-49.56,68.3,-59.27,0.16,-0.08,1.27,-39.86,46.81,-4.76,1742312109.078442
0.02,-0.02,-1.11,16.17,-53.34,45.47,-0.4,-0.4,0.94,40.28,52.86,5.68,1742312109.185738
0.2,0.5,-0.61,9.4,-63.29,45.23,-0.67,-0.73,0.48,-5.55,12.94,68.54,1742312109.2997482
0.47,0.56,-0.37,35.34,46.26,-64.09,0.09,-0.42,1.22,-33.69,7.51,39.12,1742312109.4186811
-0.29,-0.15,-1.61,21.61,14.77,-23.8,-0.11,-0.53,0.87,48.4,16.17,-33.33,1742312109.527863
0.16,0.68,-0.76,-36.74,-61.95,64.33,-0.38,-0.67,0.28,16.97,-63.05,26.43,1742312109.641728
0.21,0.35,-0.89,28.5,40.47,-45.47,-0.15,-0.4,0.76,1.77,20.02,-1.77,1742312109.758064
0.17,0.41,-0.84,7.81,-1.16,16.54,-0.28,-0.6,0.72,1.59,-2.08,-1.46,1742312109.877789
0.17,0.5,-0.89,5.8,10.38,7.93,-0.25,-0.56,0.75,-8.61,12.33,-4.09,1742312109.9838111
0.13,0.42,-0.9,-18.25,15.81,1.28,-0.26,-0.49,0.75,-5.8,-1.16,-6.53,1742312110.0986948
0.11,0.39,-0.91,-12.39,15.99,6.29,-0.28,-0.49,0.77,2.5,-4.39,3.6,1742312110.2181818
0.07,0.41,-0.85,13.92,21.42,-1.22,-0.05,-0.02,0.69,29.66,1.83,-24.23,1742312110.325721
0.07,-0.19,-0.56,30.64,59.14,125.43,-0.81,-0.51,0.2,116.7,-86.91,-200.38,1742312110.4397912
-0.89,0.31,-0.92,-12.21,110.11,212.16,-0.95,-0.55,0.73,10.56,8.3,-122.56,1742312110.5575948
-0.7,0.13,-1.11,-35.71,59.63,115.66,-0.9,-0.3,0.34,30.15,-23.68,-107.85,1742312110.667826
-0.87,-0.01,-0.89,3.11,75.93,76.35,-1.11,-0.53,0.35,55.97,-32.23,-24.78,1742312110.7817879
-0.83,0.09,-0.9,38.7,40.59,12.02,-0.92,-0.3,0.37,13.67,9.83,16.66,1742312110.897978
-0.73,-0.08,-0.72,15.01,-5.55,-13.31,-0.88,-0.2,0.27,-5.0,3.42,10.5,1742312111.017923
-0.71,-0.07,-0.65,-2.2,-2.26,-7.93,-0.88,-0.23,0.33,-5.0,0.79,2.44,1742312111.123706
-0.71,-0.06,-0.74,-1.16,-0.37,-5.86,-0.88,-0.25,0.33,1.22,3.66,5.86,1742312111.238824
-0.71,-0.06,-0.72,5.68,-5.19,-5.37,-0.87,-0.22,0.33,7.2,0.92,3.42,1742312111.358032
-0.69,-0.06,-0.72,6.59,-0.67,-1.46,-0.87,-0.26,0.34,2.38,3.3,0.79,1742312111.467577
-0.69,-0.02,-0.72,3.23,-1.4,0.0,-0.88,-0.26,0.33,2.01,1.4,2.14,1742312111.581589
-0.7,-0.01,-0.71,1.83,-0.31,-2.5,-0.87,-0.28,0.35,6.77,-2.5,5.37,1742312111.6972458
-0.68,-0.01,-0.71,2.44,-2.26,-2.69,-0.87,-0.27,0.34,0.67,2.32,1.71,1742312111.818041
-0.69,-0.01,-0.72,0.24,-2.08,-1.46,-0.86,-0.25,0.34,1.1,2.26,0.31,1742312111.923457
-0.68,-0.01,-0.73,0.06,-0.85,0.31,-0.88,-0.29,0.36,1.83,1.71,-0.31,1742312112.038786
-0.69,0.01,-0.74,-3.78,-3.17,0.12,-0.86,-0.28,0.34,-1.59,1.83,0.49,1742312112.15779
-0.68,0.01,-0.73,-2.5,-1.1,-2.14,-0.85,-0.26,0.34,-0.85,1.83,0.49,1742312112.265546
-0.67,-0.01,-0.72,0.79,1.65,-2.93,-0.87,-0.3,0.35,-0.49,-2.56,-0.92,1742312112.379761
-0.68,0.03,-0.73,-1.1,0.79,-2.26,-0.88,-0.29,0.35,1.22,0.43,2.5,1742312112.4975
-0.67,-0.0,-0.74,1.83,-0.06,-3.42,-0.86,-0.28,0.35,-0.49,0.12,0.73,1742312112.607531
-0.68,0.01,-0.74,-0.61,0.55,-1.1,-0.87,-0.28,0.36,-1.28,1.34,0.67,1742312112.721549
-0.69,0.01,-0.74,0.92,0.73,-1.89,-0.85,-0.26,0.35,0.73,3.3,-2.69,1742312112.837256
-0.68,-0.01,-0.73,0.12,-0.67,1.77,-0.88,-0.28,0.37,1.65,1.89,-1.34,1742312112.956655
-0.68,0.01,-0.75,1.95,-3.3,1.65,-0.85,-0.26,0.37,2.38,3.85,-0.55,1742312113.063584
-0.68,0.0,-0.74,5.31,-1.71,1.95,-0.86,-0.29,0.34,5.43,2.26,0.31,1742312113.178268
-0.68,0.03,-0.73,5.62,-0.49,1.28,-0.87,-0.28,0.36,5.37,-0.24,0.06,1742312113.296618
-0.68,0.02,-0.76,6.35,0.85,0.85,-0.96,-0.14,0.39,19.65,0.85,-17.03,1742312113.4055371
-0.77,-0.13,-0.84,29.6,15.93,18.07,-0.94,-0.31,0.43,40.04,-16.54,-18.62,1742312113.519638
-0.65,0.15,-0.79,44.74,5.55,20.63,-0.88,-0.29,0.28,52.73,15.99,7.2,1742312113.636587
-0.68,0.05,-0.67,71.9,-12.27,4.21,-0.85,-0.16,0.3,53.89,6.65,-4.52,1742312113.7475252
-0.62,0.11,-0.65,65.31,-7.14,28.87,-0.87,-0.33,0.34,111.21,-6.47,-2.69,1742312113.861642
-0.63,0.22,-0.7,97.47,3.05,25.09,-0.85,-0.48,0.23,130.49,10.44,19.41,1742312113.977073
-0.71,0.32,-0.61,92.04,5.31,20.2,-0.73,-0.38,0.05,141.97,50.66,7.81,1742312114.096711
-0.67,0.35,-0.51,90.52,-6.71,32.53,-0.72,-0.42,-0.14,46.39,50.35,-64.58,1742312114.203636
-0.67,0.52,-0.35,56.15,-22.83,74.71,-0.84,-0.52,-0.05,43.21,-23.93,-60.79,1742312114.317636
-0.99,0.41,-0.32,52.25,21.85,55.05,-0.96,-0.4,-0.06,32.1,-42.18,-31.37,1742312114.444824
-0.86,0.31,-0.36,22.52,21.24,23.8,-1.02,-0.41,-0.06,2.87,-12.51,-26.86,1742312114.558484
-0.92,0.37,-0.38,-6.1,13.43,16.3,-0.97,-0.3,-0.08,0.92,-7.2,-10.62,1742312114.659889
-0.89,0.28,-0.31,-5.74,3.97,9.34,-0.94,-0.2,-0.09,4.33,-3.97,-16.85,1742312114.777591
-0.88,0.23,-0.32,-2.75,3.54,17.4,-0.94,-0.19,-0.09,9.77,-3.36,-21.67,1742312114.887626
-0.89,0.21,-0.33,6.65,1.95,24.29,-1.0,-0.17,-0.11,13.18,2.44,-24.6,1742312115.001513
-0.94,0.15,-0.35,3.91,-3.91,27.16,-1.0,-0.16,-0.03,16.78,-2.08,-17.52,1742312115.116853
-0.94,0.18,-0.4,2.69,0.73,20.63,-0.99,-0.13,-0.06,19.96,1.4,-11.78,1742312115.22961
-0.93,0.1,-0.35,8.3,-6.84,16.05,-0.96,-0.07,-0.13,21.42,-2.14,-12.76,1742312115.343607
-0.94,0.09,-0.29,4.03,-3.36,13.67,-0.97,-0.09,-0.18,0.31,-4.03,-10.13,1742312115.457671
-0.96,0.1,-0.28,-3.42,2.08,11.05,-0.99,-0.04,-0.12,16.72,-21.36,-4.39,1742312115.5758562
-0.96,0.1,-0.32,22.52,10.44,5.25,-1.01,-0.09,-0.17,3.3,-9.4,2.38,1742312115.6854799
-0.98,0.14,-0.33,4.39,10.86,-2.26,-0.98,-0.06,-0.17,4.21,-8.24,2.93,1742312115.799467
-0.94,0.08,-0.29,-0.31,4.39,-3.6,-0.97,-0.01,-0.14,7.69,-3.6,-4.46,1742312115.916536
-0.92,0.06,-0.29,-2.08,1.59,2.2,-0.97,-0.07,-0.21,3.05,-2.2,-3.42,1742312116.027622
-0.94,0.08,-0.24,2.93,2.2,0.92,-0.98,-0.06,-0.19,8.79,-3.54,-2.32,1742312116.141608
-0.95,0.12,-0.2,0.79,10.74,2.62,-0.98,-0.09,-0.21,-4.33,-2.5,-0.12,1742312116.256067
-0.98,0.1,-0.25,-0.79,8.48,-3.97,-0.96,-0.02,-0.2,-0.92,0.85,4.88,1742312116.376008
-0.96,0.07,-0.24,-3.42,2.2,-1.65,-0.95,-0.03,-0.19,2.08,2.08,-1.1,1742312116.483469
-0.95,0.07,-0.23,-0.37,-0.18,3.3,-0.97,-0.05,-0.2,3.48,2.62,-1.89,1742312116.5974479
-0.97,0.07,-0.24,2.75,0.06,1.04,-0.97,-0.05,-0.2,1.71,0.61,-0.61,1742312116.714549
-0.97,0.07,-0.22,0.67,-0.18,0.98,-0.96,-0.04,-0.2,0.49,-0.37,-0.43,1742312116.8255901
-0.97,0.08,-0.22,2.32,2.5,0.43,-0.96,-0.03,-0.2,2.38,-1.4,0.06,1742312116.939446
-0.96,0.08,-0.22,6.1,2.75,0.0,-0.98,-0.05,-0.22,3.85,0.18,-0.67,1742312117.055142
-0.98,0.09,-0.23,4.21,1.16,-0.55,-0.97,-0.06,-0.21,0.79,2.56,5.92,1742312117.167349
-0.98,0.11,-0.22,6.59,-0.18,-6.9,-0.96,-0.06,-0.2,-3.6,6.04,7.32,1742312117.281427
-0.96,0.1,-0.21,1.53,-1.77,-5.49,-0.96,-0.05,-0.2,1.04,2.69,3.66,1742312117.395328
-0.96,0.1,-0.21,1.77,1.28,-1.46,-0.96,-0.07,-0.2,1.53,2.26,1.04,1742312117.515112
-0.96,0.1,-0.2,-0.85,1.1,-0.49,-0.95,-0.07,-0.2,21.61,-11.84,0.85,1742312117.623462
-1.0,0.18,-0.2,30.58,22.4,-10.62,-0.97,-0.14,-0.25,54.02,-23.86,10.38,1742312117.7374249
-1.05,0.27,-0.2,39.49,27.1,-13.73,-1.02,-0.22,-0.33,88.26,-57.5,50.11,1742312117.854785
-1.07,0.41,-0.18,93.63,43.64,-49.19,-1.04,-0.42,-0.45,144.59,-83.5,92.16,1742312117.965446
-1.04,0.45,-0.1,176.88,39.12,-81.18,-0.85,-0.27,-0.61,116.39,-90.94,117.37,1742312118.079457
-0.94,0.4,0.14,173.46,36.32,-103.88,-0.6,-0.07,-0.59,120.42,-82.09,89.72,1742312118.194853
-0.61,0.25,0.26,171.45,25.51,-72.69,-0.54,-0.04,-0.57,108.76,13.49,59.75,1742312118.3073559
-0.72,0.26,0.38,98.27,-52.49,-20.2,-0.53,0.19,-0.82,70.62,26.0,53.96,1742312118.42136
-0.81,0.11,0.52,42.6,-23.25,-22.22,-0.51,0.17,-0.83,72.75,9.83,36.01,1742312118.5352771
-0.81,0.06,0.59,65.92,-28.14,-4.39,-0.52,0.22,-0.93,46.39,1.28,40.34,1742312118.6546402
-0.87,0.11,0.65,45.1,-13.18,-18.98,-0.56,0.33,-0.91,28.63,-14.83,37.66,1742312118.7633312
-0.81,0.06,0.61,39.98,-0.79,-31.74,-0.5,0.25,-0.82,26.92,11.66,17.27,1742312118.877239
-0.79,0.03,0.58,16.6,-9.28,-2.56,-0.49,0.15,-0.81,16.72,6.77,2.75,1742312118.9949288
-0.81,0.1,0.55,1.89,-7.14,7.63,-0.56,0.26,-0.81,-4.58,1.83,-4.76,1742312119.105289
-0.82,0.15,0.56,-2.87,-1.65,7.57,-0.58,0.24,-0.82,-1.77,7.63,-7.2,1742312119.219431
-0.84,0.16,0.57,-4.94,-7.14,6.9,-0.58,0.23,-0.81,-8.0,9.46,-5.98,1742312119.334495
-0.84,0.15,0.54,-10.62,-4.09,4.52,-0.58,0.21,-0.8,-0.98,8.24,-4.27,1742312119.44742
-0.84,0.17,0.53,-5.19,-1.65,4.52,-0.6,0.18,-0.78,-3.11,5.49,-3.11,1742312119.56131
-0.83,0.17,0.51,-3.85,-3.05,1.34,-0.62,0.16,-0.77,-3.17,6.71,1.95,1742312119.675199
-0.84,0.16,0.52,-3.3,-6.16,-0.55,-0.62,0.21,-0.78,1.83,5.74,2.26,1742312119.790955
-0.86,0.14,0.52,-2.75,-2.26,-1.71,-0.61,0.25,-0.76,6.77,7.39,-0.98,1742312119.9032052
-0.84,0.12,0.49,-1.34,-3.23,3.05,-0.62,0.23,-0.75,3.3,4.7,-2.14,1742312120.017238
-0.85,0.13,0.49,-2.32,-3.6,4.39,-0.63,0.23,-0.75,-3.85,1.89,-2.32,1742312120.133554
-0.87,0.15,0.49,-3.42,-4.15,2.44,-0.65,0.26,-0.75,-0.12,3.78,-0.85,1742312120.2452722
-0.87,0.13,0.5,-2.87,-2.08,0.85,-0.63,0.25,-0.75,-4.09,1.65,-0.18,1742312120.359272
-0.87,0.13,0.49,-3.66,-0.31,0.49,-0.64,0.22,-0.74,-9.03,-1.95,-0.79,1742312120.473941
-0.85,0.14,0.47,-3.23,1.89,0.73,-0.64,0.22,-0.73,-1.83,0.67,-3.11,1742312120.58729
-0.85,0.13,0.47,0.06,0.92,2.44,-0.63,0.23,-0.76,-3.3,1.95,-0.92,1742312120.701292
-0.85,0.14,0.48,-2.93,2.2,-0.06,-0.63,0.19,-0.76,-15.32,-0.61,-1.83,1742312120.8153212
-0.86,0.17,0.45,-12.15,1.83,-1.83,-0.65,0.14,-0.75,-21.55,-1.28,-3.6,1742312120.934056
-0.92,0.2,0.48,-13.79,8.06,-11.47,-0.63,0.15,-0.81,-77.03,-20.57,2.14,1742312121.043285
-0.8,0.15,0.54,-54.44,12.82,-39.55,-0.65,0.01,-0.85,-98.14,-41.44,-7.14,1742312121.1572638
-0.92,0.36,0.48,-63.72,42.91,-48.4,-0.73,-0.22,-1.04,-213.01,-69.15,7.63,1742312121.273849
-0.89,0.44,0.55,-89.11,67.5,-95.52,-0.62,-0.68,-0.91,-246.46,-136.05,46.81,1742312121.385281
-0.67,0.55,0.55,-62.93,64.76,-139.34,0.08,-0.39,-0.36,-112.06,-140.69,72.94,1742312121.499385
0.32,0.79,0.1,-11.96,239.87,-54.99,0.19,-0.63,-0.18,-45.53,-106.99,23.5,1742312121.614464
0.21,0.57,0.46,-29.85,33.33,-23.01,-0.11,-1.4,-0.0,189.88,-68.6,-30.94,1742312121.727255
-0.12,1.12,0.61,-146.18,75.26,-35.83,0.03,-0.61,-0.38,223.27,59.2,153.5,1742312121.8411992
0.04,0.34,-0.36,-220.7,244.32,-65.92,0.08,1.05,-1.01,110.53,1.16,43.33,1742312121.954868
0.01,-0.19,-1.75,-149.17,18.74,-0.43,-0.33,-0.47,-0.93,-9.34,61.52,-291.63,1742312122.0682502
-0.17,0.45,-0.91,-27.95,-98.94,250.73,-0.37,-1.31,-1.3,62.56,17.21,24.72,1742312122.18207
-0.31,1.4,-0.74,-72.33,-8.48,-32.96,-0.16,-0.3,-1.0,17.27,-34.73,144.29,1742312122.296157
-0.03,0.29,-0.94,16.42,17.03,-127.87,0.11,0.81,-0.74,0.18,1.71,44.49,1742312122.4144409
0.27,-0.21,-0.91,-1.28,8.85,-7.51,-0.13,0.26,-0.89,-43.7,67.75,-162.23,1742312122.523233
-0.08,0.18,-1.02,6.47,-19.84,166.99,-0.46,-1.17,-1.44,22.28,24.05,-91.25,1742312122.637125
-0.41,1.36,-0.8,-47.18,-17.76,67.38,-0.35,-0.34,-1.09,9.46,-45.59,137.27,1742312122.753643
-0.18,0.58,-0.84,46.02,5.49,-134.89,0.01,0.29,-0.72,17.27,-29.85,120.36,1742312122.8649359
0.19,-0.07,-0.85,-19.29,11.29,-69.03,-0.05,0.73,-0.85,-15.14,55.97,-113.53,1742312122.9791129
0.02,-0.0,-1.1,-38.94,18.07,125.79,-0.38,-0.99,-1.18,8.97,-12.76,-206.3,1742312123.094768
-0.38,1.14,-0.85,-56.88,-51.15,113.71,-0.3,-0.4,-1.11,-25.76,-27.83,154.97,1742312123.207211
-0.23,0.7,-0.89,59.94,23.86,-120.24,-0.02,0.14,-0.91,-7.45,-35.89,129.52,1742312123.32113
0.03,0.16,-0.9,18.31,23.38,-106.93,0.18,0.62,-0.73,6.84,-12.15,12.39,1742312123.4352052
0.16,-0.04,-0.86,0.18,21.61,20.45,-0.18,0.28,-0.99,-4.39,31.07,-208.44,1742312123.554184
-0.12,0.24,-1.04,13.55,-0.61,142.52,-0.33,-1.62,-1.34,34.06,1.89,-54.38,1742312123.663143
-0.44,1.45,-0.78,51.45,-28.44,-26.86,-0.11,-0.24,-1.04,0.31,-41.14,143.43,1742312123.777101
-0.09,0.62,-0.69,20.87,22.64,-123.47,0.13,0.42,-0.74,20.57,-31.62,117.43,1742312123.89506
0.14,0.05,-0.82,-44.37,29.72,-76.78,0.14,0.76,-0.78,6.1,50.72,-56.09,1742312124.004902
0.09,-0.08,-1.05,-18.92,10.74,86.49,-0.3,-0.29,-1.2,-27.89,40.83,-247.01,1742312124.1191921
-0.28,0.74,-0.94,0.98,-59.63,179.57,-0.35,-1.09,-1.3,13.79,-5.37,57.01,1742312124.235104
-0.39,1.18,-0.75,31.49,-17.27,-49.93,-0.09,-0.12,-0.97,-5.74,-39.98,139.47,1742312124.347101
-0.05,0.39,-0.8,-3.11,29.24,-103.33,0.11,0.53,-0.74,17.64,-17.82,90.09,1742312124.460917
0.18,-0.05,-0.88,-20.63,11.9,-42.18,-0.01,0.61,-0.86,-15.87,56.76,-105.22,1742312124.575338
-0.04,0.09,-1.01,-7.75,3.05,133.06,-0.28,-1.04,-1.11,48.52,24.23,-181.21,1742312124.6952431
-0.47,1.12,-0.74,-25.27,-45.72,127.08,-0.26,-0.48,-1.22,-9.34,-33.33,107.97,1742312124.803092
-0.39,0.76,-0.92,27.4,19.04,-125.0,-0.07,0.15,-0.95,-17.15,-26.37,144.1,1742312124.917024
-0.04,0.2,-0.88,11.72,-1.65,-137.94,0.11,0.53,-0.8,13.61,-10.5,28.69,1742312125.035763
0.19,-0.02,-0.8,-5.49,4.27,-14.95,-0.03,0.34,-0.84,-14.83,46.94,-133.24,1742312125.145004
-0.05,0.02,-1.03,6.71,-6.59,142.76,-0.26,-0.88,-1.33,5.8,9.95,-174.74,1742312125.2591512
-0.46,1.25,-1.01,-102.97,-6.59,91.31,-0.21,-0.56,-1.12,-26.31,-47.67,110.23,1742312125.376535
-0.17,0.52,-0.78,66.04,-19.84,-111.51,-0.04,0.1,-0.81,18.31,-21.3,118.65,1742312125.495924
0.04,0.23,-0.73,18.68,30.03,-86.55,0.06,0.73,-0.82,6.29,23.5,24.05,1742312125.602645
0.11,-0.06,-1.07,-27.22,36.62,24.29,-0.11,0.19,-0.96,-48.58,51.57,-162.05,1742312125.716054
-0.15,0.47,-0.94,18.07,-41.56,158.94,-0.29,-1.4,-1.22,33.81,-15.75,-67.38,1742312125.835819
-0.52,1.28,-0.83,18.19,5.37,-39.67,-0.17,-0.26,-0.99,18.86,-38.02,118.47,1742312125.943987
-0.13,0.52,-0.72,12.45,6.65,-83.5,0.01,0.23,-0.84,12.51,-13.43,80.32,1742312126.057773
0.04,0.18,-0.86,-2.87,27.22,-52.25,0.07,0.42,-0.82,16.72,26.55,-18.98,1742312126.1766698
0.08,0.17,-0.89,-13.12,5.49,52.61,-0.2,0.17,-1.05,-4.39,46.94,-184.57,1742312126.2859788
-0.2,0.48,-1.02,-0.98,-33.87,153.32,-0.38,-1.28,-1.35,7.32,-6.96,-41.93,1742312126.400178
-0.59,1.48,-0.69,-22.52,-25.02,-16.36,-0.21,-0.12,-1.0,-15.38,-33.14,119.32,1742312126.516706
-0.16,0.46,-0.73,20.26,9.4,-85.14,0.01,0.2,-0.8,-7.45,-12.94,84.72,1742312126.627866
-0.02,0.29,-0.81,1.95,14.95,-45.23,0.09,0.48,-0.83,9.4,34.06,-24.72,1742312126.7417548
0.09,0.12,-0.87,-18.31,6.77,37.78,-0.23,0.01,-0.98,-40.47,53.34,-191.71,1742312126.857114
-0.38,0.68,-0.97,-17.94,-39.18,200.32,-0.68,-1.59,-1.4,-244.81,60.06,10.68,1742312126.978668
-0.71,1.76,-0.68,342.59,89.29,-157.96,-0.27,-0.77,-0.79,-561.04,94.36,290.59,1742312127.084
0.03,0.74,-0.11,472.9,121.22,-181.15,0.16,-0.58,0.15,-140.81,-97.78,78.8,1742312127.197841
0.13,0.48,0.4,202.7,13.18,-81.12,0.21,-0.1,0.63,-30.46,-105.65,4.39,1742312127.316998
0.34,-0.09,0.66,49.01,-65.37,-2.14,-0.55,1.82,2.13,-67.75,57.43,-431.52,1742312127.425828
-0.17,-2.6,1.34,67.38,33.81,655.21,-2.59,-2.55,1.46,-75.93,66.96,-293.03,1742312127.539941
-2.97,2.29,2.89,-297.12,88.56,56.88,-0.21,-0.89,0.42,78.55,-58.47,266.97,1742312127.6579058
0.06,-0.07,0.87,-88.32,-100.22,-286.87,-0.68,-0.25,0.87,-47.91,-54.63,300.35,1742312127.76785
-0.15,-0.3,0.68,-37.6,16.97,-229.0,-0.37,0.61,1.01,147.16,-241.09,190.86,1742312127.883212
0.06,-1.08,0.91,-118.35,-227.29,-157.96,-1.56,1.69,2.03,-12.88,369.45,-505.98,1742312127.997708
-1.32,-1.29,0.85,93.02,338.38,778.93,-1.93,-1.68,1.96,248.47,-40.34,-121.95,1742312128.118399
-1.58,1.46,1.44,-394.23,-1.89,-197.94,-0.01,-0.4,0.43,82.46,-6.96,265.87,1742312128.223828
-0.27,0.0,0.95,-51.33,5.49,-222.78,-0.36,-0.2,0.92,166.5,-54.93,308.9,1742312128.339655
-0.2,-0.06,0.9,-38.21,-6.23,-163.15,0.12,0.25,0.98,131.16,-169.13,41.63,1742312128.4590862
0.5,-0.39,0.58,-217.1,-127.2,-111.69,-1.05,0.97,1.75,206.18,-92.77,-314.27,1742312128.565803
-0.8,-1.69,1.52,-61.95,-166.44,281.92,-2.99,-0.33,1.6,-645.87,241.33,-555.05,1742312128.679928
-3.72,-2.18,3.74,-335.14,-55.24,200.62,-0.33,-0.93,0.18,57.86,-33.94,218.44,1742312128.799137
-0.21,-0.06,0.64,-9.03,146.0,-246.03,-0.28,-0.16,0.79,60.79,-106.32,274.17,1742312128.907698
-0.04,-0.28,0.73,-41.2,-4.7,-247.92,0.07,0.15,0.58,186.52,-185.06,98.14,1742312129.021499
0.43,-0.61,0.59,-160.46,-137.45,-156.62,-0.93,0.46,1.99,210.02,-45.29,-127.69,1742312129.140121
-0.92,-1.01,1.37,-110.35,82.34,435.49,-2.09,0.22,1.88,-453.61,126.95,-407.47,1742312129.259506
-2.13,-0.61,2.59,-569.58,26.49,25.09,-0.32,-0.75,0.37,-45.23,29.6,164.55,1742312129.362944
-0.39,0.05,0.8,5.74,112.61,-209.29,-0.08,-0.27,0.55,123.72,-141.42,255.62,1742312129.480876
0.08,-0.38,0.51,-89.29,14.77,-288.02,-0.18,-0.04,0.78,157.23,-257.02,146.48,1742312129.600239
0.13,-0.54,0.83,-105.22,-166.99,-146.85,-0.84,0.3,1.77,262.7,-290.22,-8.12,1742312129.704906
-0.71,-1.89,1.36,-363.46,-144.59,147.77,-2.52,-1.25,0.11,-1005.92,402.95,-650.45,1742312129.821904
-4.0,-1.91,4.0,-602.05,-456.91,56.03,-0.59,-1.18,0.61,229.98,-121.52,263.24,1742312129.941292
-0.14,-0.08,0.87,-1.89,43.27,-220.28,-0.46,-0.28,0.7,-48.89,1.28,243.71,1742312130.046678
-0.31,-0.35,0.7,61.34,72.02,-264.34,-0.07,0.24,0.66,131.47,-202.09,201.72,1742312130.1609669
0.24,-0.81,0.66,-145.45,-84.84,-209.05,-1.04,0.01,1.15,295.29,-392.27,64.39,1742312130.28125
-0.4,-0.74,0.96,-438.17,-237.67,-45.53,-2.94,-2.07,-0.48,-580.2,1165.04,-548.16,1742312130.401085
-1.14,0.15,0.49,1110.29,503.23,1105.59,-0.59,-1.35,0.22,646.18,-28.63,251.65,1742312130.502709
-0.89,1.16,0.95,-269.17,-21.18,-268.74,-0.2,-0.35,0.71,35.03,-51.94,240.11,1742312130.6220741
-0.29,-0.14,0.77,-69.09,26.92,-286.68,-0.03,-0.11,0.64,106.99,-118.1,177.73,1742312130.742473
0.17,-0.5,0.62,-26.79,24.9,-234.19,-0.05,-0.04,0.77,178.96,-226.5,13.0,1742312130.845338
0.28,-0.51,0.67,-212.4,-180.3,-86.3,-1.37,-0.35,1.42,309.63,-61.22,-226.44,1742312130.962733
-1.1,-0.55,0.95,-305.11,-137.76,225.59,-1.59,-0.45,2.57,-253.91,11.84,-361.63,1742312131.0826461
-2.91,-3.69,3.83,-87.52,53.89,368.65,-0.99,-0.83,0.57,1.77,-233.52,391.42,1742312131.1865878
-1.16,0.3,0.83,204.47,-0.49,-288.7,0.13,0.32,0.8,-124.69,88.44,224.73,1742312131.304466
-0.16,-0.55,0.55,-20.39,96.98,-309.57,-0.06,0.33,0.73,135.01,-67.57,-108.83,1742312131.423275
0.37,-0.82,0.62,-161.56,-85.14,-161.01,-1.28,-0.01,0.72,334.78,-88.07,-286.01,1742312131.543473
-1.31,-1.39,0.82,-460.45,-214.05,134.89,-3.01,-0.85,1.52,-310.67,383.91,-555.6,1742312131.6432068
-1.21,-1.98,0.68,1512.02,-103.33,1118.47,-0.53,-1.13,0.44,89.42,27.89,200.87,1742312131.763882
-1.47,1.3,0.84,-139.34,25.15,-389.1,-0.27,-0.31,0.44,182.31,3.66,321.72,1742312131.883849
-0.49,-0.65,0.36,-84.41,237.85,-339.84,-0.38,0.16,0.73,157.71,-316.96,237.37,1742312131.984595
0.3,-0.69,0.55,-144.65,-120.12,-208.07,-0.88,-0.09,0.99,349.37,-305.3,18.68,1742312132.1066182
-0.15,-1.53,1.17,-209.9,-166.69,107.48,-2.56,-2.04,-0.36,-773.5,1062.32,-866.76,1742312132.225184
-3.42,0.84,0.8,1046.39,190.8,1084.78,-0.54,-2.13,0.19,315.49,61.83,183.23,1742312132.326468
-0.53,0.76,0.88,-317.14,-8.3,-384.22,-0.3,-0.5,0.7,189.33,-114.32,309.39,1742312132.4485
-0.58,-0.16,0.82,-73.43,180.54,-224.85,-0.28,-0.17,0.87,126.59,-204.1,212.34,1742312132.5648
0.07,-0.31,0.5,-48.83,85.94,-223.57,-0.49,-0.06,0.75,250.92,-304.32,27.22,1742312132.668513
0.3,-0.65,0.75,-213.75,-216.25,-128.72,-1.67,-0.64,0.88,212.16,755.62,-32.96,1742312132.782634
-1.3,-0.55,1.26,-248.54,304.02,463.56,-0.68,-1.09,0.93,2.08,146.73,2.99,1742312132.896681
-2.72,-0.92,3.85,-494.38,-38.21,-0.43,-0.27,-1.21,0.21,-132.26,-107.79,224.91,1742312133.010677
-0.75,0.25,1.23,-41.56,28.26,-325.44,-0.5,-0.66,0.32,42.05,-230.83,304.69,1742312133.128103
-0.45,-0.03,0.99,-71.04,98.63,-393.25,-0.49,-0.3,0.87,63.96,-227.23,243.59,1742312133.248391
-0.08,0.42,0.6,-51.76,13.67,-266.24,-0.37,-0.66,0.77,42.48,-3.78,30.64,1742312133.3681622
0.26,-0.28,0.81,-25.51,-73.24,-185.61,-0.43,-0.96,0.16,-0.98,-78.12,-4.15,1742312133.4666822
0.36,-0.53,0.92,-37.05,19.84,-19.9,-0.61,-1.19,0.56,-87.34,-150.88,0.24,1742312133.5804958
0.25,-0.07,0.58,-97.29,-50.17,149.35,-0.54,-0.85,1.06,-4.46,-127.5,83.86,1742312133.708735
-0.15,0.69,0.59,-9.03,-54.14,138.67,-0.23,-0.62,0.87,-25.51,79.77,87.1,1742312133.813453
-0.49,0.99,1.09,67.81,-102.36,36.87,0.03,-0.38,0.54,-31.92,152.28,33.94,1742312133.922415
-0.49,0.62,1.1,73.85,-81.18,-47.3,0.12,-0.32,0.22,48.58,100.28,-57.86,1742312134.0490198
-0.48,0.37,1.23,89.36,-39.31,-108.46,-0.12,-0.67,-0.23,-52.06,20.51,-120.3,1742312134.167597
-0.27,-0.12,1.33,78.61,118.04,-123.41,-0.48,-1.32,0.22,-6.65,-185.24,-107.06,1742312134.269498
0.35,-0.37,0.75,14.89,150.88,-18.86,-0.77,-1.44,0.77,-36.44,-140.2,43.09,1742312134.388578
0.5,-0.33,0.43,-28.87,39.98,106.75,-0.77,-0.86,1.06,-68.12,-60.49,122.74,1742312134.50601
-0.01,0.21,0.29,-53.16,-34.18,168.82,-0.33,-0.53,0.99,-19.53,76.11,123.29,1742312134.608932
-0.53,0.83,0.48,-16.66,-145.14,120.54,0.16,-0.12,0.53,5.25,170.84,32.65,1742312134.725298
-1.1,0.8,1.48,149.9,-212.16,-71.29,0.22,-0.02,-0.1,-13.61,87.89,-117.92,1742312134.8446982
-0.88,-0.09,1.64,165.28,13.0,-148.07,-0.41,-0.92,-0.24,-51.57,-103.88,-152.83,1742312134.949087
-0.27,-0.45,1.02,-12.08,178.71,-58.17,-0.9,-1.61,0.93,-38.7,-171.63,5.43,1742312135.0676732
0.25,-0.4,0.47,-75.5,172.12,46.45,-0.92,-0.96,1.31,-46.87,-52.19,129.09,1742312135.1854668
0.11,0.16,0.09,-87.34,21.12,171.33,-0.52,-0.56,1.12,-28.08,83.56,113.59,1742312135.289464
-0.62,0.63,0.65,92.35,-88.56,139.16,0.1,0.01,0.55,66.22,232.48,90.88,1742312135.4062989
-0.94,0.79,1.37,181.7,-124.02,-45.65,0.12,-0.12,-0.27,-39.73,92.35,-134.89,1742312135.516462
-0.85,-0.13,1.57,77.82,27.1,-111.08,-0.17,-0.92,-0.32,2.75,-67.99,-163.45,1742312135.6481652
-0.27,-0.22,0.93,2.75,155.09,-100.1,-0.53,-1.67,0.29,9.03,-159.42,-67.57,1742312135.746081
0.34,-0.54,0.64,-108.4,173.52,-22.52,-1.11,-1.57,1.08,-106.69,-189.7,59.75,1742312135.8668191
0.31,-0.19,0.29,-124.94,85.14,153.93,-0.61,-0.55,1.19,-73.0,46.81,133.36,1742312135.985425
-0.33,0.57,0.06,92.83,-68.3,173.34,-0.01,-0.11,0.6,2.44,165.47,106.08,1742312136.086945
-1.04,0.96,0.8,96.56,-220.64,73.73,0.26,0.1,0.12,-52.19,97.9,-92.53,1742312136.205863
-1.23,0.54,1.52,126.71,-121.83,-98.82,-0.16,-0.61,-0.24,-36.62,2.2,-174.62,1742312136.3285818
-0.66,-0.41,1.14,126.46,124.51,-85.51,-0.55,-1.36,0.33,9.83,-183.11,-85.69,1742312136.4274292
0.0,-0.42,0.7,-117.31,234.07,-70.56,-1.08,-1.46,1.3,-38.45,-151.67,60.67,1742312136.541481
0.4,-0.19,0.18,-133.85,132.45,83.37,-0.73,-0.52,1.15,-64.21,94.42,168.76,1742312136.655381
-0.43,0.49,0.15,94.67,-30.7,236.82,-0.05,0.05,0.67,-24.54,199.89,96.68,1742312136.769134
-1.23,1.11,0.94,100.16,-181.76,70.31,0.25,-0.04,0.11,30.27,131.65,-83.07,1742312136.88849
-1.26,0.39,1.54,137.21,-96.92,-116.52,-0.08,-0.71,-0.31,-34.67,-32.23,-142.52,1742312137.008833
-0.77,-0.31,1.2,76.23,144.17,-129.46,-0.29,-1.31,0.19,-4.52,-145.87,-101.01,1742312137.128916
0.06,-0.57,0.79,-30.58,252.87,-77.82,-1.02,-1.62,1.12,-70.19,-193.54,22.4,1742312137.226908
0.44,-0.3,0.16,-47.12,123.29,126.04,-0.83,-0.67,1.21,-61.16,18.25,129.52,1742312137.346747
-0.48,0.54,0.26,77.88,-36.62,274.17,-0.14,-0.16,0.53,6.77,184.75,90.21,1742312137.466818
-0.85,0.94,1.01,30.7,-177.0,36.62,0.32,-0.48,0.14,-34.73,108.83,-15.75,1742312137.567261
-0.65,0.55,1.3,36.32,-83.37,-58.41,0.31,-1.0,0.35,-7.57,-4.21,-11.41,1742312137.6813262
-0.39,0.24,1.05,-8.06,34.79,-27.34,0.23,-0.72,0.57,-13.37,-22.46,5.0,1742312137.795239
-0.36,0.36,0.74,-20.2,39.06,1.22,0.18,-0.77,0.61,5.86,-2.75,4.64,1742312137.909986
-0.33,0.43,0.72,-13.0,8.36,-4.52,0.23,-0.73,0.55,1.16,-4.88,-3.3,1742312138.028723
-0.31,0.41,0.83,-12.21,6.16,0.37,0.2,-0.78,0.61,1.53,-7.32,-4.94,1742312138.1484108
-0.33,0.43,0.87,-7.81,16.42,2.08,0.2,-0.79,0.58,2.93,2.62,2.2,1742312138.2690198
-0.32,0.48,0.77,3.6,0.73,1.04,0.19,-0.75,0.58,-1.71,-0.92,-2.32,1742312138.366973
-0.33,0.42,0.83,8.42,-7.02,1.04,0.18,-0.77,0.58,-0.67,-0.98,-3.11,1742312138.4864352
-0.34,0.44,0.85,-0.55,-2.38,1.95,0.19,-0.77,0.58,1.65,0.18,-1.77,1742312138.592086
-0.34,0.46,0.83,-0.79,-0.37,-1.1,0.19,-0.79,0.59,-0.49,-0.31,0.12,1742312138.708069
-0.34,0.43,0.84,2.62,-0.06,-1.95,0.18,-0.77,0.58,1.59,0.67,1.22,1742312138.825928
-0.35,0.42,0.84,2.26,-0.43,-0.92,0.19,-0.76,0.58,0.61,0.18,0.61,1742312138.9481301
-0.35,0.43,0.84,-1.22,1.28,1.1,0.21,-0.77,0.57,3.48,-1.4,1.04,1742312139.0476851
-0.35,0.44,0.86,-1.4,5.25,-1.4,0.19,-0.79,0.58,1.65,-2.87,1.65,1742312139.160116
-0.32,0.43,0.83,-1.34,5.37,-1.83,0.17,-0.78,0.59,-0.92,-1.1,0.92,1742312139.2870011
-0.32,0.42,0.83,1.28,-1.53,0.61,0.19,-0.76,0.58,-0.12,0.85,-0.18,1742312139.3881931
-0.33,0.43,0.84,-0.12,-2.5,1.34,0.19,-0.78,0.57,0.24,0.12,0.18,1742312139.5040581
-0.33,0.44,0.85,-1.16,1.04,-0.37,0.19,-0.77,0.58,-0.49,-1.4,-0.55,1742312139.626247
-0.33,0.44,0.84,0.43,1.59,0.55,0.19,-0.78,0.58,0.24,-1.4,-0.06,1742312139.743667
-0.33,0.43,0.84,-0.37,1.53,0.18,0.18,-0.77,0.58,-0.55,-0.67,-0.06,1742312139.84335
-0.33,0.43,0.85,-0.43,1.83,0.06,0.19,-0.77,0.57,-0.12,-0.79,0.0,1742312139.963238
-0.32,0.43,0.82,0.67,0.67,-0.55,0.19,-0.78,0.57,0.49,-2.32,-0.67,1742312140.084495
-0.32,0.43,0.84,-1.34,1.28,-1.16,0.23,-0.87,0.56,-2.08,-12.57,0.06,1742312140.1850681
-0.31,0.48,0.73,1.65,-8.54,0.55,0.14,-0.46,1.15,18.31,22.89,4.21,1742312140.302311
-0.58,0.64,0.91,140.26,-46.57,-28.81,0.22,0.24,0.12,130.68,215.33,-76.78,1742312140.426381
-0.5,-0.4,1.54,9.52,98.63,-86.12,-0.27,-1.08,-0.78,5.0,-88.68,-154.17,1742312140.5253499
0.05,-0.27,0.78,-136.11,154.85,-86.98,-0.78,-2.12,0.68,-13.06,-206.73,12.7,1742312140.6417532
0.45,-0.21,0.24,-47.3,115.91,108.7,-0.95,-1.16,1.39,-146.48,-71.78,177.92,1742312140.762439
-0.41,0.7,0.04,121.7,-78.55,245.48,-0.19,0.24,0.86,-25.88,147.64,125.37,1742312140.884017
-1.09,0.95,0.98,143.62,-209.59,30.09,0.12,0.32,0.3,-5.98,189.58,-90.76,1742312140.984396
-1.37,0.3,1.53,162.11,-57.8,-77.09,-0.08,-0.87,-0.66,-121.28,44.56,-182.07,1742312141.1045911
-0.75,-0.27,1.08,39.61,141.91,-131.84,-0.3,-1.82,0.25,-41.93,-183.35,-71.78,1742312141.222463
0.23,-0.48,0.57,-174.56,170.78,-103.21,-0.74,-1.32,1.35,-103.15,-138.61,106.81,1742312141.3233678
0.2,-0.15,0.16,-52.8,100.65,175.6,-0.43,-0.47,1.25,-54.87,50.23,161.93,1742312141.442303
-0.62,0.71,0.39,150.88,-67.44,157.29,0.24,0.19,0.71,-12.57,152.04,45.65,1742312141.563891
-1.03,0.71,1.34,133.67,-155.82,-76.78,0.16,0.02,0.11,-29.24,114.56,-152.28,1742312141.6638238
-0.96,-0.24,1.81,49.19,23.8,-133.24,-0.2,-0.88,-0.35,27.4,-113.65,-195.56,1742312141.7819
-0.13,-0.71,0.79,2.2,250.24,-96.92,-0.67,-1.68,0.48,4.52,-211.36,-42.24,1742312141.901108
0.37,-0.31,0.34,-15.99,186.95,73.97,-1.0,-1.12,1.28,-99.73,-142.09,105.35,1742312142.006133
0.16,0.05,-0.03,-72.27,-83.19,221.07,-0.56,-0.38,1.17,-46.57,86.55,145.51,1742312142.121542
-0.89,0.94,0.62,91.13,-148.56,113.95,0.08,-0.01,0.65,-50.9,188.9,10.38,1742312142.242155
-1.09,0.4,1.35,141.72,-161.01,-23.07,0.16,0.04,0.3,32.59,128.72,-117.68,1742312142.347738
-1.09,-0.26,1.38,225.1,-43.58,-36.93,-0.26,-0.72,-0.43,-49.56,1.16,-196.53,1742312142.461834
-0.67,-0.66,1.02,-27.04,221.19,-91.0,-0.75,-1.64,0.47,-19.71,-222.47,-90.33,1742312142.5852108
0.1,-0.5,0.37,-166.44,264.4,-8.06,-0.89,-1.29,0.88,-38.39,-148.01,68.91,1742312142.7007308
0.38,-0.09,0.02,-26.86,78.8,152.83,-0.75,-0.76,1.08,-52.31,-6.9,175.66,1742312142.8029828
-0.53,0.78,0.48,39.79,-135.56,126.83,-0.19,-0.16,0.82,-63.78,144.59,129.58,1742312142.921354
-0.96,0.75,1.24,118.84,-191.16,-30.52,0.16,0.01,0.37,-29.54,213.2,-24.96,1742312143.043885
-1.1,-0.05,1.68,184.57,7.63,-118.9,-0.21,-1.04,-0.18,-111.08,108.64,-147.4,1742312143.14525
-0.35,-0.63,0.94,-11.35,212.71,-50.05,0.04,-1.38,0.53,80.93,-86.12,-38.45,1742312143.2603781
0.23,-0.1,0.44,-66.71,143.49,31.07,0.09,-1.0,0.76,24.6,-14.77,21.55,1742312143.380936
0.14,0.39,0.76,-14.28,-16.97,41.93,0.16,-0.78,0.51,12.82,8.42,0.24,1742312143.4868631
0.08,0.35,1.04,-18.74,-33.51,-7.51,0.13,-0.84,0.38,-3.78,0.31,-19.59,1742312143.600964
0.1,0.19,1.04,-1.65,-9.77,-9.09,0.09,-0.89,0.44,0.79,-9.03,-8.0,1742312143.7202299
0.1,0.21,0.95,-2.38,-1.28,-2.26,0.05,-0.86,0.49,-0.98,-5.07,-2.5,1742312143.8397892
0.11,0.24,0.95,-0.79,-13.43,-12.94,0.04,-0.85,0.45,-8.24,-7.51,-13.0,1742312143.943062
0.1,0.14,1.02,6.1,2.26,-13.31,0.02,-0.87,0.49,-10.8,-13.61,-16.72,1742312144.0592608
0.09,0.16,0.97,2.26,6.84,-3.3,-0.01,-0.87,0.52,-4.64,-7.69,-2.69,1742312144.179882
0.09,0.18,0.98,21.67,-10.01,0.06,-0.01,-0.84,0.5,0.67,0.85,3.72,1742312144.284866
0.07,0.12,1.03,-0.12,-2.93,1.34,-0.01,-0.83,0.5,-1.83,-2.38,-2.26,1742312144.3992362
0.08,0.13,1.0,-0.37,6.16,3.48,-0.02,-0.84,0.49,-2.38,-3.78,-4.82,1742312144.52255
0.1,0.14,0.97,-0.85,0.31,2.44,-0.04,-0.85,0.5,-3.36,-6.41,-8.91,1742312144.6270962
0.08,0.15,0.99,-0.43,0.18,-4.21,-0.06,-0.85,0.53,-1.53,-5.19,-8.24,1742312144.74103
0.11,0.12,0.98,-4.46,4.46,-3.97,-0.08,-0.86,0.51,2.08,0.37,-0.85,1742312144.858437
0.1,0.13,0.99,-0.92,-0.24,-0.49,-0.06,-0.84,0.5,-0.18,-0.67,0.06,1742312144.968956
0.1,0.15,0.97,-0.73,-1.16,0.06,-0.08,-0.85,0.52,-3.97,-2.62,-2.08,1742312145.08334
0.08,0.13,0.99,2.69,-10.74,-0.79,-0.08,-0.83,0.52,-0.98,0.31,1.1,1742312145.1990762
0.06,0.14,1.02,3.66,-4.52,3.97,-0.13,-0.87,0.59,16.05,-13.0,-2.44,1742312145.318308
-0.04,0.09,1.09,5.37,8.97,15.38,-0.52,-1.18,1.09,-22.89,83.37,13.73,1742312145.424853
-0.09,-0.04,1.45,43.03,17.76,63.84,-0.11,-1.17,0.28,-6.29,166.14,83.74,1742312145.538851
0.2,0.16,1.28,28.08,140.56,121.15,0.25,-1.14,0.16,-79.22,155.4,149.35,1742312145.658745
0.24,0.79,0.91,-131.96,193.6,-1.59,0.57,-0.31,-0.46,-41.69,76.54,238.22,1742312145.766816
0.61,0.22,-0.06,-21.97,116.09,-169.31,0.61,0.5,-0.03,-82.28,-102.23,191.28,1742312145.880803
0.59,-0.41,-0.02,71.29,-10.8,-198.61,0.36,0.64,0.59,-76.48,-113.89,98.27,1742312146.002053
0.48,-0.86,0.47,78.06,-31.01,-134.28,0.32,0.72,0.76,-46.94,-83.98,22.03,1742312146.119253
0.46,-0.84,0.3,11.35,-2.81,-54.93,0.39,0.58,0.68,-33.39,-42.54,11.41,1742312146.2227368
0.49,-0.74,0.5,-10.5,32.65,-60.06,0.35,0.86,0.41,23.38,-15.2,43.09,1742312146.338445
0.37,-0.75,0.19,33.08,12.76,-43.88,0.25,0.94,0.41,-48.52,-32.84,-8.06,1742312146.449922
0.33,-1.03,0.15,24.96,-4.09,-15.69,0.34,0.86,0.44,-13.18,33.51,3.48,1742312146.563592
0.37,-0.95,0.19,15.01,26.67,-16.78,0.4,0.92,0.22,1.34,41.26,1.53,1742312146.678545
0.27,-0.93,0.16,-21.79,15.14,4.58,0.36,0.83,0.26,-6.47,-2.99,-5.43,1742312146.798195
0.36,-0.89,0.25,-22.09,6.35,1.1,0.33,0.91,0.26,23.07,17.82,18.62,1742312146.905428
0.39,-0.82,0.2,-40.53,6.9,0.85,0.42,0.9,0.29,18.74,36.07,-22.95,1742312147.018474
0.35,-0.81,0.34,-32.17,-5.68,31.07,0.38,0.76,0.27,-7.51,-1.46,18.31,1742312147.138108
0.38,-0.83,0.3,37.05,-9.09,-11.41,0.4,0.94,0.29,-7.81,1.65,9.89,1742312147.245522
0.38,-0.92,0.26,8.61,-5.0,1.53,0.36,0.88,0.27,-4.33,-4.46,1.89,1742312147.358586
0.37,-0.9,0.24,4.82,-2.87,-5.07,0.37,0.88,0.26,-2.75,-5.62,-3.66,1742312147.4766421
0.34,-0.9,0.25,-0.61,-2.99,-4.21,0.38,0.9,0.27,-0.37,-8.12,-4.27,1742312147.586692
0.36,-0.87,0.27,8.73,-6.41,0.55,0.37,0.85,0.29,2.14,5.37,0.79,1742312147.700394
0.34,-0.88,0.25,3.78,-0.18,-3.23,0.38,0.9,0.26,-2.2,4.7,-1.46,1742312147.8165061
0.34,-0.92,0.23,-12.08,10.19,-3.54,0.38,0.89,0.26,0.67,2.26,-3.85,1742312147.927645
0.34,-0.88,0.25,9.16,-4.33,-1.53,0.4,0.88,0.26,-2.99,1.83,1.16,1742312148.04145
0.32,-0.9,0.23,2.44,2.2,-3.11,0.4,0.9,0.24,-4.7,-2.08,-1.16,1742312148.156225
0.33,-0.9,0.24,-6.23,6.71,-2.87,0.38,0.91,0.24,-3.36,-0.85,0.37,1742312148.2688582
0.33,-0.91,0.24,-1.04,3.54,-2.93,0.37,0.91,0.23,-4.76,-3.66,-0.12,1742312148.3826718
0.32,-0.94,0.23,-4.09,2.44,-4.21,0.37,0.94,0.23,0.31,-9.77,-4.09,1742312148.496632
0.35,-0.9,0.24,-10.86,5.86,1.46,0.38,0.89,0.25,3.72,1.22,-5.07,1742312148.6168551
0.32,-0.87,0.26,-6.16,0.98,-0.67,0.39,0.88,0.24,-3.42,-1.59,-2.81,1742312148.7246568
0.3,-0.89,0.26,-0.73,0.61,-4.58,0.42,0.94,0.25,-2.69,-2.81,-0.67,1742312148.8386712
0.32,-0.93,0.28,-4.33,2.26,-0.55,0.41,0.9,0.24,4.52,-4.39,-0.61,1742312148.9577699
0.32,-0.89,0.28,0.49,-0.31,2.01,0.39,0.85,0.25,1.53,1.28,-0.55,1742312149.066499
0.31,-0.89,0.27,1.71,0.73,-2.32,0.4,0.88,0.25,-0.31,-0.37,-1.4,1742312149.179625
0.31,-0.91,0.27,-1.59,1.04,-1.34,0.41,0.88,0.25,2.14,-2.87,-3.78,1742312149.295518
0.31,-0.9,0.29,-4.39,1.28,-1.53,0.41,0.88,0.26,-2.38,-0.55,-0.31,1742312149.407653
0.31,-0.9,0.29,6.16,1.16,-4.09,0.43,0.87,0.24,-9.4,1.65,4.15,1742312149.521339
0.29,-0.93,0.27,4.46,4.58,-7.51,0.4,0.83,0.21,-25.33,-1.04,12.08,1742312149.635308
0.27,-0.91,0.22,32.47,9.83,-27.65,0.39,0.91,0.19,-9.16,-2.44,-0.61,1742312149.7557602
0.23,-0.93,0.2,4.09,5.49,-19.53,0.36,0.92,0.19,-0.73,-3.85,-4.09,1742312149.86252
0.24,-0.92,0.21,1.59,4.82,-5.31,0.4,0.92,0.18,-6.04,-0.98,1.65,1742312149.976736
0.19,-0.97,0.19,1.04,10.19,-7.02,0.38,0.89,0.19,-9.34,-0.55,-0.61,1742312150.096093
0.21,-0.91,0.21,-2.99,13.61,-9.22,0.39,0.89,0.16,-6.65,-2.87,4.21,1742312150.204397
0.21,-0.96,0.19,9.03,11.17,-6.71,0.36,0.9,0.16,-9.89,-7.39,4.27,1742312150.318411
0.21,-0.97,0.16,8.79,9.34,-8.48,0.34,0.94,0.15,-7.57,-5.31,6.53,1742312150.436022
0.2,-0.96,0.13,13.24,4.7,-5.86,0.32,0.92,0.13,-9.16,0.73,8.36,1742312150.546319
0.19,-0.97,0.11,21.06,-1.46,-9.89,0.31,0.94,0.13,-7.87,5.86,9.58,1742312150.6593258
0.18,-0.99,0.08,24.54,-5.07,-8.97,0.3,0.95,0.11,3.97,29.6,9.77,1742312150.7755039
0.14,-1.0,0.01,29.79,-7.93,-10.5,0.3,1.01,0.05,-6.53,20.08,14.47,1742312150.885273
0.11,-0.99,-0.04,19.59,-15.81,-8.3,0.27,0.92,0.04,-9.64,18.13,8.73,1742312150.9983191
0.06,-0.94,-0.09,18.01,-17.33,-11.6,0.27,0.95,0.02,-19.59,9.46,14.59,1742312151.116533
0.09,-1.02,-0.08,17.7,-4.03,-16.91,0.21,0.97,-0.03,-13.06,20.69,13.79,1742312151.226414
0.04,-1.0,-0.15,15.08,-2.62,-13.12,0.22,0.98,-0.05,-14.28,15.14,3.48,1742312151.3404522
-0.01,-0.98,-0.16,9.7,4.58,-15.32,0.21,1.0,-0.1,-10.99,7.45,7.57,1742312151.4560902
-0.04,-0.98,-0.19,10.19,8.06,-12.33,0.21,1.01,-0.1,-6.71,-4.94,4.15,1742312151.575575
-0.04,-0.99,-0.19,1.95,8.97,-6.23,0.15,0.95,-0.1,-22.83,0.37,-1.4,1742312151.6826031
-0.05,-0.97,-0.2,-0.55,8.36,-5.37,0.17,0.98,-0.11,1.34,-2.38,2.93,1742312151.797494
-0.04,-1.0,-0.2,0.12,7.45,-2.99,0.14,0.97,-0.11,7.93,6.29,-3.85,1742312151.9164171
-0.05,-0.94,-0.2,-3.85,2.44,-1.53,0.19,0.97,-0.11,-2.44,4.27,-1.4,1742312152.024501
-0.06,-0.97,-0.18,-1.16,-5.74,-3.78,0.2,0.99,-0.11,-5.07,1.89,-2.5,1742312152.1385431
-0.09,-0.98,-0.19,-2.38,0.24,-5.55,0.19,0.96,-0.12,-2.14,-1.34,-2.62,1742312152.2556238
-0.1,-0.98,-0.17,-2.75,4.39,-4.27,0.22,0.96,-0.12,-7.57,-2.56,0.73,1742312152.3663979
-0.09,-0.97,-0.16,2.56,5.19,-4.7,0.21,0.97,-0.14,-2.26,0.06,1.83,1742312152.480408
-0.09,-0.97,-0.16,3.11,1.34,-3.6,0.2,0.98,-0.14,-2.69,0.85,1.28,1742312152.594999
-0.11,-0.94,-0.18,3.23,0.06,-2.44,0.19,0.98,-0.15,-1.53,-0.24,2.56,1742312152.7116868
-0.13,-0.95,-0.19,1.59,2.99,-1.46,0.17,0.97,-0.17,-1.4,-2.26,1.22,1742312152.822422
-0.13,-0.98,-0.2,-1.89,1.28,-1.22,0.2,0.99,-0.16,2.08,-3.72,-3.48,1742312152.936411
-0.13,-0.95,-0.19,-5.31,6.23,2.08,0.19,0.93,-0.16,0.92,-2.32,-2.62,1742312153.054763
-0.12,-0.97,-0.17,-3.23,2.14,1.83,0.2,0.97,-0.15,5.0,-2.32,-2.44,1742312153.1643982
-0.12,-0.97,-0.16,-4.58,0.98,4.21,0.2,0.95,-0.14,7.02,-1.65,-0.79,1742312153.278396
-0.09,-1.0,-0.16,-4.33,-2.44,6.41,0.2,0.98,-0.12,7.51,-0.92,-1.1,1742312153.3934
-0.07,-0.96,-0.16,-2.38,-3.36,8.18,0.21,0.96,-0.09,18.19,-1.16,-5.07,1742312153.506368
-0.12,-0.94,-0.17,-10.01,-1.89,18.31,0.19,0.89,-0.06,5.62,-32.1,1.95,1742312153.620275
0.05,-0.97,-0.11,-10.31,-6.96,26.25,0.21,1.01,-0.01,7.69,-29.05,-3.85,1742312153.734897
0.06,-0.94,-0.09,-10.5,-17.58,26.18,0.19,0.99,-0.03,39.12,-30.33,-14.34,1742312153.852523
0.13,-0.98,-0.08,-24.84,-22.46,22.77,0.24,0.94,0.08,58.65,-9.03,-27.77,1742312153.962804
0.12,-0.97,0.02,-38.64,-24.96,23.99,0.34,0.83,0.17,29.17,-28.63,-30.94,1742312154.076274
0.16,-0.95,0.11,1.34,-45.84,16.97,0.36,0.9,0.31,72.2,-45.78,-13.73,1742312154.193527
0.02,-1.04,0.47,-65.06,18.01,41.14,0.12,0.84,0.42,49.5,144.41,5.55,1742312154.304053
0.01,-0.81,0.26,-44.31,183.84,82.46,0.29,1.06,0.04,44.19,164.18,-56.21,1742312154.4171112
0.28,-1.03,-0.08,-7.45,130.68,167.54,0.48,1.06,-0.33,92.41,73.12,-254.94,1742312154.533525
0.54,-0.6,-0.28,-22.22,67.57,315.98,0.59,0.2,-0.3,36.68,-84.29,-351.2,1742312154.644351
0.72,0.26,-0.76,-123.47,35.03,346.56,0.41,-1.11,-0.13,-22.4,-165.95,-267.94,1742312154.758532
0.43,1.49,-0.71,-21.85,-217.41,123.17,0.13,-1.77,0.73,54.75,-123.54,-43.27,1742312154.8734772
0.11,0.81,0.43,65.37,-344.3,-33.94,-0.22,-1.21,0.57,-1.28,-96.74,159.55,1742312154.98642
-0.33,0.14,1.51,148.93,-200.62,54.08,-0.13,-0.12,0.26,68.05,-152.71,143.43,1742312155.100338
-0.46,0.23,1.61,63.84,8.24,191.04,-0.02,-0.0,0.61,75.07,-242.68,-20.39,1742312155.215279
-0.45,0.81,1.39,-102.29,82.03,78.49,-0.36,-0.36,1.32,156.98,-53.96,-152.83,1742312155.333109
-0.33,0.95,0.2,-102.97,99.55,-110.53,-1.12,-1.63,1.05,64.51,148.25,-142.03,1742312155.442351
0.13,0.17,-0.03,-20.63,-83.01,-173.22,-0.88,-1.59,-0.17,106.2,225.46,112.55,1742312155.5563278
0.21,-0.41,0.86,64.39,-256.53,-42.42,-0.41,-0.78,-0.55,-35.22,-2.69,186.52,1742312155.674465
-0.39,-0.17,1.34,-46.57,-110.41,223.75,0.1,-0.12,-0.07,-1.95,-135.62,125.12,1742312155.784426
-1.06,0.69,1.54,11.35,-15.2,197.63,0.12,0.05,0.51,50.17,-240.78,-71.04,1742312155.898211
-1.11,1.09,0.91,-135.74,176.21,5.98,-0.61,-0.48,1.47,19.41,-10.01,-243.71,1742312156.014344
-0.49,0.65,0.27,-58.23,77.82,-225.22,-1.12,-1.49,0.65,134.77,209.66,-93.32,1742312156.126297
0.15,-0.03,0.12,5.43,-75.68,-169.86,-0.75,-1.56,-0.38,113.89,142.27,130.55,1742312156.2402308
0.02,-0.54,0.97,95.64,-268.86,7.51,-0.24,-0.8,-0.36,-2.56,5.19,197.69,1742312156.354804
-0.71,-0.04,1.44,43.95,-108.58,221.8,0.19,-0.06,-0.06,-5.98,-157.96,89.66,1742312156.474357
-1.31,0.5,1.45,-91.86,-9.52,155.33,0.04,-0.11,0.5,-1.4,-221.74,-106.14,1742312156.582292
-1.07,0.76,0.67,-133.97,208.19,-19.78,-0.53,-0.41,1.31,39.86,-37.05,-185.06,1742312156.697248
-0.46,0.6,0.35,-71.84,100.83,-202.27,-0.97,-1.47,0.64,60.36,171.02,-61.58,1742312156.8144882
0.07,0.1,0.37,-11.05,-30.94,-180.3,-0.76,-1.45,0.04,50.05,182.43,116.52,1742312156.924172
0.27,-0.16,0.49,-21.85,-165.22,-20.81,-0.19,-0.64,-0.25,44.98,56.95,154.17,1742312157.038228
-0.49,0.09,1.29,-34.55,-98.27,173.71,0.15,-0.31,0.07,15.44,-50.72,80.2,1742312157.156049
-0.64,0.94,1.15,-52.67,32.41,85.69,0.35,-0.76,0.44,-1.22,-33.94,-1.65,1742312157.266279
-0.32,0.66,0.85,-51.45,44.31,-8.3,0.3,-1.02,0.53,38.64,23.01,-21.0,1742312157.3800619
-0.22,0.6,0.74,-32.29,16.85,-39.55,0.2,-1.05,0.15,30.03,28.44,-17.27,1742312157.494076
-0.17,0.52,0.71,-18.19,-1.95,-22.34,0.18,-0.94,0.2,-8.0,-4.94,-9.77,1742312157.615608
-0.2,0.6,0.73,-5.0,-5.31,-6.71,0.17,-0.95,0.23,1.95,1.89,-3.97,1742312157.722054
-0.22,0.63,0.77,-7.63,-5.49,-5.68,0.17,-0.96,0.21,3.05,3.42,-1.77,1742312157.836022
-0.22,0.61,0.77,0.24,-3.91,1.95,0.17,-0.95,0.21,2.32,0.31,0.37,1742312157.9547
-0.22,0.63,0.76,-1.95,2.2,3.6,0.16,-0.94,0.21,0.98,-0.24,-1.4,1742312158.0631208
-0.2,0.66,0.73,-5.86,11.11,1.28,0.16,-0.96,0.21,-0.12,-1.83,-2.2,1742312158.1778188
-0.18,0.64,0.72,0.55,1.22,-1.16,0.15,-0.95,0.23,1.16,-0.12,0.67,1742312158.2946901
-0.2,0.64,0.74,0.18,-5.68,-0.31,0.16,-0.93,0.21,3.05,0.79,-0.31,1742312158.4050329
-0.2,0.63,0.75,-2.44,-5.43,-1.89,0.16,-0.94,0.21,3.23,1.22,-3.3,1742312158.519049
-0.21,0.64,0.75,-2.14,-4.33,-0.06,0.15,-0.95,0.21,2.93,1.1,-1.04,1742312158.636771
-0.2,0.64,0.74,-1.28,0.37,0.55,0.15,-0.94,0.2,4.39,0.18,-3.6,1742312158.7470698
-0.2,0.63,0.73,-1.04,-2.38,1.95,0.15,-0.99,0.17,1.46,-1.34,-3.97,1742312158.861151
-0.22,0.64,0.73,-3.6,-3.66,3.17,0.14,-0.97,0.2,-1.71,-6.04,1.71,1742312158.9751549
-0.24,0.67,0.72,-3.85,-1.95,1.1,0.13,-0.94,0.2,0.31,-1.34,-0.49,1742312159.0943308
-0.23,0.65,0.72,-3.54,-1.1,1.4,0.16,-0.95,0.18,-3.72,-3.17,-6.04,1742312159.2032409
-0.3,0.82,0.89,7.02,23.01,-5.86,0.21,-0.95,0.3,-50.42,-6.35,-24.9,1742312159.3172019
-0.09,0.71,0.82,52.98,116.21,-78.67,0.04,-1.2,0.51,-49.19,21.06,-7.57,1742312159.4345632
0.25,0.28,0.48,-23.68,55.85,-65.43,-0.15,-1.37,0.12,-49.5,26.92,127.14,1742312159.545315
0.35,0.02,0.58,-27.16,-81.3,60.24,0.22,-0.37,0.1,25.94,-72.45,137.39,1742312159.6589491
-0.07,0.34,1.22,-32.65,-29.3,184.02,0.41,0.15,0.27,102.23,-164.79,-50.78,1742312159.774276
-0.62,1.29,1.19,-40.65,25.02,125.85,-0.28,-0.63,1.03,28.08,-71.11,-200.32,1742312159.887873
-0.49,1.11,0.6,11.47,86.61,-137.27,-0.89,-2.25,0.81,120.18,147.03,-145.63,1742312160.0011399
-0.07,0.29,0.13,8.61,14.34,-203.37,-0.9,-1.65,-0.46,-30.76,156.62,147.16,1742312160.118882
0.31,-0.28,0.11,2.93,-187.93,-82.34,-0.21,-0.61,-0.45,-34.42,-14.47,186.52,1742312160.237196
-0.34,-0.52,1.62,33.63,-181.34,139.83,0.19,-0.18,-0.15,-26.18,-135.01,75.32,1742312160.343064
-0.78,0.49,1.44,-23.74,41.14,196.29,0.22,-0.14,0.34,52.55,-188.72,-82.76,1742312160.457024
-0.89,1.11,0.97,-75.2,135.8,42.36,-0.47,-0.7,1.03,50.48,-40.22,-194.4,1742312160.577903
-0.55,0.85,0.44,-78.92,92.41,-165.1,-1.05,-1.52,1.02,1.1,133.0,-80.2,1742312160.685005
0.06,0.06,0.16,-8.85,-13.06,-203.61,-0.86,-1.4,-0.17,36.44,223.33,119.32,1742312160.799034
0.24,-0.19,0.44,5.98,-185.18,-21.61,-0.38,-0.82,-0.36,6.41,69.52,187.93,1742312160.915315
-0.3,-0.25,1.28,-56.27,-140.01,174.01,0.21,-0.31,-0.2,-8.67,-64.03,165.59,1742312161.027103
-0.99,0.81,1.27,28.56,26.25,195.07,0.35,0.06,0.24,13.61,-169.56,-12.82,1742312161.140939
-1.04,0.73,1.26,-113.1,94.06,32.29,-0.02,-0.43,0.95,16.05,-133.3,-159.79,1742312161.256555
-0.77,0.68,0.39,-86.73,191.53,-98.82,-0.67,-1.33,1.03,26.06,-1.83,-189.88,1742312161.376579
-0.16,0.42,0.17,10.07,64.88,-195.5,-0.65,-1.34,0.76,68.54,139.95,-21.06,1742312161.4829829
0.23,0.04,0.31,27.16,-96.86,-118.23,-0.65,-1.35,0.09,65.55,160.4,101.68,1742312161.5994508
0.07,-0.23,0.95,-2.5,-211.3,61.28,-0.13,-0.85,-0.02,32.71,43.64,177.37,1742312161.716699
-0.53,0.45,1.07,-21.06,-86.18,184.27,0.4,-0.26,0.01,5.49,-47.79,130.13,1742312161.824985
-0.87,0.71,1.41,64.21,6.23,108.28,0.47,-0.03,0.15,4.09,-151.37,-35.28,1742312161.938993
-0.79,0.5,1.14,-88.32,131.41,20.81,-0.09,-0.48,0.72,15.5,-176.7,-153.14,1742312162.058969
-0.71,0.66,0.5,-102.78,141.6,-114.93,-0.4,-1.0,1.33,-43.82,63.96,-111.76,1742312162.167083
-0.04,0.43,0.33,-73.3,98.45,-138.31,-0.19,-1.25,0.47,73.49,119.93,-2.99,1742312162.280965
0.43,0.51,0.54,2.01,80.02,-99.55,0.07,-1.16,0.31,25.7,166.26,70.56,1742312162.3971
0.79,0.43,0.44,88.56,142.15,-62.07,0.33,-0.7,0.29,-88.62,137.57,135.01,1742312162.512939
0.81,0.35,0.3,1.65,75.68,-52.37,0.54,-0.54,0.14,115.05,97.47,113.89,1742312162.6226869
0.92,0.32,0.47,-76.11,-10.8,-28.87,0.83,-0.35,0.22,59.81,15.2,68.48,1742312162.737409
0.83,0.4,0.3,-84.84,16.66,-11.84,0.87,-0.48,0.14,23.5,-7.51,24.96,1742312162.8575191
0.88,0.44,0.15,-42.42,-10.62,1.71,0.86,-0.44,0.19,14.77,-12.33,-9.89,1742312162.9628959
0.86,0.44,0.31,-12.15,-22.71,3.78,0.85,-0.53,0.2,-0.31,11.35,-1.22,1742312163.0809028
0.83,0.44,0.33,-18.19,-14.89,-2.26,0.83,-0.54,0.13,17.27,0.24,-5.62,1742312163.197397
0.84,0.4,0.31,-3.23,-8.18,-0.12,0.87,-0.5,0.1,3.11,10.8,4.21,1742312163.304651
0.84,0.42,0.33,-0.06,-7.39,-3.05,0.89,-0.53,0.1,13.43,5.62,5.86,1742312163.4176672
0.84,0.4,0.34,5.43,-1.71,-5.19,0.89,-0.48,0.05,-2.81,-4.21,14.28,1742312163.539704
0.85,0.35,0.33,-6.9,-2.44,-6.77,0.89,-0.43,0.12,-10.13,-10.93,3.42,1742312163.644852
0.85,0.39,0.36,5.74,-7.32,0.12,0.88,-0.45,0.11,0.43,1.22,2.2,1742312163.758624
0.82,0.41,0.38,8.24,-5.43,0.31,0.89,-0.42,0.12,-7.39,-1.1,-0.12,1742312163.877381
0.84,0.37,0.37,-3.85,-8.18,4.7,0.87,-0.47,0.1,2.01,-0.49,-9.22,1742312163.986001
0.81,0.42,0.38,-2.81,0.18,6.71,0.88,-0.46,0.11,3.17,-3.36,-1.04,1742312164.099818
0.82,0.41,0.39,-2.56,2.56,-0.55,0.87,-0.45,0.11,0.18,0.0,-0.49,1742312164.216506
0.81,0.42,0.39,0.0,-0.73,-1.65,0.88,-0.47,0.1,-1.46,-0.12,-1.1,1742312164.336735
0.82,0.42,0.4,0.12,-1.1,-1.16,0.87,-0.45,0.11,-0.49,-0.79,2.5,1742312164.441816
0.82,0.4,0.39,0.98,0.43,-2.2,0.88,-0.44,0.12,0.0,-1.04,0.18,1742312164.557012
0.82,0.4,0.39,1.1,0.24,-0.55,0.87,-0.44,0.12,4.7,1.53,-0.67,1742312164.676533
0.82,0.39,0.38,0.73,-1.28,-0.06,0.87,-0.46,0.12,1.1,0.24,-3.17,1742312164.7837188
0.82,0.4,0.39,0.79,-1.89,1.46,0.88,-0.45,0.11,1.4,-0.12,-3.3,1742312164.897834
0.83,0.4,0.4,-1.95,0.18,2.56,0.86,-0.48,0.11,2.2,-0.31,-2.5,1742312165.0207832
0.82,0.41,0.4,1.04,-1.4,1.34,0.87,-0.46,0.11,0.85,0.79,-1.04,1742312165.125705
0.81,0.4,0.4,0.49,0.06,1.16,0.87,-0.47,0.11,1.22,1.16,-0.43,1742312165.239671
0.81,0.4,0.41,-1.34,-0.49,0.49,0.87,-0.47,0.11,-0.37,-1.46,-1.1,1742312165.3567119
0.81,0.41,0.41,-1.34,0.37,0.18,0.87,-0.47,0.12,-0.24,0.67,0.61,1742312165.467728
0.8,0.41,0.42,0.12,-0.61,-0.73,0.87,-0.46,0.11,1.28,1.16,-0.24,1742312165.581631
0.81,0.41,0.41,-1.65,-0.12,0.61,0.87,-0.47,0.1,2.5,0.18,6.84,1742312165.6972852
0.81,0.4,0.42,2.93,-2.01,-6.23,0.87,-0.45,0.12,2.08,-6.41,6.71,1742312165.817229
0.81,0.37,0.42,8.79,-4.94,-6.1,0.88,-0.44,0.13,-0.06,-0.85,-0.43,1742312165.9237928
0.81,0.37,0.42,-0.31,-0.37,-0.24,0.87,-0.45,0.13,0.43,-0.06,-0.06,1742312166.037655
0.81,0.37,0.42,-0.85,-0.49,0.24,0.88,-0.45,0.13,0.12,-0.12,-1.59,1742312166.1568892
0.82,0.38,0.43,-0.67,0.31,1.28,0.88,-0.45,0.12,0.55,-0.12,1.59,1742312166.26563
0.82,0.37,0.42,0.24,0.37,-1.16,0.88,-0.45,0.13,1.46,0.37,-0.12,1742312166.37962
0.82,0.38,0.43,0.0,-0.31,0.43,0.88,-0.46,0.13,0.0,-0.49,0.31,1742312166.499865
0.82,0.38,0.43,-0.06,0.73,-0.73,0.87,-0.44,0.12,-0.24,-0.06,-0.37,1742312166.615913
0.82,0.37,0.43,-2.01,1.16,0.37,0.88,-0.44,0.12,-0.37,0.43,-5.0,1742312166.721647
0.81,0.39,0.43,-2.26,-0.61,4.15,0.88,-0.47,0.13,-0.06,-0.49,0.37,1742312166.8357928
0.81,0.41,0.42,1.28,0.43,-1.22,0.87,-0.44,0.13,0.31,-0.67,1.1,1742312166.949562
0.81,0.38,0.42,1.77,-0.24,-0.67,0.87,-0.44,0.14,-0.67,1.22,-1.59,1742312167.06363
0.82,0.39,0.42,-1.89,-0.98,1.89,0.87,-0.47,0.13,-0.43,-0.24,-0.37,1742312167.177793
0.81,0.4,0.42,0.24,0.18,-0.73,0.87,-0.45,0.13,-0.31,-0.24,0.67,1742312167.295449
0.81,0.38,0.42,-0.37,0.49,-0.55,0.88,-0.45,0.12,1.22,0.24,-0.85,1742312167.4056268
0.82,0.38,0.43,-1.16,0.43,0.79,0.87,-0.46,0.13,-1.28,-0.67,0.67,1742312167.519754
0.81,0.4,0.42,-0.92,0.73,-1.22,0.87,-0.45,0.13,-0.24,0.06,-0.31,1742312167.635773
0.81,0.39,0.42,-0.24,-0.18,-0.31,0.88,-0.45,0.13,0.12,0.92,-0.49,1742312167.750369
0.81,0.39,0.42,0.43,-0.61,-0.12,0.88,-0.44,0.13,0.37,0.37,-0.43,1742312167.861465
0.81,0.39,0.42,-0.61,0.55,0.12,0.88,-0.45,0.13,0.79,0.12,0.0,1742312167.975422
0.81,0.39,0.42,0.43,-0.49,-0.24,0.87,-0.45,0.13,0.79,0.31,-1.16,1742312168.093889
0.81,0.38,0.42,-1.46,0.37,0.61,0.87,-0.46,0.13,-0.49,0.24,0.24,1742312168.202529
0.81,0.4,0.42,-0.85,0.31,-0.73,0.87,-0.45,0.13,-0.49,0.18,0.24,1742312168.316458
0.81,0.39,0.42,0.55,-0.31,-0.31,0.88,-0.44,0.13,0.06,0.43,0.85,1742312168.43043
0.81,0.39,0.43,0.79,-0.55,-0.67,0.87,-0.44,0.14,-0.43,-0.55,0.85,1742312168.543583
0.81,0.39,0.42,0.0,0.24,-0.98,0.88,-0.45,0.13,0.73,0.67,0.24,1742312168.657343
0.81,0.38,0.43,0.92,-0.06,-1.1,0.88,-0.44,0.13,0.12,-0.24,-0.49,1742312168.773858
0.81,0.39,0.42,-0.73,1.53,0.12,0.87,-0.46,0.12,-0.31,-0.12,-0.06,1742312168.884676
0.81,0.4,0.42,-0.18,1.22,-0.67,0.87,-0.44,0.13,0.79,0.18,-1.04,1742312168.998438
0.81,0.39,0.42,0.73,0.0,0.67,0.88,-0.45,0.14,0.24,-0.43,-0.24,1742312169.1136
0.82,0.39,0.41,0.06,0.55,0.06,0.87,-0.44,0.14,0.0,0.0,-2.08,1742312169.226465
0.82,0.38,0.41,-1.53,0.18,1.28,0.87,-0.47,0.14,-1.4,0.31,-1.4,1742312169.34054
0.81,0.41,0.42,-1.59,-0.98,0.06,0.88,-0.44,0.15,-1.53,0.92,1.4,1742312169.454387
0.81,0.39,0.41,0.61,-0.98,-1.34,0.89,-0.44,0.12,2.56,-0.98,-0.67,1742312169.5688698
0.81,0.39,0.44,2.5,3.48,1.1,0.88,-0.48,0.15,-1.95,-12.7,3.54,1742312169.6825159
0.82,0.4,0.41,-0.49,12.7,-7.63,0.94,-0.41,0.11,-11.84,-25.15,-0.67,1742312169.796602
0.83,0.32,0.46,-6.59,29.17,-5.68,1.0,-0.31,0.12,-35.71,-71.84,-7.45,1742312169.910624
0.85,0.31,0.42,-30.7,91.25,7.32,0.78,-0.47,0.35,-17.27,-98.69,-22.95,1742312170.0246131
0.84,0.46,0.12,-5.31,106.26,27.28,0.55,-0.56,0.52,6.77,-99.43,-16.66,1742312170.1385221
0.77,0.56,-0.17,23.44,116.52,12.51,0.34,-0.62,0.7,1.22,-80.51,-13.31,1742312170.253672
0.76,0.45,-0.39,-17.52,82.82,5.49,0.36,-0.4,0.81,-25.33,-47.42,-19.1,1742312170.3665879
0.73,0.42,-0.48,-31.86,48.03,8.67,0.22,-0.49,0.95,-2.81,-17.76,-19.1,1742312170.480575
0.73,0.53,-0.66,-11.41,14.71,13.24,0.36,-0.51,0.77,8.54,14.53,4.64,1742312170.5942621
0.71,0.48,-0.46,9.16,-14.22,-1.59,0.38,-0.45,0.79,-1.59,5.31,-2.2,1742312170.71343
0.73,0.46,-0.47,-1.77,-3.23,0.73,0.37,-0.49,0.78,-0.06,2.62,-2.93,1742312170.821465
0.73,0.46,-0.48,-4.58,-2.56,2.08,0.38,-0.49,0.77,-2.87,2.26,-0.06,1742312170.9353979
0.73,0.46,-0.47,-2.08,-2.38,-0.92,0.38,-0.47,0.77,-0.49,2.81,-1.1,1742312171.0539598
0.74,0.47,-0.47,0.85,-2.75,0.49,0.38,-0.49,0.78,-1.46,1.53,0.49,1742312171.163275
0.74,0.47,-0.48,-1.59,-1.53,-0.18,0.36,-0.49,0.8,-5.92,1.95,1.28,1742312171.2773619
0.74,0.48,-0.51,-4.33,-7.39,0.67,0.41,-0.46,0.78,-7.2,6.47,9.83,1742312171.393153
0.75,0.46,-0.46,-7.14,-6.53,-7.63,0.41,-0.42,0.78,-0.06,0.31,1.53,1742312171.505261
0.75,0.44,-0.45,2.14,0.0,-0.43,0.39,-0.47,0.78,3.05,0.61,2.87,1742312171.618149
0.75,0.47,-0.47,7.45,-2.56,-2.26,0.42,-0.45,0.79,6.1,-0.43,0.92,1742312171.7331781
0.77,0.43,-0.44,4.33,-0.37,-0.79,0.39,-0.46,0.78,-0.85,1.1,2.62,1742312171.845238
0.76,0.45,-0.45,-0.49,-3.6,-2.5,0.43,-0.42,0.79,-2.99,4.64,0.79,1742312171.9582632
0.79,0.43,-0.43,-1.04,-6.53,-0.73,0.43,-0.45,0.77,-2.32,1.83,-3.42,1742312172.073306
0.78,0.46,-0.42,-2.56,-2.01,0.98,0.43,-0.45,0.77,0.55,0.92,0.55,1742312172.186107
0.78,0.45,-0.42,0.85,-1.95,-1.53,0.43,-0.44,0.77,0.92,1.77,0.0,1742312172.299114
0.78,0.44,-0.41,0.43,-1.95,0.31,0.43,-0.44,0.76,0.67,0.67,-1.71,1742312172.412415
0.78,0.45,-0.41,0.55,-0.24,1.22,0.43,-0.45,0.76,1.71,-1.65,-0.06,1742312172.52634
0.78,0.45,-0.41,2.69,1.95,-0.43,0.44,-0.47,0.75,2.01,-1.34,2.01,1742312172.640202
0.77,0.46,-0.41,1.59,2.44,-1.1,0.43,-0.45,0.77,1.22,-1.22,2.14,1742312172.754197
0.77,0.44,-0.43,-0.85,0.98,-1.22,0.43,-0.45,0.76,0.37,-2.38,-1.34,1742312172.8732328
0.77,0.45,-0.41,0.12,0.0,1.77,0.41,-0.46,0.78,-2.01,-0.37,-0.24,1742312172.982398
0.77,0.46,-0.44,-2.32,2.01,-0.73,0.43,-0.45,0.76,0.61,-0.12,0.61,1742312173.0961862
0.77,0.44,-0.42,-1.46,0.67,-0.43,0.45,-0.47,0.78,-6.35,-10.56,-0.55,1742312173.211953
0.77,0.42,-0.43,-14.53,6.23,-1.71,0.43,-0.48,0.81,-12.08,-35.28,-9.52,1742312173.324377
0.76,0.4,-0.45,-31.25,6.59,-4.39,0.37,-0.29,0.94,15.32,27.47,-9.03,1742312173.43822
0.69,0.33,-0.7,49.99,-6.29,-1.1,0.18,-0.26,0.4,17.27,-21.48,4.52,1742312173.552137
0.83,0.57,-0.32,65.73,43.03,-30.82,0.21,-0.24,0.53,82.64,-13.31,-21.24,1742312173.666286
0.9,0.42,-0.4,36.13,-5.98,-24.17,1.05,-1.08,1.21,58.84,0.61,-24.41,1742312173.780221
0.4,0.37,-0.7,-10.19,-29.6,18.98,0.53,-0.54,0.56,-98.75,54.38,5.68,1742312173.894186
0.81,0.57,-0.43,23.62,-70.31,19.96,0.08,-0.16,0.16,-39.06,-17.64,18.98,1742312174.012059
1.2,0.59,0.18,61.28,25.82,-26.73,0.24,-0.49,0.51,44.07,93.57,50.54,1742312174.122072
0.91,0.44,-0.34,-25.63,122.62,-29.6,0.85,-1.07,1.15,90.64,9.95,-53.22,1742312174.2353852
0.31,0.32,-0.95,51.09,23.8,-16.11,0.35,-0.69,1.08,-27.83,2.81,16.78,1742312174.35216
0.59,0.34,-0.3,-42.3,-56.27,53.1,0.22,-0.36,0.48,-46.45,-8.67,19.35,1742312174.463326
1.04,0.73,-0.11,-62.87,-52.37,49.62,0.14,-0.09,0.35,-14.65,-19.71,2.99,1742312174.577313
1.03,0.62,-0.18,14.89,57.19,-59.88,0.36,-0.65,0.39,-8.73,37.17,-0.92,1742312174.691649
0.55,0.32,-0.69,37.54,65.98,-67.57,0.83,-0.98,1.19,-27.95,26.55,-9.09,1742312174.805141
0.38,0.1,-0.86,14.89,-20.69,24.96,0.52,-0.51,0.37,-28.2,1.4,27.4,1742312174.919198
0.72,0.53,-0.75,8.24,-41.93,54.69,0.06,-0.25,0.37,-33.2,-11.47,22.03,1742312175.0332
1.22,0.69,0.02,-36.19,-21.18,38.94,0.25,-0.27,0.61,105.53,13.55,-23.32,1742312175.149686
0.89,0.61,-0.28,-14.1,49.5,-51.94,0.74,-0.5,0.93,145.08,-77.82,-84.23,1742312175.2611752
0.42,0.2,-0.75,58.47,63.11,-76.29,0.82,-0.76,0.82,-70.56,28.02,-5.19,1742312175.375197
0.41,0.16,-0.84,-4.94,-47.85,59.57,0.58,-0.64,0.32,68.97,-45.59,22.03,1742312175.49229
0.67,0.52,-0.87,-9.4,-80.26,69.82,0.02,-0.27,0.45,-17.21,-9.95,14.95,1742312175.6031601
1.27,0.7,-0.05,29.42,11.47,-31.25,0.39,-0.18,0.42,42.54,46.69,8.0,1742312175.716917
0.67,0.35,-0.41,0.98,14.28,-45.65,1.0,-0.77,1.24,-41.5,19.59,-24.54,1742312175.832835
0.4,0.12,-0.76,42.91,2.87,-12.15,0.85,-0.6,0.65,-47.24,-9.83,9.7,1742312175.9441721
0.54,0.36,-0.84,-14.83,-82.95,75.38,0.34,-0.32,0.47,32.17,4.15,20.26,1742312176.057956
1.04,0.84,-0.1,-61.52,-44.13,43.7,0.21,-0.21,0.24,0.18,8.12,9.03,1742312176.1729841
1.02,0.63,-0.05,55.6,51.7,-76.72,0.38,-0.54,0.37,-26.12,-7.14,5.92,1742312176.2841759
0.61,0.42,-0.46,25.82,71.17,-85.45,0.9,-0.99,0.98,-40.71,20.75,-8.61,1742312176.398134
0.4,0.09,-0.81,11.72,-0.49,11.54,0.58,-0.41,0.7,-23.44,7.93,0.49,1742312176.513178
0.79,0.54,-0.36,-26.43,-50.96,77.58,0.0,-0.34,0.49,-4.76,-27.71,29.66,1742312176.626255
1.19,0.73,0.25,-13.49,-33.39,13.24,0.38,-0.07,0.52,22.22,34.73,-9.03,1742312176.74014
0.96,0.52,-0.05,-49.01,48.71,-38.33,0.58,0.05,0.82,202.39,-116.33,-109.13,1742312176.853995
0.47,0.37,-0.62,45.04,50.6,-76.42,0.68,-0.59,0.83,-8.12,29.91,-78.06,1742312176.973515
0.56,0.19,-0.57,76.35,-7.75,20.57,0.2,-0.57,0.89,-31.37,42.05,-48.83,1742312177.082122
0.71,0.44,-0.33,76.66,-21.85,87.34,0.12,0.05,0.81,-112.0,53.1,-249.63,1742312177.195911
0.52,0.64,-0.37,122.19,-89.9,119.26,-0.25,-0.83,0.76,-123.17,43.95,-266.36,1742312177.3133519
0.4,1.03,0.11,130.62,-164.79,81.3,-0.38,-1.12,0.84,3.48,-1.16,-36.74,1742312177.4242501
0.27,0.94,0.71,64.39,-135.31,-29.36,-0.18,-0.56,0.79,-5.07,11.29,27.59,1742312177.538031
0.33,0.64,0.93,30.64,-16.54,-17.33,-0.13,-0.42,0.86,-3.97,-9.28,23.62,1742312177.654975
