acc_x,acc_y,acc_z,gyro_x,gyro_y,gyro_z,timestamp
0.001375,0.023375,0.11725,0.0005645,3.0500001e-05,-0.00062550005,1738726499.533827
0.00125,0.02425,0.118,0.00048825,-0.00045775,-0.00019825,1738726499.546803
0.0005,0.028,0.119375,0.0003815,-0.000534,-4.575e-05,1738726499.5602539
0.0,0.029625,0.11875,0.00016775,-0.00051875,-7.625e-05,1738726499.575167
-0.0005,0.030875,0.118875,-7.625e-05,-0.00065625,-0.00070200005,1738726499.589211
-0.001,0.03125,0.119625,-1.5250001e-05,-0.00064075,-0.0011445,1738726499.604863
-0.000875,0.0305,0.119375,-0.000229,-0.0005035,-0.00181575,1738726499.618409
0.00025,0.0285,0.119,-0.000122000005,-0.00042725,-0.0020905002,1738726499.634905
0.000875,0.027375,0.1175,0.00048825,-0.000412,-0.002365,1738726499.647352
0.00175,0.02675,0.114125,0.00036625,-0.00065625,-0.00231925,1738726499.6618571
0.00175,0.027,0.11475,-0.0003815,-0.00154125,-0.0020752498,1738726499.676338
0.00125,0.029,0.119625,-0.0005035,-0.00175475,-0.00213625,1738726499.690835
0.001,0.029875,0.1205,-0.0005035,-0.0017395001,-0.00238025,1738726499.7053041
0.0005,0.029625,0.121,-0.00083925005,-0.0016632499,-0.00320425,1738726499.719939
-0.000875,0.0265,0.12275,-0.00119025,-0.0016785001,-0.00354,1738726499.734756
-0.001375,0.024625,0.123625,-0.00146475,-0.00154125,-0.0037385002,1738726499.749121
-0.0,0.01775,0.12475,-0.001526,-0.0014037499,-0.0036162501,1738726499.76546
0.002,0.011875,0.12375,-0.001831,-0.0012055,-0.0028687501,1738726499.778197
0.010375,-0.017625,0.1195,-0.0025025,-0.00160225,-0.002243,1738726499.794762
0.017,-0.05575,0.11675,-0.00665275,-0.00411975,0.0025940002,1738726499.807317
0.030375,-0.183125,0.116125,-0.0110625,-0.0063477503,0.009903,1738726499.821816
0.02825,-0.216375,0.131,-0.016448999,-0.0089875,0.02259825,1738726499.83652
0.016,-0.2005,0.153625,-0.024078252,-0.01086425,0.055191003,1738726499.851004
-0.0225,-0.100625,0.188625,-0.0263825,-0.0084379995,0.06723025,1738726499.865679
-0.0415,-0.05975,0.194125,-0.028747499,0.00131225,0.07843025,1738726499.880206
-0.07675,-0.011,0.16825,-0.02781675,0.0077515002,0.080932505,1738726499.894795
-0.096875,0.027375,0.146625,-0.0245515,0.018310498,0.08462525,1738726499.909156
-0.125125,0.130125,0.100625,-0.02503975,0.022766002,0.082244754,1738726499.924842
-0.133125,0.16075,0.07075,-0.023040751,0.0266265,0.0681305,1738726499.9379132
-0.133,0.21975,0.0325,-0.01921075,0.025115998,0.059906,1738726499.952339
-0.131375,0.2665,0.0285,-0.0138245,0.021927001,0.050003,1738726499.9667368
-0.117,0.281125,0.025125,-0.0028229998,0.013443,0.01651,1738726499.981123
-0.076875,0.22775,0.040375,-0.00033575002,0.0085602505,-0.0001525,1738726499.99561
-0.060125,0.196625,0.053,0.0075835,0.00308225,-0.023285,1738726500.010061
-0.034875,0.143875,0.059125,0.012557999,0.0020905002,-0.0312195,1738726500.0251992
-0.024375,0.115375,0.051625,0.020218,-0.00067150005,-0.0423125,1738726500.0391219
-0.012,0.080625,0.041625,0.0224,-0.0037537501,-0.045868002,1738726500.0550709
-0.015375,0.08425,0.050125,0.02313225,-0.00794975,-0.048995998,1738726500.068079
-0.025375,0.09675,0.066,0.0188445,-0.01570125,-0.058044497,1738726500.083068
-0.05425,0.103125,0.1025,0.01460275,-0.018097,-0.06466675,1738726500.097111
-0.066375,0.08325,0.117625,0.009140001,-0.01857,-0.0763855,1738726500.11158
-0.069875,-0.00475,0.123625,0.00975025,-0.01681525,-0.07795725,1738726500.126199
-0.059,-0.04825,0.12125,0.00930775,-0.0134735005,-0.06843575,1738726500.1408331
-0.0295,-0.078,0.12975,0.0070342496,-0.012695249,-0.05903625,1738726500.1554182
-0.019875,-0.056,0.141375,0.00488275,-0.00962825,-0.04129025,1738726500.170099
-0.0135,0.000875,0.152,0.0056,-0.00747675,-0.03718575,1738726500.1850739
-0.01275,0.010875,0.152,0.0059510004,-0.005539,-0.0365295,1738726500.199115
-0.01175,0.002625,0.149125,0.00567625,-0.00254825,-0.0385285,1738726500.216148
-0.003875,-0.048625,0.13375,0.005005,-0.0012970001,-0.03775025,1738726500.2281868
0.003375,-0.10075,0.124125,-0.00064075,-0.0031585,-0.027954001,1738726500.2430909
0.01875,-0.18975,0.138125,-0.0053252503,-0.00535575,-0.0160675,1738726500.2573829
0.019875,-0.20025,0.15275,-0.01586925,-0.0062712496,0.01634225,1738726500.271895
0.00525,-0.157875,0.168375,-0.0213165,-0.00491325,0.03167725,1738726500.286439
-0.003625,-0.156375,0.16125,-0.026352,-0.0029755002,0.043869,1738726500.30102
-0.03375,-0.180125,0.13275,-0.03302,0.00071725,0.068222,1738726500.315831
-0.05875,-0.13975,0.12375,-0.03347775,0.0025940002,0.08415225,1738726500.330461
-0.085625,-0.0435,0.12625,-0.02677925,0.0077667497,0.10926825,1738726500.3452249
-0.119,0.137125,0.1295,-0.020401,0.01200875,0.108764745,1738726500.359324
-0.12975,0.178875,0.112625,-0.0099945,0.02085875,0.08992,1738726500.375307
-0.1425,0.2455,0.06075,-0.0076905,0.022934001,0.07695,1738726500.388124
-0.143125,0.281,0.04075,-0.0056304997,0.018753,0.044967752,1738726500.402977
-0.121375,0.313375,0.043625,-0.00325,0.013916001,0.024078252,1738726500.4169412
-0.101375,0.28825,0.059625,-0.001175,0.00953675,0.0020599999,1738726500.431277
-0.083125,0.253,0.068875,0.008788999,0.00662225,-0.032074,1738726500.4458282
-0.055,0.188625,0.071875,0.015090999,0.0068207504,-0.044098,1738726500.460223
-0.044875,0.147875,0.059875,0.02943425,0.00621025,-0.062377997,1738726500.475286
-0.01825,0.000875,0.02675,0.0338745,0.00308225,-0.0667115,1738726500.489197
-0.00175,-0.068125,0.02675,0.023697,-0.0091705,-0.05844125,1738726500.505564
0.012125,-0.08325,0.08525,0.0141145,-0.015304499,-0.048034754,1738726500.518512
0.0065,-0.0445,0.1255,0.0057525,-0.019042999,-0.032043498,1738726500.5353642
-0.0095,0.02125,0.163375,0.0070342496,-0.01664725,-0.029754749,1738726500.547582
-0.016,0.034375,0.162375,0.0080567505,-0.01307675,-0.0302125,1738726500.562155
-0.0215,0.033875,0.154625,0.0071105,-0.0061339997,-0.03335575,1738726500.5766232
-0.025375,-0.007375,0.1275,0.00764475,-0.0039825,-0.03370675,1738726500.5912352
-0.022,-0.035,0.1145,0.0050202496,-0.0045012496,-0.027649,1738726500.6057842
-0.015125,-0.041875,0.125125,0.0024872501,-0.0063477503,-0.021469,1738726500.6204312
-0.015125,-0.021,0.141375,0.0022125002,-0.00671375,-0.01121525,1738726500.6357582
-0.016875,0.023375,0.162625,0.00305175,-0.0046845004,-0.009674,1738726500.649517
-0.017125,0.034375,0.163,0.0021819999,0.00163275,-0.01193225,1738726500.6665542
-0.017375,0.027375,0.151875,0.00131225,0.00466925,-0.013854999,1738726500.678509
-0.0165,0.008125,0.1415,0.0010375,0.007019,-0.015274,1738726500.6953468
-0.01375,-0.019875,0.1315,0.0028535,0.00823975,-0.012436,1738726500.707526
-0.008125,-0.064625,0.1265,0.00340275,0.007782,-0.0065307496,1738726500.7220008
-0.006125,-0.07775,0.12725,0.00228875,0.0074920002,0.01092525,1738726500.7366452
-0.000375,-0.14575,0.118375,0.0018005001,0.00773625,0.021514999,1738726500.751096
-0.002375,-0.1855,0.110625,0.00071725,0.00688175,0.052826,1738726500.766845
-0.030625,-0.152375,0.114625,0.00035100002,0.00531,0.07221975,1738726500.7800052
-0.04825,-0.092625,0.132,0.00213625,0.00384525,0.089324996,1738726500.795518
-0.067,0.00225,0.159,0.0065002497,0.0060882503,0.10643,1738726500.80906
-0.067875,0.04725,0.137125,0.0038299998,0.010162249,0.1079255,1738726500.8255942
-0.07125,0.098125,0.097375,-0.012771499,0.013214,0.097900495,1738726500.838042
-0.08975,0.19925,0.05475,-0.019592252,0.00897225,0.085266,1738726500.853185
-0.09675,0.232,0.060375,-0.017151,-0.00024425,0.0489655,1738726500.8670661
-0.09375,0.204,0.086625,-0.01145925,-0.003418,0.030365,1738726500.881744
-0.091125,0.178875,0.10975,0.0005645,-0.004074,0.0048217503,1738726500.896239
-0.077375,0.157125,0.1455,0.0057372497,-0.00065625,-0.0045165,1738726500.910954
-0.065375,0.1545,0.1455,0.0100707505,0.00428775,-0.013351499,1738726500.925983
-0.05225,0.1525,0.131375,0.014038,0.012832751,-0.031997748,1738726500.940157
-0.03325,0.115375,0.0995,0.013503999,0.01390075,-0.04208375,1738726500.9558861
-0.02675,0.06525,0.0865,0.010376001,0.0106965,-0.057312,1738726500.969044
-0.007125,-0.070125,0.073125,0.009155249,0.00708,-0.057449248,1738726500.985889
0.002625,-0.09475,0.087,0.01121525,-0.0002135,-0.038314752,1738726500.998334
0.00825,-0.02675,0.122625,0.011825499,-0.001831,-0.027298,1738726501.0127842
0.005,0.019125,0.138375,0.008346501,-0.0017395001,-0.0215455,1738726501.027201
-0.00575,0.061625,0.148125,0.00640875,-0.00019825,-0.026092501,1738726501.0417259
-0.012,0.061875,0.140625,0.004837,0.0017852499,-0.032364,1738726501.0561159
-0.01875,0.057875,0.130875,0.0019989999,0.004776,-0.042846747,1738726501.070581
-0.029375,0.03075,0.121,0.00160225,0.00538625,-0.04628,1738726501.0861068
-0.028125,0.00475,0.113625,0.00154125,0.00541675,-0.047485247,1738726501.0994828
-0.016,-0.017875,0.10475,0.00193775,0.0041810004,-0.04435725,1738726501.1165261
-0.00925,-0.005375,0.103375,0.00555425,0.0015105,-0.03707875,1738726501.128575
-0.0015,0.01425,0.101625,0.0064545004,-0.0002135,-0.035965,1738726501.1457121
-0.002375,0.014625,0.11175,0.0042115003,-0.002472,-0.036514252,1738726501.1576781
-0.0105,0.0035,0.1465,-0.0065612504,-0.0050355,-0.039199747,1738726501.172309
-0.01425,-0.0125,0.157875,-0.0093995,-0.004013,-0.0394745,1738726501.1869912
-0.014125,-0.039375,0.159375,-0.00531,0.00125125,-0.033661,1738726501.201764
0.0005,-0.102625,0.1365,-0.002533,0.0034484998,-0.026184,1738726501.217419
0.012625,-0.132375,0.121625,-0.00270075,0.0031127501,-0.0038605002,1738726501.230837
0.027875,-0.204625,0.1065,-0.0035095,0.00059500005,0.0113525,1738726501.246231
0.024875,-0.22275,0.106,-0.0068969997,-0.0042725,0.05072025,1738726501.259862
-0.008,-0.1875,0.1065,-0.009811499,-0.00561525,0.071106,1738726501.275881
-0.03075,-0.141125,0.11225,-0.0090637505,-0.00646975,0.10224925,1738726501.289112
-0.065125,-0.053875,0.1335,-0.00643925,-0.0053252503,0.111343496,1738726501.3059561
-0.08,-0.006,0.145,-0.0037079998,-0.0028229998,0.11695851,1738726501.318402
-0.091125,0.039125,0.143125,-0.0063325,0.0049285004,0.11578375,1738726501.335707
-0.106125,0.118375,0.09725,-0.01272575,0.0069580004,0.109909,1738726501.347167
-0.125,0.195,0.083875,-0.014038,0.0051880004,0.0885925,1738726501.3617651
-0.113,0.28125,0.0955,-0.010559,0.0025634998,0.06513975,1738726501.376195
-0.09875,0.2435,0.11025,-0.008270251,-0.002121,0.01690675,1738726501.390831
-0.073,0.134,0.134125,-0.00715625,-0.001831,0.00187675,1738726501.406234
-0.05975,0.10875,0.134,-0.0038299998,0.00077825,-0.0070952503,1738726501.419924
-0.033625,0.10025,0.106625,0.00399775,0.0068969997,-0.017685,1738726501.4363499
-0.02275,0.099875,0.090875,0.0055847503,0.0076599997,-0.0230255,1738726501.44877
-0.01475,0.096,0.079625,0.00688175,0.0037537501,-0.03541575,1738726501.463922
-0.01,0.084625,0.078625,0.0068207504,0.000229,-0.041183498,1738726501.477704
-0.014375,0.090625,0.0885,0.009277251,-0.0053709997,-0.05169675,1738726501.492244
-0.03325,0.095125,0.103,0.01197825,-0.0065307496,-0.058426,1738726501.506776
-0.04375,0.08075,0.10575,0.013549751,-0.007843,-0.072876,1738726501.521284
-0.055375,0.01,0.10825,0.011795,-0.00868225,-0.0780335,1738726501.536282
-0.052625,-0.03925,0.11075,0.00930775,-0.009842,-0.07962025,1738726501.550379
-0.04425,-0.08375,0.11525,0.0053709997,-0.0111085,-0.0674285,1738726501.566968
-0.01775,-0.131125,0.1265,0.0049895,-0.01048275,-0.0546265,1738726501.579596
-0.007,-0.116875,0.13375,0.0073242504,-0.0078735,-0.02449025,1738726501.5959702
0.000125,-0.010625,0.146875,0.01092525,-0.00671375,-0.014709501,1738726501.6087732
-0.00725,0.018125,0.150125,0.01278675,-0.00393675,-0.0151825,1738726501.626219
-0.007375,0.03825,0.146875,0.008667,-0.00190725,-0.0186005,1738726501.637789
-0.008375,0.029375,0.139125,0.01095575,-0.00061025,-0.0301055,1738726501.6557171
-0.012875,-0.06225,0.12425,0.0115815,-0.00042725,-0.032424998,1738726501.667094
-0.0095,-0.0815,0.117375,0.007904,3.0500001e-05,-0.02696225,1738726501.681495
-0.0065,-0.074125,0.116625,-0.00242625,-0.00109875,-0.0058899997,1738726501.696169
-0.00475,-0.035125,0.138,-0.0052185003,-0.0018615,0.0020295,1738726501.710818
-0.003875,-0.0345,0.1425,-0.0065307496,-0.00042725,0.008606,1738726501.726124
0.00175,-0.1,0.12725,-0.0077972496,0.00029,0.012130749,1738726501.7398
0.002375,-0.1555,0.11625,-0.0143737495,-0.00042725,0.03114325,1738726501.755862
-0.021,-0.2565,0.101625,-0.016448999,-0.001419,0.049621496,1738726501.768918
-0.054,-0.234625,0.124,-0.00691225,-0.00216675,0.10281375,1738726501.7857542
-0.12,-0.098875,0.1995,0.00263975,0.00148,0.12478625,1738726501.798025
-0.139375,-0.026,0.2135,0.01104725,0.009002751,0.1384125,1738726501.8124192
-0.147375,0.044375,0.19525,0.0068055,0.026596,0.14025874,1738726501.8267992
-0.128375,0.175125,0.112875,-0.0045165,0.031784,0.12875375,1738726501.841205
-0.1145,0.23775,0.062,-0.018463248,0.026825001,0.09193425,1738726501.856075
-0.091375,0.302,0.014125,-0.01896675,0.01708975,0.06552125,1738726501.870091
-0.07775,0.250125,0.027125,-0.01322925,-0.0042115003,0.0099639995,1738726501.8859332
-0.06325,0.141125,0.10875,-0.0058135,-0.009872501,-0.0065155,1738726501.8993762
-0.054625,0.1175,0.1345,0.0075225,-0.0061645,-0.02278125,1738726501.9171178
-0.02975,0.106,0.116625,0.00897225,-0.00198375,-0.02873225,1738726501.928475
-0.01975,0.102125,0.097375,0.00868225,0.00030525,-0.0355835,1738726501.9458601
-0.012625,0.0865,0.0795,0.006775,-0.002411,-0.051712003,1738726501.957525
-0.00875,0.042625,0.06725,0.00469975,-0.0068665,-0.057785,1738726501.972063
-0.012875,0.029,0.078375,0.0037995,-0.01640325,-0.06410225,1738726501.986816
-0.0295,0.018375,0.112,0.0057372497,-0.018890498,-0.0655365,1738726502.0013871
-0.038875,0.01675,0.125,0.0101165,-0.018814,-0.06716925,1738726502.017337
-0.054625,0.011125,0.141,0.010528499,-0.01705925,-0.067459,1738726502.0304189
-0.056875,0.01825,0.15075,0.015808,-0.012634249,-0.069320746,1738726502.046449
-0.062625,-0.0465,0.1365,0.020111,-0.009216251,-0.07221975,1738726502.059583
-0.0535,-0.0915,0.12,0.016448999,-0.00621025,-0.0694885,1738726502.076086
-0.040625,-0.099125,0.115875,0.0048979996,-0.0052337497,-0.0457915,1738726502.088893
-0.02325,-0.082375,0.130875,0.00564575,-0.0049895,-0.03474425,1738726502.105828
-0.017875,-0.061,0.136875,0.010147001,-0.00225825,-0.018280001,1738726502.118146
-0.011,-0.015125,0.138625,0.0085755,-0.00109875,-0.01560975,1738726502.1355782
-0.007375,-0.024,0.135125,0.00193775,0.00010675,-0.0186615,1738726502.1474922
-0.002625,-0.082375,0.11575,-0.000824,-6.1000002e-05,-0.018463248,1738726502.162171
-0.001625,-0.11775,0.106875,-0.0080567505,-0.00328075,-0.0061035,1738726502.1769228
-0.00925,-0.142875,0.116375,-0.010879501,-0.0057372497,0.0065612504,1738726502.19155
-0.014875,-0.143,0.131,-0.012802,-0.00717175,0.0203705,1738726502.206182
-0.036875,-0.093625,0.1555,-0.0099639995,-0.0038757501,0.04800425,1738726502.220824
-0.0445,-0.073375,0.152875,-0.004837,-0.00027475,0.05900575,1738726502.2357981
-0.048625,-0.07925,0.136125,-0.00187675,0.0056609996,0.0742035,1738726502.249896
-0.064125,-0.1305,0.112,-0.003662,0.006012,0.083023004,1738726502.267039
-0.080375,-0.135375,0.133,-0.0021972498,0.007019,0.11012275,1738726502.279299
-0.104375,-0.025375,0.183125,-0.00157175,0.011901749,0.123703,1738726502.296227
-0.11625,0.055875,0.162125,-0.01731875,0.022461,0.1284485,1738726502.3082051
-0.103625,0.18175,0.123375,-0.02613825,0.024993999,0.11537175,1738726502.325925
-0.08675,0.1955,0.0845,-0.02790825,0.028473,0.075058,1738726502.3371992
-0.068625,0.2055,-0.004,-0.028594999,0.023056,0.055252,1738726502.35183
-0.0665,0.193625,-0.00325,-0.02775575,0.011856,0.035263002,1738726502.367129
-0.06825,0.18,0.028375,-0.007309,-0.010879501,0.00057975,1738726502.380789
-0.07125,0.158875,0.118625,0.00614925,-0.0159455,-0.0139465,1738726502.3960278
-0.07,0.145375,0.129125,0.0180665,-0.01310725,-0.038772497,1738726502.409763
-0.070375,0.133625,0.115625,0.0214385,-0.00997925,-0.049194247,1738726502.4260092
-0.071125,0.13375,0.100625,0.02870175,-0.0052185003,-0.07180775,1738726502.440483
-0.08175,0.1295,0.09275,0.02648925,-0.0062712496,-0.08450325,1738726502.4559622
-0.094625,0.113125,0.1025,0.01918025,-0.00924675,-0.097900495,1738726502.4678102
-0.106125,0.068625,0.108,0.0025025,-0.017395,-0.12052925,1738726502.482274
-0.097875,-0.044875,0.123125,0.00517275,-0.02127075,-0.12599175,1738726502.496886
-0.09475,-0.168,0.126875,0.020034749,-0.01823425,-0.1220245,1738726502.5115662
-0.042625,-0.341,0.122125,0.01194775,-0.0137635,-0.091446,1738726502.5263512
-0.022125,-0.243375,0.15675,0.00579825,-0.010253999,-0.0118407495,1738726502.541096
-0.01725,-0.017375,0.20975,0.00997925,-0.00463875,0.00434875,1738726502.556134
-0.018875,0.040625,0.19575,0.011139,0.010101249,-0.00131225,1738726502.570081
-0.0195,0.05825,0.136,0.007599,0.014053251,-0.0115967505,1738726502.5860538
-0.02,0.03075,0.109875,0.002884,0.014557,-0.021484248,1738726502.599054
-0.0165,-0.016125,0.094,-0.0045625,0.009002751,-0.030731251,1738726502.6170151
-0.0115,-0.089125,0.082375,-0.0047150003,0.00546275,-0.026657,1738726502.628371
-0.013625,-0.074625,0.09125,-0.0047150003,-3.0500001e-05,-0.0065155,1738726502.646629
-0.015,0.002875,0.129875,-0.004486,-0.001114,3.0500001e-05,1738726502.6575968
-0.01425,0.0175,0.1395,-0.003006,0.0013275,-0.00109875,1738726502.672288
-0.011375,-0.0055,0.131875,-0.0028687501,0.00325,-0.0033722501,1738726502.686883
-0.008625,-0.036125,0.130375,-0.00531,0.00662225,-0.00108325,1738726502.7015522
0.002875,-0.126,0.108125,-0.0071105,0.008941749,0.00637825,1738726502.7171168
0.00775,-0.161875,0.085625,-0.010742251,0.00833125,0.036316004,1738726502.7306619
0.00275,-0.16875,0.09575,-0.0134735005,0.00402825,0.05372625,1738726502.7460532
-0.007125,-0.1725,0.128875,-0.017455999,0.00030525,0.069198504,1738726502.759577
-0.023125,-0.184,0.162875,-0.02427675,0.0036315,0.09759525,1738726502.7759922
-0.07475,-0.116625,0.233375,-0.0209655,0.01077275,0.11251825,1738726502.7888892
-0.093125,-0.055875,0.234375,-0.0274505,0.0331115,0.1236725,1738726502.805805
-0.116125,0.049125,0.157875,-0.04318225,0.0430145,0.12055975,1738726502.817905
-0.1215,0.1155,0.103625,-0.06587225,0.0525055,0.102081254,1738726502.832358
-0.114625,0.20025,-0.031,-0.0647125,0.049514752,0.0854645,1738726502.847021
-0.10225,0.209625,-0.060625,-0.037094,0.0236665,0.0467835,1738726502.8615592
-0.086,0.209625,-0.005,-0.0211945,0.00798025,0.030716,1738726502.876054
-0.081,0.204375,0.043,-0.0062865,-0.0037385002,0.01664725,1738726502.8907452
-0.073875,0.18875,0.082875,0.019226,-0.0113525,-0.008514499,1738726502.905838
-0.048625,0.1135,0.097375,0.025772,-0.010162249,-0.017974751,1738726502.9197922
-0.034125,0.076875,0.09075,0.0218505,-0.00833125,-0.025299,1738726502.935879
-0.008,0.032875,0.07975,0.0158845,-0.00862125,-0.0249635,1738726502.949059
-0.000875,0.027625,0.0795,0.013290499,-0.01200875,-0.02342225,1738726502.9642398
-0.001,0.05525,0.097625,0.01838675,-0.014434749,-0.02418525,1738726502.9779751
-0.00675,0.0695,0.108,0.0296325,-0.018448,-0.0319825,1738726502.992954
-0.028625,0.101625,0.126875,0.0329285,-0.019577,-0.037841752,1738726503.006948
-0.042,0.114125,0.140875,0.035278253,-0.020172002,-0.045578,1738726503.021473
-0.055875,0.116,0.153375,0.033569247,-0.0174865,-0.06561275,1738726503.036185
-0.07625,0.071125,0.151125,0.028778,-0.0141145,-0.07536325,1738726503.0505679
-0.078125,0.03075,0.1355,0.016418502,-0.0077972496,-0.0854035,1738726503.0669281
-0.0685,-0.02375,0.1195,0.0106965,-0.0066985004,-0.08439625,1738726503.0797818
-0.061625,-0.035,0.129375,0.0057525,-0.0050965,-0.07630925,1738726503.095894
-0.046875,-0.039,0.152375,0.0059967497,-0.00225825,-0.070556745,1738726503.109011
-0.03925,-0.037125,0.15325,0.0069580004,0.00169375,-0.06472775,1738726503.12588
-0.027,-0.04525,0.145375,0.006668,0.0085602505,-0.0555725,1738726503.137984
-0.018875,-0.052875,0.14625,0.0052795,0.010742251,-0.051651,1738726503.1559029
-0.006875,-0.06075,0.141125,-0.00039675,0.01454175,-0.04296875,1738726503.167413
0.011125,-0.101625,0.114,-0.0040587503,0.014724749,-0.037155252,1738726503.18156
0.01875,-0.102375,0.103875,-0.00541675,0.012207,-0.01911925,1738726503.196249
0.0275,-0.08775,0.091875,-0.0056609996,0.0089875,-0.011612001,1738726503.210689
0.02875,-0.083375,0.098375,-0.007965,0.00071725,0.000763,1738726503.226024
0.031875,-0.114625,0.1215,-0.011184749,-0.00157175,0.0073547503,1738726503.2395499
0.0355,-0.1685,0.1125,-0.0157775,-0.0017242499,0.0158845,1738726503.255709
0.0355,-0.2305,0.090125,-0.025055,-0.0022277501,0.0482635,1738726503.268718
-0.003375,-0.23975,0.06925,-0.02696225,-0.00469975,0.072464,1738726503.285867
-0.038125,-0.187125,0.077375,-0.02507025,-0.009948749,0.1154785,1738726503.297858
-0.09325,-0.0015,0.14625,-0.02189625,-0.009597749,0.12738025,1738726503.316449
-0.10225,0.088875,0.16025,-0.030136,0.0017395001,0.121994,1738726503.32719
-0.10625,0.184125,0.107125,-0.03904725,0.0075072497,0.1077575,1738726503.341689
-0.111125,0.18625,0.073625,-0.04653925,0.00891125,0.074997,1738726503.356071
-0.126875,0.1925,0.064875,-0.038818248,0.0061339997,0.061752252,1738726503.370511
-0.130375,0.190875,0.085625,-0.02746575,0.0037537501,0.04925525,1738726503.386237
-0.123,0.182875,0.106375,-0.0053252503,0.00402825,0.0239105,1738726503.399767
-0.099625,0.1735,0.130875,0.0064545004,0.00611875,0.01251225,1738726503.416994
-0.084,0.160875,0.124625,0.022643998,0.01115425,-0.008606,1738726503.428562
-0.052875,0.126125,0.079625,0.0224,0.0112915,-0.0172425,1738726503.445823
-0.040375,0.1085,0.067375,0.018509,0.00440975,-0.032013,1738726503.457356
-0.01825,0.0595,0.062625,0.01968375,-0.000183,-0.03775025,1738726503.471839
-0.01175,0.04525,0.0655,0.022216748,-0.00488275,-0.04176325,1738726503.4865432
-0.01425,0.063375,0.10875,0.02737425,-0.013412501,-0.04679875,1738726503.500885
-0.0225,0.08225,0.128375,0.03120425,-0.014099,-0.050033502,1738726503.516978
-0.033,0.093375,0.13,0.031692497,-0.010009751,-0.0625,1738726503.529953
-0.057375,0.084,0.13175,0.025772,-0.009674,-0.07089225,1738726503.546269
-0.0665,0.0515,0.13975,0.008651749,-0.009002751,-0.085800245,1738726503.558997
-0.05025,-0.104625,0.130625,0.000885,-0.0070647504,-0.0872955,1738726503.575989
-0.027875,-0.170875,0.121125,-0.0042115003,-0.0042725,-0.062317003,1738726503.588243
-0.002625,-0.127,0.138375,0.00071725,-0.00352475,-0.04034425,1738726503.60589
-0.0025,-0.05425,0.14975,0.0071105,-0.0015565,-0.02177425,1738726503.617472
-0.00775,0.04775,0.15325,0.013046251,0.0044555003,-0.009781,1738726503.6318731
-0.01025,0.062375,0.150875,0.011764499,0.0069274995,-0.013854999,1738726503.6463318
-0.011625,0.05225,0.141625,0.00596625,0.010437001,-0.027542,1738726503.660765
-0.007625,-0.027375,0.1095,0.0020599999,0.0102235,-0.03155525,1738726503.67552
-0.00025,-0.067875,0.095375,-0.0056,0.00570675,-0.024063,1738726503.6899788
0.008,-0.07625,0.098125,-0.0068207504,0.0025787498,-0.013443,1738726503.705868
0.006625,-0.041875,0.11075,-0.0012055,-0.00051875,0.0054780003,1738726503.7189262
0.00175,0.0055,0.131375,0.0017242499,0.0,0.009262,1738726503.735789
0.00375,-0.005125,0.127625,0.0028074998,0.0015105,0.010452249,1738726503.747466
0.00925,-0.04525,0.1105,-0.00039675,0.003662,0.01542675,1738726503.761853
0.020125,-0.164125,0.070625,-0.0027160002,0.0023345,0.02497875,1738726503.776403
0.01525,-0.19425,0.061125,-0.0038299998,-0.0041044997,0.06073,1738726503.790974
-0.0195,-0.152375,0.071875,-0.00270075,-0.008651749,0.08120725,1738726503.8061812
-0.039625,-0.09325,0.1045,-0.00169375,-0.01460275,0.110092245,1738726503.820241
-0.06375,0.03125,0.153875,-0.00511175,-0.0129700005,0.11387625,1738726503.8364348
-0.068875,0.0705,0.16675,-0.009216251,-0.00941475,0.111084,1738726503.84925
-0.08025,0.104375,0.131,-0.017868,-0.00030525,0.094848745,1738726503.8671591
-0.09175,0.12375,0.1135,-0.02313225,0.001175,0.08525075,1738726503.8781261
-0.1015,0.126625,0.112125,-0.02886975,-0.0007325,0.06318675,1738726503.895803
-0.115125,0.12875,0.128,-0.02633675,-0.00071725,0.052383497,1738726503.907157
-0.112125,0.127625,0.14,-0.01368725,0.00245675,0.02790825,1738726503.9216871
-0.097,0.1235,0.1445,-0.011795,0.00535575,0.017395,1738726503.936065
-0.0885,0.13475,0.1425,-0.013061499,0.0114744995,-0.00048825,1738726503.9505339
-0.062,0.108875,0.10475,-0.0105742505,0.0139770005,-0.009445249,1738726503.967009
-0.045625,0.07475,0.076625,-0.0065917503,0.01475525,-0.01670825,1738726503.979768
-0.03075,0.04875,0.056875,0.00283825,0.009948749,-0.0223235,1738726503.995738
-0.01325,0.055625,0.057875,0.008361749,0.0054932497,-0.022827249,1738726504.008856
-0.011875,0.07625,0.0755,0.01882925,-0.00251775,-0.028594999,1738726504.0259058
-0.018625,0.1055,0.108,0.023101749,-0.0043182503,-0.03494275,1738726504.037909
-0.02475,0.108125,0.115625,0.027435249,-0.004486,-0.051178,1738726504.052664
-0.04325,0.09875,0.118125,0.0265045,-0.0040587503,-0.0594025,1738726504.067093
-0.053,0.08075,0.112375,0.0236665,-0.0045625,-0.074646,1738726504.0814269
-0.06225,0.01225,0.10825,0.023407,-0.0058287503,-0.07981875,1738726504.096253
-0.060375,-0.022125,0.1085,0.02336125,-0.0068055,-0.08161925,1738726504.110527
-0.0535,-0.040875,0.112,0.025115998,-0.006668,-0.07440175,1738726504.1263769
-0.043375,-0.02625,0.1315,0.0312195,-0.0050812503,-0.069503754,1738726504.139786
-0.049625,-0.056375,0.140375,0.0301055,0.00163275,-0.05903625,1738726504.156037
-0.031125,-0.046125,0.1575,0.0187225,0.00617975,-0.048446752,1738726504.168857
-0.025125,-0.0215,0.160375,0.0065307496,0.013717749,-0.04060375,1738726504.186123
-0.014,-0.03625,0.130125,0.00723275,0.017501751,-0.04087825,1738726504.197911
-0.0075,-0.041875,0.103625,0.0065155,0.01814275,-0.03604125,1738726504.212432
0.00625,-0.03825,0.098625,0.0029449998,0.0143737495,-0.033203,1738726504.226917
0.005125,-0.042125,0.1095,-0.0022277501,0.010391249,-0.03111275,1738726504.241413
0.00675,-0.053125,0.121,-0.00419625,0.007309,-0.0253295,1738726504.256407
0.017,-0.087,0.106625,-0.0044555003,0.00747675,-0.02026375,1738726504.2704341
0.022,-0.10475,0.096375,-0.008727999,0.00367725,-0.00517275,1738726504.286276
0.026125,-0.131125,0.0955,-0.01026925,0.000473,0.0044555003,1738726504.299364
0.025625,-0.15525,0.0995,-0.016113251,-0.0047607496,0.027099501,1738726504.3169081
0.014625,-0.21775,0.083875,-0.020477248,-0.0064239996,0.042511,1738726504.328432
-0.004625,-0.2225,0.06675,-0.02244575,-0.00842275,0.061996497,1738726504.3458471
-0.06325,-0.134875,0.083,-0.01368725,-0.0156555,0.10546875,1738726504.357728
-0.08325,-0.080125,0.111875,-0.0072175004,-0.018814,0.12077325,1738726504.375885
-0.095125,-0.035125,0.134125,-0.00852975,-0.016632,0.1312865,1738726504.386913
-0.122,0.102375,0.167125,-0.0111085,-0.01206975,0.129837,1738726504.4014149
-0.123875,0.177625,0.15475,-0.01510625,-0.001892,0.104003996,1738726504.417184
-0.111125,0.21675,0.103375,-0.01838675,-0.0007325,0.08120725,1738726504.43037
-0.101375,0.171375,0.077375,-0.02064525,-0.0055237496,0.039322,1738726504.445591
-0.09325,0.107875,0.10025,-0.01634225,-0.008865249,0.02772525,1738726504.459425
-0.092375,0.112,0.1265,-0.010162249,-0.009719751,0.01985175,1738726504.4759831
-0.088,0.12025,0.14525,0.00027475,-0.0048674997,0.0038605002,1738726504.488329
-0.065625,0.113,0.139625,0.0052337497,-0.00080875,-0.0047607496,1738726504.505911
-0.05175,0.09325,0.117375,0.0104065,0.0032195,-0.01968375,1738726504.517332
-0.03,0.056,0.097125,0.01228325,0.0023039998,-0.0246125,1738726504.5317252
-0.023625,0.041375,0.098,0.016143749,-0.0003815,-0.0306855,1738726504.546226
-0.01325,0.004125,0.09675,0.01548775,-0.00175475,-0.032135,1738726504.560724
-0.0105,-0.007375,0.099125,0.010681249,-0.0057525,-0.03028875,1738726504.576154
-0.0155,0.014125,0.1285,0.009887749,-0.0070495,-0.02819825,1738726504.589928
-0.021875,0.036625,0.14375,0.010803251,-0.0066985004,-0.02734375,1738726504.606025
-0.02925,0.0575,0.153,0.016128499,-0.00177,-0.032180753,1738726504.6189609
-0.04575,0.078,0.153875,0.018920999,0.00169375,-0.03778075,1738726504.636123
-0.052625,0.065125,0.148375,0.0188445,0.0076905,-0.05184925,1738726504.647876
-0.0565,0.00925,0.129125,0.0166015,0.009842,-0.0566405,1738726504.662348
-0.05275,-0.014375,0.119125,0.013137749,0.01171875,-0.057494998,1738726504.676834
-0.043,-0.022,0.118375,0.0149535,0.01197825,-0.05461125,1738726504.691346
-0.0395,-0.014125,0.120625,0.018753,0.01260375,-0.05119325,1738726504.705929
-0.02575,-0.009,0.115875,0.01937875,0.0139465,-0.046692003,1738726504.7203789
-0.0235,-0.009625,0.110125,0.017334,0.0139465,-0.045929,1738726504.735956
-0.027125,-0.0195,0.111125,0.010253999,0.01177975,-0.045837503,1738726504.7497249
-0.017625,-0.02725,0.130875,0.0064239996,0.011810251,-0.04379275,1738726504.764374
-0.015,-0.02375,0.13,0.0067445002,0.0153502505,-0.038940497,1738726504.778851
-0.011375,-0.0295,0.11225,0.008926501,0.016128499,-0.037094,1738726504.795864
-0.00625,-0.037875,0.10675,0.005005,0.01374825,-0.033141997,1738726504.807922
0.0025,-0.048375,0.11075,0.00027475,0.011550999,-0.0302125,1738726504.825614
0.004375,-0.042875,0.118375,-0.00381475,0.00953675,-0.026702998,1738726504.836829
0.005,-0.034875,0.12225,-0.00868225,0.0081025,-0.0217285,1738726504.851573
0.01225,-0.06975,0.107125,-0.009552,0.0079955,-0.0206145,1738726504.867098
0.022,-0.1265,0.0905,-0.01083375,0.0044707498,-0.0101775,1738726504.880642
0.04675,-0.298375,0.053375,-0.01374825,0.000534,0.00453175,1738726504.895772
0.03575,-0.324875,0.036375,-0.018463248,-0.0104065,0.06147775,1738726504.909738
-0.030625,-0.193625,0.070875,-0.016922,-0.017028749,0.091033995,1738726504.9258082
-0.0575,-0.14075,0.089375,-0.016861,-0.02114875,0.122207746,1738726504.9391308
-0.09975,-0.0665,0.125125,-0.0159455,-0.02050775,0.130539,1738726504.955746
-0.11675,0.004,0.161875,-0.0093385,-0.01513675,0.1361695,1738726504.968214
-0.13625,0.1135,0.155,-0.011810251,-0.009582501,0.128357,1738726504.986305
-0.136,0.16025,0.14875,-0.01310725,-0.0055085,0.11587525,1738726504.997212
-0.13175,0.184875,0.148,-0.00891125,0.0003205,0.081192,1738726505.011619
-0.11925,0.179,0.136875,-0.0044250004,0.0030365,0.062759496,1738726505.02605
-0.1065,0.145125,0.12625,0.00083925005,0.0059967497,0.030716,1738726505.0403311
-0.08225,0.099875,0.118625,0.00157175,0.00621025,0.02091975,1738726505.055507
-0.07475,0.1085,0.124875,0.0060882503,0.00694275,0.0060577504,1738726505.069139
-0.05575,0.11875,0.118,0.0078125,0.008026,-0.0030365,1738726505.085902
-0.0445,0.109625,0.10525,0.00744625,0.008484,-0.012634249,1738726505.098048
-0.0345,0.094625,0.09575,0.0049590003,0.0054475004,-0.03050225,1738726505.1126242
-0.02225,0.062875,0.0935,0.006363,0.00302125,-0.03804025,1738726505.126983
-0.021125,0.057,0.103625,0.01322925,-0.00019825,-0.049316503,1738726505.14174
-0.028375,0.064,0.12925,0.016296498,0.0002135,-0.053512502,1738726505.156171
-0.03625,0.072,0.135875,0.0232085,0.0055085,-0.062377997,1738726505.1705222
-0.053125,0.069,0.12275,0.024947999,0.008606,-0.068847746,1738726505.186034
-0.06225,0.055375,0.11375,0.021179251,0.010162249,-0.076278746,1738726505.199556
-0.071875,0.036375,0.116625,0.007843,0.008941749,-0.0891875,1738726505.216993
-0.071625,-0.01925,0.120375,0.00231925,0.0088805,-0.0932465,1738726505.2286148
-0.063375,-0.065125,0.112875,-0.0101775,0.0072480002,-0.091781504,1738726505.2455401
-0.039125,-0.11775,0.118125,-0.01148975,0.0053709997,-0.082306,1738726505.257925
-0.028125,-0.116875,0.135625,-0.00108325,0.0052185003,-0.05596925,1738726505.275553
-0.011125,-0.094,0.144875,0.0054015,0.008133001,-0.043945253,1738726505.2874181
-0.00675,-0.06675,0.136,0.00924675,0.01266475,-0.02781675,1738726505.301971
-0.002625,-0.015125,0.128375,0.0052185003,0.013214,-0.02633675,1738726505.3171232
0.00075,-0.02475,0.122125,-0.009781,0.012695249,-0.03141775,1738726505.331316
0.009875,-0.0815,0.100375,-0.0154725,0.010681249,-0.030639749,1738726505.3458261
0.01575,-0.10575,0.09125,-0.01791375,0.00764475,-0.0256195,1738726505.360302
0.022,-0.126,0.081375,-0.014862,0.00071725,-0.0062712496,1738726505.3756428
0.024125,-0.122875,0.074,-0.012054499,-0.0036162501,0.0065155,1738726505.38942
0.017625,-0.095625,0.088875,-0.011016751,-0.0129395,0.026886,1738726505.405806
0.0105,-0.128125,0.107375,-0.014358499,-0.015457249,0.0319825,1738726505.418402
0.0065,-0.194375,0.10375,-0.0221405,-0.016922,0.05270375,1738726505.433037
-0.037125,-0.227375,0.078375,-0.024658252,-0.018158002,0.073135495,1738726505.4475222
-0.07275,-0.171375,0.0965,-0.024292,-0.02073675,0.09547425,1738726505.462198
-0.121875,-0.019375,0.1775,-0.01445,-0.0204925,0.12564075,1738726505.476841
-0.13,0.037,0.201875,-0.00982675,-0.014572251,0.1287385,1738726505.491467
-0.131375,0.0945,0.204125,-0.012115501,0.0030365,0.11676025,1738726505.50596
-0.12675,0.1955,0.16925,-0.015228249,0.010879501,0.10299675,1738726505.520436
-0.12,0.207,0.12825,-0.018814,0.0183715,0.06526175,1738726505.5357382
-0.099,0.1465,0.055625,-0.0151215,0.016570998,0.04800425,1738726505.549275
-0.09075,0.12725,0.063125,-0.000229,0.0074615004,0.02749625,1738726505.567054
-0.08125,0.159625,0.124,0.00640875,0.0060577504,0.019927999,1738726505.578135
-0.07375,0.165625,0.128625,0.0099945,0.007904,0.009903,1738726505.595667
-0.063875,0.15975,0.113875,0.0059967497,0.01142875,-0.0141145,1738726505.606821
-0.044125,0.124125,0.090125,0.0009155,0.0104674995,-0.02595525,1738726505.621248
-0.03325,0.079,0.077375,-0.0053252503,0.00614925,-0.043105997,1738726505.636079
-0.0115,0.002375,0.056375,-0.00646975,0.0021515,-0.04502875,1738726505.6505458
-0.007375,0.00525,0.0715,-0.004593,-0.008194,-0.04116825,1738726505.666647
-0.018,0.06775,0.127,0.00016775,-0.0102845,-0.041153,1738726505.679735
-0.026625,0.083875,0.13875,0.0054932497,-0.008209251,-0.052001998,1738726505.695605
-0.048125,0.079375,0.151875,0.00216675,-0.0070037497,-0.060485747,1738726505.7088928
-0.056625,0.05075,0.15325,-0.0027312501,-0.0055847503,-0.069122255,1738726505.725464
-0.0605,0.01325,0.151125,-0.0078125,-0.0013427499,-0.076889,1738726505.7381551
-0.052875,-0.05725,0.135125,-0.0061950004,0.0014037499,-0.074478246,1738726505.755879
-0.038375,-0.094375,0.120125,0.00193775,0.0041504996,-0.057922248,1738726505.767411
-0.013375,-0.077875,0.129625,0.00764475,0.00331125,-0.0451965,1738726505.781934
-0.00975,-0.036875,0.145,0.01620475,0.00396725,-0.02848825,1738726505.796393
-0.008375,0.022625,0.1525,0.018875,0.0062255003,-0.02760325,1738726505.8108218
-0.0085,0.024625,0.14375,0.0193635,0.010894749,-0.03262325,1738726505.825846
-0.01025,0.009125,0.127,0.01753225,0.0119630005,-0.03373725,1738726505.839828
-0.008125,-0.00325,0.127,0.01670825,0.012054499,-0.033996496,1738726505.85571
-0.004,-0.0215,0.1265,0.0151215,0.011383001,-0.03335575,1738726505.8688068
0.007,-0.06175,0.119375,0.011764499,0.01062,-0.030914249,1738726505.885777
0.012,-0.073125,0.1185,0.0075835,0.00897225,-0.019134501,1738726505.897731
0.02175,-0.079125,0.1185,0.008346501,0.00874325,-0.0115967505,1738726505.912323
0.026625,-0.083,0.108625,0.005783,0.0072480002,0.0021515,1738726505.9267662
0.034625,-0.10925,0.0795,0.000473,0.0046845004,0.0087585,1738726505.941154
0.040125,-0.152,0.0625,-0.0056304997,0.0009765,0.0162505,1738726505.955613
0.042125,-0.20575,0.0415,-0.01272575,-0.009734999,0.04287725,1738726505.970154
0.004375,-0.21425,0.03575,-0.01148975,-0.0168305,0.06358325,1738726505.985966
-0.027375,-0.160125,0.052625,-0.00662225,-0.028564502,0.099472,1738726505.999441
-0.073375,-0.011875,0.092875,-0.007019,-0.031662002,0.1079865,1738726506.016845
-0.08125,0.063625,0.123,-0.013549751,-0.031997748,0.10337825,1738726506.028521
-0.081625,0.152625,0.170375,-0.0170745,-0.02705375,0.09167475,1738726506.0456488
-0.082375,0.154,0.160625,-0.02326975,-0.01380925,0.0634155,1738726506.05772
-0.092625,0.1415,0.1495,-0.020752002,-0.009445249,0.05210875,1738726506.0722592
-0.095875,0.133625,0.14775,-0.01567075,-0.00596625,0.0420075,1738726506.086826
-0.094125,0.120375,0.1425,-0.00839225,-0.00010675,0.02497875,1738726506.101397
-0.08075,0.121,0.14675,-0.0055847503,0.00231925,0.018920999,1738726506.1168342
-0.07175,0.128625,0.14725,0.0008545,0.00839225,0.0049285004,1738726506.130271
-0.05225,0.125375,0.128875,0.00352475,0.0110015,-0.0037995,1738726506.145761
-0.04225,0.105625,0.112875,0.00564575,0.01245125,-0.020629998,1738726506.159276
-0.01875,0.0215,0.08125,0.0052642496,0.01121525,-0.02592475,1738726506.175791
-0.008,-0.012625,0.07225,0.0048674997,0.0050202496,-0.024475,1738726506.188249
0.000375,-0.002625,0.092625,0.006775,0.00143425,-0.02079775,1738726506.206034
-0.000875,0.0195,0.1075,0.008361749,-0.001175,-0.0185395,1738726506.217419
-0.004,0.03875,0.118625,0.0073242504,-0.0033264998,-0.021087749,1738726506.231902
-0.01475,0.064375,0.13425,0.0058287503,-0.0032347501,-0.02510075,1738726506.246678
-0.022125,0.071125,0.13925,0.0062865,-0.00061025,-0.0365295,1738726506.2614038
-0.03875,0.0715,0.1345,0.0075682504,0.00137325,-0.042755,1738726506.275989
-0.0445,0.0605,0.12875,0.01062,0.00466925,-0.05319225,1738726506.2902122
-0.04775,0.027125,0.121375,0.011901749,0.00570675,-0.0559235,1738726506.306018
-0.047375,0.01775,0.12275,0.01617425,0.00801075,-0.056762747,1738726506.3192909
-0.039125,-0.007125,0.1185,0.01876825,0.009552,-0.0559845,1738726506.335758
-0.033375,-0.01625,0.119625,0.01911925,0.010253999,-0.054123,1738726506.348413
-0.028625,-0.0145,0.125875,0.01036075,0.009674,-0.050048754,1738726506.364033
-0.021125,-0.013,0.137625,0.0029145,0.009506251,-0.05039975,1738726506.377412
-0.01625,-0.024875,0.138875,-0.0088805,0.010162249,-0.050964247,1738726506.3920178
-0.006625,-0.05275,0.13525,-0.011123749,0.01065075,-0.0489045,1738726506.406687
0.00175,-0.072125,0.1315,-0.00941475,0.01197825,-0.039993253,1738726506.4213738
0.019625,-0.109375,0.111125,-0.008285499,0.01193225,-0.032364,1738726506.435838
0.0265,-0.109875,0.099375,-0.01086425,0.0080872495,-0.0128175,1738726506.450409
0.035875,-0.123125,0.074125,-0.012909001,0.0044555003,-0.0034790002,1738726506.467223
0.03725,-0.13725,0.070125,-0.01501475,-0.000229,0.0065917503,1738726506.479624
0.033875,-0.147375,0.072875,-0.022369498,-0.00962825,0.03114325,1738726506.495771
0.01425,-0.166375,0.072875,-0.0280915,-0.013290499,0.04447925,1738726506.508621
-0.00425,-0.1395,0.078375,-0.042282,-0.019027751,0.07266225,1738726506.525645
-0.0435,-0.044375,0.12025,-0.04599,-0.018035999,0.082718,1738726506.538002
-0.057,-0.002625,0.130625,-0.043167,-0.008316,0.0908965,1738726506.555925
-0.069,0.076625,0.1275,-0.0440215,-0.00331125,0.08978275,1738726506.5673442
-0.074375,0.10625,0.107125,-0.05030825,0.00444025,0.07861325,1738726506.581708
-0.085375,0.16375,0.088625,-0.05119325,0.0058287503,0.07058725,1738726506.596195
-0.089,0.19175,0.088,-0.04585275,0.0067902496,0.0609435,1738726506.610732
-0.08925,0.201,0.085625,-0.02598575,0.00723275,0.036972,1738726506.625885
-0.08125,0.183875,0.095875,-0.0180665,0.00637825,0.0255585,1738726506.639743
-0.0745,0.1735,0.10125,-0.0052337497,0.00621025,0.00631725,1738726506.655958
-0.05575,0.13775,0.09325,0.00090025004,0.00662225,-0.00201425,1738726506.668693
-0.044625,0.1105,0.0865,0.0100707505,0.0058135,-0.012741,1738726506.686094
-0.027,0.07925,0.08825,0.013626001,0.004776,-0.0149995005,1738726506.697807
-0.021375,0.075625,0.0915,0.0203095,0.00328075,-0.01728825,1738726506.7122939
-0.01675,0.09125,0.089875,0.022827249,0.00245675,-0.0186005,1738726506.7267451
-0.01725,0.102625,0.08675,0.023940999,0.0009765,-0.02114875,1738726506.741317
-0.019625,0.106875,0.088,0.0247955,-0.00355525,-0.031128,1738726506.756017
-0.025,0.0715,0.100375,0.02645875,-0.0052185003,-0.036911,1738726506.770585
-0.026,0.04475,0.1085,0.031036502,-0.00531,-0.042785753,1738726506.786147
-0.023,-0.001,0.1145,0.03224175,-0.0040587503,-0.041748002,1738726506.799663
-0.019,-0.009875,0.115,0.02940375,-0.0021515,-0.0331725,1738726506.8170729
-0.01475,0.00775,0.126,0.027557248,-0.0014037499,-0.027984502,1738726506.828819
-0.014375,0.024,0.1315,0.0266875,0.00149525,-0.022705,1738726506.845707
-0.015,0.0375,0.1235,0.02690125,0.003296,-0.023285,1738726506.857697
-0.015375,0.032,0.114,0.0260315,0.004303,-0.024993999,1738726506.872194
-0.01625,0.02675,0.10825,0.01708975,0.00267025,-0.02781675,1738726506.886786
-0.01675,0.018,0.11675,0.01228325,0.0012817499,-0.02835075,1738726506.901288
-0.01525,0.013875,0.126125,0.01358025,0.0021972498,-0.02734375,1738726506.916853
-0.009625,0.01175,0.12575,0.0177155,0.00453175,-0.026550248,1738726506.930607
-0.007,0.009625,0.12025,0.019333,0.007019,-0.026275748,1738726506.9457102
-0.005125,0.00825,0.122,0.01548775,0.00662225,-0.02693175,1738726506.959456
-0.0055,0.005875,0.1285,0.01071175,0.0060425,-0.028289748,1738726506.975805
-0.0055,0.000125,0.132,0.0068969997,0.006836,-0.0309295,1738726506.988657
-0.001,-0.0345,0.12825,0.0072632497,0.0074920002,-0.031021,1738726507.005697
0.0045,-0.06025,0.124375,0.0048217503,0.007019,-0.02575675,1738726507.017812
0.017625,-0.0985,0.12075,0.003662,0.00611875,-0.01956175,1738726507.0323021
0.02125,-0.0995,0.12175,0.0047302498,0.0051269997,-0.0024414998,1738726507.046726
0.03075,-0.141875,0.104875,0.00419625,0.0046845004,0.0052795,1738726507.061085
0.041125,-0.22775,0.07125,-0.00561525,-0.00090025004,0.02746575,1738726507.075566
0.019375,-0.354875,0.009375,-0.01083375,-0.009277251,0.051391497,1738726507.090087
-0.0235,-0.29525,0.034,-0.01115425,-0.0204925,0.08174125,1738726507.105904
-0.06975,-0.176125,0.073625,-0.0032347501,-0.0341645,0.124817,1738726507.119385
-0.10475,0.039,0.1525,-0.001709,-0.035019003,0.127365,1738726507.1357892
-0.1005,0.08,0.174375,-0.008712751,-0.0263215,0.1090545,1738726507.1485949
-0.100125,0.12725,0.150625,-0.01330575,-0.019134501,0.097168,1738726507.1659079
-0.1105,0.13125,0.11225,-0.02224725,-0.011825499,0.072753996,1738726507.177582
-0.13175,0.16225,0.107,-0.02053825,-0.012176501,0.06210325,1738726507.19209
-0.1355,0.18025,0.140375,-0.0066985004,-0.009262,0.039978,1738726507.206632
-0.12375,0.20475,0.172125,0.000229,-0.0037079998,0.0272065,1738726507.221
-0.111375,0.201,0.165375,0.004837,0.00279225,0.013000499,1738726507.236099
-0.09825,0.186125,0.153625,0.0075072497,0.013061499,-0.014648501,1738726507.249963
-0.074625,0.15525,0.127375,0.00715625,0.0161895,-0.026291,1738726507.266488
-0.065875,0.1455,0.119125,0.0091095,0.0197295,-0.04682925,1738726507.279083
-0.061875,0.133375,0.10475,0.01216125,0.02079775,-0.05644225,1738726507.295476
-0.065125,0.12,0.092375,0.0154725,0.020523,-0.076004,1738726507.308063
-0.066875,0.039875,0.06975,0.012741,0.017883249,-0.085144,1738726507.323333
-0.060375,-0.019125,0.07375,0.00738525,0.01345825,-0.09152225,1738726507.336988
-0.0375,-0.10575,0.098375,-0.0005035,0.00546275,-0.0884095,1738726507.351685
-0.02825,-0.116875,0.119375,0.0001525,0.0032347501,-0.079422,1738726507.366904
-0.02075,-0.110625,0.1425,0.0072175004,0.005005,-0.05752575,1738726507.3810089
-0.009625,-0.084,0.155625,0.010788,0.009216251,-0.04751575,1738726507.395676
-0.0045,-0.065375,0.143,0.01425175,0.017303498,-0.03211975,1738726507.410326
0.00075,-0.025625,0.11575,0.013733,0.0182495,-0.02804575,1738726507.4258618
0.00175,-0.012375,0.111125,0.0089569995,0.015854,-0.027709998,1738726507.4392
0.002125,-0.01325,0.109125,0.0047455,0.013778751,-0.0299225,1738726507.455364
0.002375,-0.025,0.114125,-0.00263975,0.00924675,-0.0330505,1738726507.468261
0.00375,-0.0555,0.127,-0.00463875,0.0077515002,-0.03211975,1738726507.483222
0.00525,-0.06325,0.134125,-0.0054475004,0.0070647504,-0.0290985,1738726507.497235
0.007375,-0.066,0.136,-0.003952,0.008285499,-0.019927999,1738726507.511775
0.012875,-0.068,0.126625,-0.0023039998,0.00883475,-0.0148772495,1738726507.526272
0.015,-0.06575,0.122125,-0.0018005001,0.00788875,-0.0049285004,1738726507.5407581
0.021,-0.072125,0.10225,-0.0043182503,0.00662225,-0.0009155,1738726507.55552
0.03,-0.113625,0.081375,-0.01266475,0.000763,0.008727999,1738726507.5697138
0.044375,-0.2515,0.010625,-0.016037,-0.0048065,0.02168275,1738726507.585581
0.02625,-0.25475,-0.00975,-0.01628125,-0.01339725,0.043578997,1738726507.598899
-0.0065,-0.18725,0.006375,-0.008072,-0.0348205,0.089386,1738726507.615944
-0.057125,-0.082875,0.046125,-0.00614925,-0.04078675,0.09933475,1738726507.628254
-0.07475,-0.0555,0.055,-0.00567625,-0.047912497,0.1074525,1738726507.645324
-0.09875,0.06875,0.139875,-0.0031889998,-0.049987752,0.10774225,1738726507.657653
-0.09925,0.11275,0.179,-0.00289925,-0.041137747,0.090850756,1738726507.672353
-0.101,0.15025,0.18375,-0.0054475004,-0.0328675,0.07820125,1738726507.68699
-0.105375,0.150875,0.16375,-0.013916001,-0.020202748,0.051468,1738726507.701503
-0.11525,0.11825,0.146125,-0.015854,-0.01705925,0.040207002,1738726507.716404
-0.115875,0.11625,0.15925,-0.0077667497,-0.010559,0.025665252,1738726507.730499
-0.101125,0.1225,0.172,-0.002655,-0.00517275,0.0187225,1738726507.74552
-0.08975,0.12175,0.1695,0.00096125,0.000534,0.010879501,1738726507.759458
-0.07875,0.120125,0.1665,0.00590525,0.010727,-0.0056609996,1738726507.775486
-0.061125,0.108,0.142,0.0072632497,0.015213001,-0.01368725,1738726507.788477
-0.05475,0.105875,0.13025,0.012024,0.02105725,-0.028122,1738726507.805526
-0.054875,0.132125,0.12325,0.01782225,0.023468,-0.03512575,1738726507.817525
-0.063,0.1525,0.117,0.030777,0.028061,-0.0539855,1738726507.832032
-0.0845,0.13075,0.092625,0.03208925,0.02870175,-0.067398004,1738726507.846384
-0.091375,0.0785,0.091125,0.027282748,0.0272065,-0.0814515,1738726507.86095
-0.094125,0.016625,0.106625,0.008773751,0.0230255,-0.09838875,1738726507.875764
-0.081875,-0.087625,0.13725,0.00369275,0.02449025,-0.09756475,1738726507.889889
-0.065625,-0.12175,0.132,0.0070037497,0.0309295,-0.079132006,1738726507.9057899
-0.031,-0.124125,0.114375,0.012146,0.03279125,-0.064865,1738726507.9189582
-0.009,-0.110375,0.09325,0.01481625,0.032608002,-0.040847752,1738726507.935422
0.01425,-0.085,0.062375,0.010788,0.02711475,-0.033264253,1738726507.947978
0.0205,-0.0715,0.074875,0.002533,0.014663749,-0.02560425,1738726507.962507
0.026625,-0.068125,0.094125,0.0012207499,0.011245751,-0.02339175,1738726507.9769962
0.025875,-0.06475,0.099875,0.0011445,0.00883475,-0.020477248,1738726507.991594
0.0245,-0.06325,0.103125,0.0003205,0.00579825,-0.014663749,1738726508.006052
0.022125,-0.06675,0.104625,-0.001419,0.004486,-0.011688249,1738726508.020475
0.020875,-0.0665,0.102,-0.00546275,0.00086975005,-0.00488275,1738726508.035993
0.01975,-0.073625,0.09675,-0.0059205,-0.0016175,-0.001175,1738726508.049671
0.019125,-0.076125,0.101375,-0.004776,-0.00694275,0.00782775,1738726508.066672
0.017125,-0.08025,0.1085,-0.0045012496,-0.008545,0.012252751,1738726508.078774
0.017375,-0.088125,0.10175,-0.0076142503,-0.01165775,0.0214385,1738726508.095472
0.01625,-0.12075,0.080125,-0.010589501,-0.0139465,0.02702325,1738726508.107764
0.012625,-0.143,0.062375,-0.014145001,-0.016723748,0.034408502,1738726508.125691
0.001625,-0.146875,0.05425,-0.01716625,-0.0257415,0.057189997,1738726508.136779
-0.029625,-0.1185,0.051,-0.016632,-0.0302125,0.06852725,1738726508.151349
-0.047125,-0.105125,0.044375,-0.0148772495,-0.03926075,0.0859985,1738726508.1670558
-0.085875,-0.0055,0.08175,-0.011764499,-0.044113252,0.09223925,1738726508.1806452
-0.09725,0.059375,0.13225,-0.00541675,-0.045944247,0.08786,1738726508.1955872
-0.1025,0.121,0.200375,-0.0035704998,-0.0398255,0.07855225,1738726508.209791
-0.1045,0.13675,0.203875,-0.00057975,-0.02275075,0.0573425,1738726508.225738
-0.109875,0.134875,0.187125,-0.00074775,-0.015152001,0.046402,1738726508.23876
-0.113625,0.13375,0.16925,-0.000229,-0.00839225,0.03657525,1738726508.25565
-0.110375,0.137125,0.154,0.00270075,0.000183,0.0175935,1738726508.267667
-0.09275,0.1425,0.1585,0.0037537501,0.00270075,0.007904,1738726508.28213
-0.083375,0.148,0.169625,0.009674,0.01062,-0.011078,1738726508.296507
-0.068375,0.14475,0.158875,0.0143737495,0.016235251,-0.02127075,1738726508.310976
-0.064125,0.137875,0.146625,0.02153025,0.024932751,-0.042663503,1738726508.32555
-0.06475,0.10225,0.1195,0.0247955,0.027649,-0.053329498,1738726508.339951
-0.065,0.063625,0.097875,0.02804575,0.02911375,-0.06286625,1738726508.35584
-0.061875,0.013625,0.077375,0.0272675,0.0265655,-0.0738525,1738726508.368861
-0.044875,-0.08825,0.063,0.02101125,0.022995,-0.07330325,1738726508.385899
-0.030625,-0.130625,0.066375,0.00228875,0.014389,-0.059249748,1738726508.397938
-0.007625,-0.1465,0.09875,-0.0036010002,0.01095575,-0.04660025,1738726508.412543
-0.002375,-0.12375,0.1165,-0.00061025,0.009369001,-0.022338752,1738726508.4271271
-0.001625,-0.059,0.138625,0.00384525,0.010604749,-0.014389,1738726508.4416718
-0.003375,-0.029,0.13725,0.008727999,0.0148772495,-0.009903,1738726508.456243
-0.005875,-0.012875,0.120875,0.0072175004,0.01579275,-0.012039251,1738726508.470766
-0.00675,-0.01625,0.11225,0.0041044997,0.0155030005,-0.014663749,1738726508.486068
-0.007375,-0.02325,0.107875,-0.0007325,0.012039251,-0.0174865,1738726508.499844
-0.008125,-0.0285,0.108875,-0.00143425,0.01019275,-0.016845752,1738726508.517004
-0.008375,-0.025125,0.113125,0.00077825,0.007599,-0.014282251,1738726508.5290189
-0.00725,-0.024,0.128375,0.0042572496,0.0075377496,-0.01339725,1738726508.5439959
-0.005375,-0.03075,0.128375,0.0093385,0.009582501,-0.0119934995,1738726508.558228
-0.000875,-0.046625,0.114,0.008316,0.010024999,-0.011169501,1738726508.575737
0.005875,-0.057125,0.10525,0.00305175,0.00833125,-0.00845325,1738726508.5871391
0.016625,-0.086125,0.08175,-0.00027475,0.0064850003,-0.0055237496,1738726508.6016781
0.02125,-0.1065,0.06425,-0.0037385002,0.003662,-0.00149525,1738726508.617137
0.026125,-0.139875,0.043125,-0.01361075,-0.0072480002,0.01127625,1738726508.63075
0.0235,-0.2025,0.0125,-0.01924125,-0.0158385,0.02330025,1738726508.645686
0.0075,-0.189375,0.023125,-0.022812,-0.0345,0.055191003,1738726508.659762
-0.034,-0.150375,0.044125,-0.0227355,-0.0402985,0.067871004,1738726508.6758778
-0.057125,-0.126,0.052,-0.02073675,-0.0482635,0.088745005,1738726508.688946
-0.097125,-0.044625,0.128875,-0.01826475,-0.0502015,0.0959625,1738726508.705804
-0.10925,-0.024,0.159375,-0.015518251,-0.047622748,0.0993195,1738726508.718143
-0.128125,0.040375,0.1815,-0.007782,-0.034973253,0.101883,1738726508.735451
-0.138375,0.101375,0.19375,-0.00372325,-0.029144252,0.0996705,1738726508.747275
-0.147375,0.173875,0.2185,0.0012665,-0.01670825,0.07843025,1738726508.761665
-0.13025,0.216375,0.201375,0.00045775,-0.00643925,0.05708325,1738726508.776136
-0.1135,0.167625,0.149375,-0.00511175,0.0076599997,0.01664725,1738726508.790591
-0.089125,0.095125,0.10675,-0.0038299998,0.007904,0.0057525,1738726508.805394
-0.08,0.088375,0.118625,0.0057525,0.0074615004,-0.00691225,1738726508.819642
-0.059875,0.08325,0.132,0.010101249,0.009094249,-0.012985251,1738726508.8360262
-0.05,0.068,0.130375,0.013122501,0.011078,-0.019592252,1738726508.84863
-0.041375,0.0445,0.126125,0.01808175,0.0154725,-0.030334499,1738726508.863335
-0.031125,0.025,0.122125,0.01968375,0.017578252,-0.033081003,1738726508.877695
-0.032625,0.042,0.126875,0.019775499,0.021087749,-0.03939825,1738726508.892968
-0.046875,0.071375,0.1305,0.019348249,0.0226745,-0.04603575,1738726508.906664
-0.05575,0.062875,0.1215,0.012405501,0.023101749,-0.06440725,1738726508.921128
-0.070125,0.010875,0.107625,0.0050965,0.021576,-0.07304375,1738726508.93574
-0.073875,-0.024625,0.113875,-0.00093075,0.01994325,-0.07934575,1738726508.9501052
-0.06775,-0.101375,0.12,-0.0025025,0.0208435,-0.08078,1738726508.96712
-0.056875,-0.12525,0.1185,0.001709,0.0224,-0.07427975,1738726508.979243
-0.04225,-0.133875,0.118,0.010024999,0.0239715,-0.05159,1738726508.996063
-0.021375,-0.114625,0.104875,0.0115815,0.024353001,-0.03923025,1738726509.008491
-0.01225,-0.09375,0.096375,0.0095672505,0.02174375,-0.0198365,1738726509.025824
0.00025,-0.053375,0.091375,0.005783,0.018692,-0.015304499,1738726509.0376441
0.00275,-0.042125,0.095875,-0.00016775,0.01197825,-0.01425175,1738726509.055658
0.003625,-0.03375,0.1015,-0.00308225,0.009613,-0.015579251,1738726509.067701
0.00275,-0.0365,0.1065,-0.00747675,0.0058899997,-0.017929,1738726509.0812669
0.000125,-0.04425,0.117,-0.00773625,0.005005,-0.017700251,1738726509.096098
-0.001625,-0.0475,0.1195,-0.00738525,0.0047302498,-0.016723748,1738726509.1103308
-0.0025,-0.05175,0.122625,-0.004013,0.0048217503,-0.01248175,1738726509.126233
-0.0015,-0.05125,0.12675,-0.0019685,0.0052337497,-0.009002751,1738726509.139536
-0.001,-0.04475,0.12375,-0.00154125,0.0061035,-0.0039215,1738726509.156002
0.0055,-0.05375,0.099125,-0.00408925,0.0058135,-0.00325,1738726509.171346
0.0115,-0.079125,0.07575,-0.01452625,0.0,-0.000122000005,1738726509.185798
0.0275,-0.196,0.009625,-0.020752002,-0.00593575,0.0054015,1738726509.197771
0.026375,-0.26675,-0.0215,-0.025115998,-0.025085501,0.03807075,1738726509.212331
-0.02775,-0.215625,0.0035,-0.021209748,-0.03733825,0.0647125,1738726509.226923
-0.05775,-0.128,0.04275,-0.01622,-0.04727175,0.08728025,1738726509.241547
-0.0785,-0.05075,0.077875,-0.017501751,-0.0546265,0.101776004,1738726509.25614
-0.091625,0.02075,0.143375,-0.0213165,-0.053177,0.09815975,1738726509.2706182
-0.097125,0.042375,0.16875,-0.0223235,-0.041275002,0.08940125,1738726509.285998
-0.11875,0.13,0.184,-0.01634225,-0.033264253,0.0835725,1738726509.299943
-0.1265,0.1705,0.188375,-0.0041504996,-0.02006525,0.05632025,1738726509.316619
-0.122625,0.139625,0.1735,-0.00251775,-0.013626001,0.0378265,1738726509.329018
-0.115,0.1055,0.1605,-0.00157175,-0.003296,0.015228249,1738726509.34565
-0.104875,0.095875,0.157375,-0.00080875,0.00045775,0.01062,1738726509.35815
-0.097,0.11125,0.16175,0.0009155,0.00440975,0.0059205,1738726509.375454
-0.08625,0.11775,0.16225,0.0040435,0.01358025,-0.0097045,1738726509.386924
-0.067125,0.102625,0.135875,0.004303,0.0179595,-0.018432502,1738726509.401332
-0.062125,0.09775,0.126625,0.0052642496,0.0224305,-0.03395075,1738726509.416778
-0.06125,0.1005,0.126,0.00747675,0.023940999,-0.0414275,1738726509.430109
-0.06475,0.096125,0.116875,0.013733,0.026977502,-0.057846002,1738726509.445647
-0.071,0.050375,0.093625,0.01617425,0.02696225,-0.06558225,1738726509.459046
-0.073125,0.0165,0.0885,0.01747125,0.0258025,-0.0713805,1738726509.475036
-0.07075,-0.021,0.091125,0.018020751,0.02227775,-0.07536325,1738726509.487905
-0.047875,-0.104125,0.096625,0.01560975,0.0211335,-0.072174005,1738726509.505636
-0.0355,-0.13,0.095625,0.008377,0.017929,-0.053009,1738726509.5170171
-0.014,-0.123,0.109,0.0072175004,0.0156555,-0.04031375,1738726509.53165
-0.005875,-0.102625,0.11125,0.0064545004,0.014099,-0.019592252,1738726509.5463748
0.003875,-0.058375,0.099375,0.0055695,0.01345825,-0.013549751,1738726509.5607512
0.005625,-0.04175,0.0955,0.0022277501,0.009445249,-0.0095672505,1738726509.575556
0.004625,-0.027875,0.10175,-0.0008545,0.0067445002,-0.010024999,1738726509.589629
0.002125,-0.02775,0.108625,-0.00367725,0.00428775,-0.01095575,1738726509.605779
-0.000875,-0.0315,0.11525,-0.00643925,0.0013427499,-0.011810251,1738726509.618936
-0.005625,-0.036625,0.123625,-0.0058899997,0.00093075,-0.010757499,1738726509.63588
-0.007625,-0.035125,0.123375,-0.003769,0.00115975,-0.0067597497,1738726509.648204
-0.009,-0.03075,0.12425,-0.00320425,0.0011445,-0.0047912505,1738726509.6639822
-0.008625,-0.030625,0.12525,-0.0032655,0.00093075,-0.00193775,1738726509.677639
-0.0065,-0.0305,0.12475,-0.00372325,0.00099175,-0.000763,1738726509.692856
-0.005,-0.03025,0.122875,-0.0043639997,0.0013580001,0.0012970001,1738726509.706746
0.002125,-0.05625,0.10175,-0.0053252503,0.00119025,0.00213625,1738726509.7211268
0.009625,-0.100125,0.075375,-0.008346501,0.0,0.0037385002,1738726509.735541
0.017,-0.15625,0.04675,-0.017608749,-0.008606,0.01857,1738726509.750019
0.006,-0.195125,0.0265,-0.01899725,-0.01620475,0.03424075,1738726509.7667232
-0.01175,-0.152625,0.042625,-0.0160675,-0.03114325,0.066543505,1738726509.779232
-0.045125,-0.020125,0.114125,-0.014572251,-0.03492725,0.074646,1738726509.79559
-0.053375,0.02475,0.148875,-0.011810251,-0.030609248,0.0711975,1738726509.808536
-0.066,0.02525,0.158875,-0.01077275,-0.02436825,0.06561275,1738726509.8255858
-0.076125,0.01925,0.146625,-0.0057677496,-0.013564999,0.0608215,1738726509.837517
-0.097,0.076125,0.133875,-0.00146475,-0.009933501,0.06010425,1738726509.8556218
-0.10625,0.1325,0.128375,0.00074775,-0.0072175004,0.0570985,1738726509.866772
-0.108375,0.1805,0.13675,-0.00160225,-0.0068512503,0.033584498,1738726509.881109
-0.099,0.179,0.172375,-0.00238025,-0.00561525,0.015625,1738726509.8956318
-0.09225,0.158375,0.18575,0.002411,0.00320425,-0.012680001,1738726509.9101188
-0.081,0.129875,0.188,0.00567625,0.010162249,-0.022369498,1738726509.9257011
-0.07875,0.131125,0.1825,0.01136775,0.02439875,-0.03889475,1738726509.938981
-0.08225,0.125125,0.1605,0.014648501,0.0310975,-0.048141498,1738726509.9557319
-0.083875,0.10275,0.13,0.01731875,0.03686525,-0.0576325,1738726509.967933
-0.082875,0.070625,0.103375,0.017120251,0.0396575,-0.073501505,1738726509.985554
-0.069625,-0.015875,0.086,0.015152001,0.03771975,-0.078003,1738726509.996834
-0.05775,-0.057,0.088125,0.0112,0.032333247,-0.075790495,1738726510.011581
-0.0295,-0.107125,0.1,0.010101249,0.029831,-0.069748,1738726510.02613
-0.01725,-0.118125,0.100875,0.0070647504,0.02658075,-0.05255125,1738726510.040651
0.00575,-0.114875,0.085375,0.0045625,0.024993999,-0.043090753,1738726510.0559502
0.01675,-0.10225,0.07725,0.00279225,0.019012501,-0.026657,1738726510.0695198
0.024,-0.071875,0.076875,0.0023039998,0.01542675,-0.020782499,1738726510.085887
0.023875,-0.06125,0.082125,0.0017242499,0.011901749,-0.0167695,1738726510.098494
0.022125,-0.049875,0.087125,-0.00099175,0.0056915004,-0.012329,1738726510.116766
0.016625,-0.04,0.101625,-0.0019989999,0.0032195,-0.0110625,1738726510.127446
0.013625,-0.0355,0.10475,-0.0023497501,0.000473,-0.00744625,1738726510.141962
0.008625,-0.021625,0.109125,-0.0028229998,-0.00071725,-0.006073,1738726510.1565619
0.00725,-0.020125,0.114375,-0.0035704998,-0.00251775,-0.0059967497,1738726510.1711721
0.006375,-0.033375,0.1215,-0.0037537501,-0.0028074998,-0.0063325,1738726510.185836
0.00725,-0.04925,0.119,-0.00596625,-0.0031889998,-0.004547,1738726510.2006478
0.012,-0.090375,0.101875,-0.0076295,-0.0040435,-0.0013275,1738726510.217015
0.016,-0.11875,0.085875,-0.00941475,-0.005844,0.003662,1738726510.2297978
0.01825,-0.153,0.073,-0.011245751,-0.0137635,0.02098075,1738726510.245651
0.01075,-0.21225,0.05325,-0.011627249,-0.019027751,0.034438998,1738726510.2591841
-0.0055,-0.186625,0.05875,-0.013275251,-0.030365,0.066268995,1738726510.275696
-0.041,-0.07025,0.10325,-0.01324475,-0.03373725,0.07669075,1738726510.288495
-0.051,-0.027875,0.11525,-0.0161895,-0.033081003,0.07966625,1738726510.305672
-0.061,0.00075,0.097875,-0.020874001,-0.03211975,0.0767365,1738726510.3177888
-0.0705,0.028625,0.10675,-0.0269165,-0.032516498,0.0734405,1738726510.335385
-0.092875,0.116,0.15175,-0.02507025,-0.030181998,0.069992,1738726510.346686
-0.099875,0.15775,0.166125,-0.0219575,-0.02545175,0.0629425,1738726510.3613608
-0.102875,0.191375,0.169125,-0.0151215,-0.013382,0.03825375,1738726510.375958
-0.100625,0.180375,0.16275,-0.01193225,-0.0080567505,0.02427675,1738726510.3904588
-0.095375,0.161875,0.15725,-0.00611875,0.000229,0.00193775,1738726510.4055822
-0.07825,0.143125,0.15475,-0.0021819999,0.0041504996,-0.00614925,1738726510.419608
-0.06925,0.1395,0.14825,0.0068055,0.011901749,-0.02177425,1738726510.4361799
-0.055125,0.122375,0.133125,0.010559,0.014709501,-0.0299225,1738726510.4486341
-0.05125,0.10875,0.127625,0.0159455,0.0187835,-0.04556275,1738726510.467032
-0.047,0.0545,0.111625,0.017730748,0.02012625,-0.05220025,1738726510.477631
-0.043125,0.00975,0.09975,0.0188445,0.02079775,-0.056961,1738726510.492095
-0.03575,-0.038625,0.086875,0.01841725,0.0186005,-0.05558775,1738726510.506637
-0.01675,-0.09775,0.088625,0.016570998,0.01542675,-0.049118,1738726510.5211048
-0.00925,-0.10225,0.09875,0.01361075,0.009903,-0.03114325,1738726510.536028
-0.002,-0.073375,0.11375,0.012115501,0.00845325,-0.022171,1738726510.5503201
-0.0015,-0.050375,0.1195,0.0079955,0.00788875,-0.010818499,1738726510.566815
-0.005,-0.0065,0.130625,0.0061950004,0.008651749,-0.009140001,1738726510.579393
-0.008375,0.013,0.133375,0.0043944996,0.01187125,-0.0116425,1738726510.595608
-0.016,0.036625,0.12175,0.00393675,0.013321,-0.014495751,1738726510.6085482
-0.018,0.03875,0.113625,0.004303,0.013916001,-0.01763925,1738726510.625561
-0.018,0.035,0.107625,0.009216251,0.012756251,-0.02330025,1738726510.637484
-0.014625,0.017,0.10275,0.012771499,0.01148975,-0.025238002,1738726510.651906
-0.012375,0.00325,0.105,0.0144805005,0.008545,-0.02708425,1738726510.666965
-0.008625,-0.018375,0.116875,0.012115501,0.0072785,-0.02702325,1738726510.6808279
-0.006,-0.028125,0.121875,0.00691225,0.0062255003,-0.026733499,1738726510.695827
0.00675,-0.082125,0.104625,0.0047912505,0.005783,-0.02607725,1738726510.7100239
0.017625,-0.129,0.08725,0.00065625,0.00125125,-0.018310498,1738726510.725733
0.034375,-0.216,0.066125,-0.000946,-0.0034942501,-0.0085755,1738726510.7390132
0.035875,-0.23575,0.066125,-0.00193775,-0.009155249,0.0053709997,1738726510.7556422
0.030625,-0.239125,0.067625,-0.006668,-0.02034,0.0372925,1738726510.768103
0.004125,-0.2025,0.070125,-0.01095575,-0.02528375,0.051864497,1738726510.786239
-0.0145,-0.171125,0.075,-0.019638,-0.032714747,0.0730895,1738726510.797311
-0.0515,-0.138375,0.0625,-0.02421575,-0.0352325,0.08032225,1738726510.8119218
-0.074375,-0.10325,0.0645,-0.029068,-0.041214,0.09411625,1738726510.826494
-0.11475,0.009625,0.1235,-0.03022775,-0.042297248,0.097931,1738726510.841013
-0.127125,0.079,0.158625,-0.02838125,-0.03300475,0.094848745,1738726510.855763
-0.136,0.19675,0.18625,-0.0248565,-0.024353001,0.085311994,1738726510.870101
-0.13625,0.2155,0.176,-0.02098075,-0.01567075,0.06988525,1738726510.885684
-0.13325,0.201,0.1615,-0.013916001,-0.00399775,0.034438998,1738726510.899224
-0.124125,0.154125,0.145125,-0.0101165,-0.00039675,0.02197275,1738726510.9166641
-0.113625,0.145625,0.145375,-0.0012817499,0.006256,0.0054475004,1738726510.928096
-0.08175,0.1355,0.144,0.001648,0.0100707505,-0.00190725,1738726510.945411
-0.066,0.1235,0.131125,0.00531,0.01678475,-0.01675425,1738726510.9570298
-0.04125,0.0845,0.098,0.0060882503,0.01779175,-0.02339175,1738726510.971609
-0.033,0.0675,0.086875,0.0061645,0.01708975,-0.028839001,1738726510.986114
-0.024125,0.033125,0.073375,0.005066,0.012405501,-0.0372925,1738726511.00054
-0.02325,0.017875,0.07725,0.0052947504,0.00891125,-0.04002375,1738726511.016617
-0.02425,0.005875,0.087375,0.0069580004,0.0031889998,-0.041396998,1738726511.029616
-0.028875,-0.010375,0.11475,0.008209251,0.00198375,-0.04040525,1738726511.0455081
-0.030875,-0.016,0.1265,0.012115501,0.0036010002,-0.03707875,1738726511.058729
-0.033875,-0.015125,0.135125,0.01368725,0.00579825,-0.0349885,1738726511.0755699
-0.034625,-0.0115,0.13275,0.015167249,0.010376001,-0.031066999,1738726511.0878348
-0.034,-0.004875,0.11875,0.01513675,0.01194775,-0.02955625,1738726511.105634
-0.03175,-0.004625,0.108125,0.014724749,0.012832751,-0.02832025,1738726511.117107
-0.028,-0.004625,0.098125,0.0122985,0.01142875,-0.02630625,1738726511.131637
-0.02175,0.010625,0.099125,0.012420749,0.009445249,-0.02595525,1738726511.146015
-0.021125,0.017125,0.1095,0.01693725,0.0070342496,-0.02870175,1738726511.1604931
-0.023,0.002,0.126125,0.01852425,0.00723275,-0.03120425,1738726511.175777
-0.024375,-0.013,0.133375,0.01681525,0.0089569995,-0.03471375,1738726511.189613
-0.025625,-0.033125,0.138625,0.0154115,0.010742251,-0.035019003,1738726511.205607
-0.021125,-0.042375,0.133875,0.0129395,0.01408375,-0.03268425,1738726511.218634
-0.010875,-0.0535,0.1145,0.01193225,0.014709501,-0.030777,1738726511.2356322
-0.004125,-0.069125,0.104625,0.01098625,0.0138245,-0.0299835,1738726511.247612
0.00225,-0.09675,0.1015,0.002884,0.00811775,-0.029541,1738726511.262086
0.014875,-0.18475,0.103375,-0.00440975,0.00531,-0.02607725,1738726511.276649
0.02,-0.222375,0.1005,-0.01412975,0.00157175,-0.00367725,1738726511.291094
0.018875,-0.246625,0.07575,-0.0149995005,-0.00051875,0.013503999,1738726511.305953
0.010625,-0.241125,0.058,-0.01402275,-0.0088805,0.04983525,1738726511.32009
-0.022375,-0.21575,0.037625,-0.01475525,-0.0148315,0.06655875,1738726511.335571
-0.046125,-0.18725,0.036,-0.019226,-0.027069,0.09730525,1738726511.3493602
-0.09325,-0.06925,0.0535,-0.023193251,-0.0321655,0.109375,1738726511.366652
-0.10675,0.001375,0.08125,-0.02560425,-0.0355225,0.115814246,1738726511.378413
-0.11275,0.053375,0.1145,-0.022461,-0.0333405,0.11138925,1738726511.395455
-0.1285,0.169375,0.137625,-0.020691,-0.02870175,0.104751505,1738726511.407522
-0.134,0.223375,0.14725,-0.0154115,-0.0216675,0.07424925,1738726511.4221802
-0.133,0.246625,0.174,-0.01092525,-0.017974751,0.052765,1738726511.436703
-0.12725,0.219375,0.18175,-0.0027160002,-0.0079955,0.01322925,1738726511.451191
-0.106,0.1385,0.174375,-6.1000002e-05,-0.002243,-0.00090025004,1738726511.466788
-0.0925,0.112,0.16725,0.0042115003,0.008194,-0.017807,1738726511.480286
-0.062875,0.08225,0.135125,0.0052337497,0.012313751,-0.0236665,1738726511.495471
-0.048875,0.071625,0.12125,0.0055237496,0.01490775,-0.028946,1738726511.509193
-0.0385,0.063,0.117,0.009017999,0.016739,-0.03860475,1738726511.525544
-0.02975,0.044,0.1165,0.01248175,0.017624,-0.0433045,1738726511.538006
-0.028375,0.022,0.10525,0.015442001,0.0188445,-0.051468,1738726511.555354
-0.023,-0.041125,0.078875,0.013153,0.017044,-0.052765,1738726511.566985
-0.020125,-0.060125,0.08125,0.009430001,0.0099639995,-0.046752997,1738726511.58158
-0.019625,-0.05375,0.10875,0.0102235,0.00747675,-0.041275002,1738726511.596106
-0.0215,-0.04025,0.12175,0.01187125,0.00662225,-0.0362855,1738726511.610622
-0.023375,-0.02825,0.12875,0.01454175,0.00889575,-0.030716,1738726511.625699
-0.023875,-0.023375,0.128,0.013549751,0.01042175,-0.029754749,1738726511.639662
-0.02275,-0.028375,0.120875,0.0072937496,0.01210025,-0.02822875,1738726511.655524
-0.02025,-0.026625,0.106375,0.0050355,0.011734,-0.026855499,1738726511.668607
-0.019625,-0.01625,0.108125,0.009323,0.0102235,-0.0235595,1738726511.6856902
-0.01825,0.004,0.120375,0.01643375,0.01062,-0.0224305,1738726511.69761
-0.01825,0.005625,0.121375,0.02333075,0.011627249,-0.0224,1738726511.712008
-0.017625,-0.003625,0.125,0.023056,0.0122985,-0.02664175,1738726511.7265081
-0.016375,-0.017125,0.130125,0.016113251,0.012054499,-0.030456498,1738726511.741
-0.0155,-0.033875,0.132375,0.00440975,0.013153,-0.035141,1738726511.755649
-0.009,-0.06925,0.119625,0.002777,0.013916001,-0.034408502,1738726511.7700968
-0.002875,-0.08475,0.109,0.0012817499,0.01257325,-0.0274505,1738726511.785784
0.0095,-0.105875,0.095,0.00042725,0.010437001,-0.022049,1738726511.7989728
0.015125,-0.1165,0.09275,-0.0021057501,0.0051574996,-0.009079001,1738726511.8166301
0.0225,-0.13925,0.079875,-0.0042267498,0.00239575,-0.0016785001,1738726511.828094
0.02425,-0.158,0.0665,-0.0070037497,-0.001068,0.0062407497,1738726511.845284
0.023875,-0.18725,0.04725,-0.01469425,-0.011383001,0.02645875,1738726511.8571079
0.00575,-0.233375,0.016875,-0.019165002,-0.018875,0.041564997,1738726511.871582
-0.01975,-0.1995,0.033125,-0.0193635,-0.0348815,0.077606246,1738726511.886212
-0.065,-0.091875,0.085,-0.01741025,-0.03891,0.089508004,1738726511.9008331
-0.07975,-0.06325,0.09925,-0.01826475,-0.039245497,0.0989685,1738726511.9165282
-0.10275,0.006125,0.1635,-0.01838675,-0.037323,0.10176075,1738726511.92997
-0.112875,0.0695,0.1895,-0.014221249,-0.02333075,0.09851075,1738726511.945426
-0.117125,0.15925,0.165875,-0.0141145,-0.014709501,0.0871735,1738726511.959091
-0.115625,0.17275,0.147625,-0.014053251,-0.00862125,0.0724335,1738726511.975637
-0.11325,0.180375,0.140375,-0.00785825,-0.0032655,0.0432435,1738726511.988087
-0.101375,0.1705,0.139375,-0.0028074998,-0.0013427499,0.02864075,1738726512.003155
-0.091,0.151625,0.137,0.00720225,0.0025940002,0.003296,1738726512.01691
-0.066875,0.120875,0.142875,0.01171875,0.004776,-0.00672925,1738726512.03142
-0.055375,0.10825,0.139875,0.01564025,0.0103455,-0.024475,1738726512.045901
-0.040375,0.095875,0.131375,0.01661675,0.0127105,-0.03274525,1738726512.060385
-0.038625,0.09125,0.12725,0.01852425,0.014938249,-0.041336,1738726512.0757189
-0.043,0.055375,0.100625,0.017578252,0.0175935,-0.05970775,1738726512.089466
-0.047,0.028625,0.090375,0.013503999,0.016296498,-0.068374746,1738726512.1057658
-0.051,-0.002,0.084375,0.0045625,0.0106355,-0.08149725,1738726512.11907
-0.05075,-0.0805,0.086875,0.00077825,0.0074004997,-0.084365755,1738726512.1355531
-0.048,-0.111875,0.09925,0.0016785001,0.0026854998,-0.074829005,1738726512.14756
-0.042375,-0.1345,0.14075,0.0059205,0.0024414998,-0.06419375,1738726512.162178
-0.03675,-0.13575,0.151875,0.0158385,0.008148249,-0.040985,1738726512.1767948
-0.022625,-0.124,0.141375,0.01737975,0.01165775,-0.0301055,1738726512.191288
-0.018125,-0.1025,0.126625,0.016448999,0.013931249,-0.02029425,1738726512.205972
-0.01425,-0.07675,0.11375,0.0110015,0.013122501,-0.009002751,1738726512.220326
-0.008375,-0.048125,0.10975,0.0080415,0.01121525,-0.00782775,1738726512.236161
-0.00575,-0.05075,0.110875,0.00231925,0.00833125,-0.007843,1738726512.249409
-0.000625,-0.068,0.09775,-0.00062550005,0.0072480002,-0.00688175,1738726512.26655
0.000125,-0.069625,0.094625,-0.0064545004,0.00225825,-0.00096125,1738726512.2784698
-0.00375,-0.048625,0.1185,-0.00715625,0.0002135,0.002472,1738726512.295341
-0.00575,-0.036125,0.12225,-0.00567625,0.00042725,0.0052947504,1738726512.3075142
-0.00625,-0.039625,0.113375,-0.0056915004,0.0005645,0.00514225,1738726512.321982
-0.003875,-0.063125,0.10625,-0.0068055,-7.625e-05,0.00517275,1738726512.336561
-0.000875,-0.0995,0.09775,-0.0102845,-0.0035704998,0.011031999,1738726512.351181
0.003125,-0.203375,0.0645,-0.01351925,-0.0061339997,0.018814,1738726512.366693
0.0,-0.25925,0.04475,-0.023956249,-0.01531975,0.050583,1738726512.380178
-0.0435,-0.179,0.084125,-0.023773251,-0.0220795,0.074172996,1738726512.395513
-0.0625,-0.097,0.138375,-0.01741025,-0.026291,0.09907525,1738726512.409397
-0.079125,-0.066625,0.1555,-0.02026375,-0.020629998,0.0993805,1738726512.425518
-0.091125,-0.05575,0.154125,-0.022186251,-0.010253999,0.1029205,1738726512.438581
-0.1185,0.041125,0.147,-0.0218505,-0.0052337497,0.104095496,1738726512.4555662
-0.128875,0.0905,0.1355,-0.02029425,-0.001007,0.1003265,1738726512.4676092
-0.13375,0.129875,0.137,-0.0066374997,0.0040435,0.079651,1738726512.481972
-0.125875,0.188625,0.149625,0.0021057501,0.0076599997,0.06602475,1738726512.496276
-0.1145,0.202375,0.1415,0.011627249,0.0153807495,0.03610225,1738726512.5105999
-0.087375,0.196875,0.1175,0.01278675,0.0169525,0.0204925,1738726512.525568
-0.072875,0.165875,0.103,0.007843,0.016143749,-0.008651749,1738726512.5392919
-0.041125,0.08675,0.073875,0.0028687501,0.013488751,-0.019317752,1738726512.555656
-0.026375,0.0525,0.073375,-0.0009765,0.009597749,-0.02734375,1738726512.568138
-0.0135,0.022875,0.082125,-0.0005645,0.00276175,-0.03598025,1738726512.58579
0.00475,-0.01375,0.099875,0.0024872501,0.0012055,-0.036422748,1738726512.5970812
0.008875,-0.014375,0.111625,0.0114744995,0.00039675,-0.032424998,1738726512.6114502
0.00525,0.000125,0.133,0.01573175,0.00131225,-0.0314025,1738726512.625872
0.0005,-0.008,0.131625,0.016739,0.0040435,-0.03509525,1738726512.6403022
-0.002375,-0.072,0.098125,0.011169501,0.00381475,-0.036972,1738726512.655728
-0.00225,-0.0945,0.0925,0.0038757501,0.001526,-0.035553,1738726512.669268
-0.004125,-0.094375,0.107125,-0.001709,-0.0042725,-0.024078252,1738726512.6858509
-0.013375,-0.056,0.138875,0.0005645,-0.003891,-0.01857,1738726512.698555
-0.0175,-0.0325,0.142875,0.00794975,0.00086975005,-0.013733,1738726512.713761
-0.023,0.001125,0.1405,0.010452249,0.00331125,-0.014572251,1738726512.7274969
-0.025,0.00825,0.14325,0.013137749,0.007309,-0.020172002,1738726512.7419982
-0.028875,0.011375,0.142,0.013778751,0.009903,-0.0237885,1738726512.756394
-0.031,0.014125,0.134125,0.014419501,0.014221249,-0.031158501,1738726512.7707891
-0.032375,0.021125,0.124625,0.014679,0.0151215,-0.034958,1738726512.78589
-0.03525,0.024875,0.120375,0.015090999,0.015457249,-0.038681,1738726512.799893
-0.03775,0.026125,0.115875,0.01763925,0.01498425,-0.046127252,1738726512.8166149
-0.03975,0.018375,0.098875,0.01554875,0.014724749,-0.049606252,1738726512.8288798
-0.041625,0.004875,0.0955,0.0057372497,0.012420749,-0.05567925,1738726512.845372
-0.033875,-0.02525,0.103375,0.0026854998,0.011886501,-0.0569305,1738726512.857833
-0.030125,-0.035375,0.099125,0.00302125,0.01033025,-0.056015,1738726512.875267
-0.022875,-0.062625,0.101875,0.0031127501,0.008606,-0.054123,1738726512.8868322
-0.015,-0.088,0.09225,-0.00068675,0.0077515002,-0.051788248,1738726512.901559
0.004,-0.143125,0.072125,-0.010788,0.00343325,-0.043289248,1738726512.916291
0.007625,-0.14775,0.084875,-0.010788,-0.00131225,-0.034408502,1738726512.930629
0.0075,-0.136,0.102875,-0.00520325,-0.0073547503,-0.01402275,1738726512.945485
0.0055,-0.133625,0.118875,-0.0065002497,-0.0080415,-0.0071105,1738726512.9598668
0.007,-0.17775,0.1185,-0.01631175,-0.008346501,0.00665275,1738726512.9758642
0.006375,-0.30775,0.07375,-0.02421575,-0.008377,0.02124025,1738726512.9890509
-0.01475,-0.323875,0.06125,-0.031372,-0.0168915,0.07383725,1738726513.005433
-0.084625,-0.21325,0.122125,-0.028564502,-0.0229035,0.100753754,1738726513.018294
-0.10775,-0.160375,0.158375,-0.034546003,-0.02053825,0.1273955,1738726513.0355031
-0.137875,-0.04675,0.18125,-0.043472253,-0.012832751,0.13371275,1738726513.0474591
-0.141875,0.0325,0.17975,-0.050415,-0.003296,0.13592525,1738726513.0620701
-0.1395,0.12325,0.157875,-0.05160525,0.0148772495,0.11695851,1738726513.07648
-0.123625,0.27675,0.097,-0.0426025,0.019195499,0.095230006,1738726513.090973
-0.10225,0.276625,0.063125,-0.01890575,0.01982125,0.04173275,1738726513.105786
-0.0715,0.179625,0.012375,-0.010589501,0.014572251,0.020019501,1738726513.119968
-0.071125,0.147625,0.05925,0.005005,-0.0041504996,-0.00308225,1738726513.1355798
-0.0625,0.104125,0.1245,0.0119934995,-0.0044555003,-0.00991825,1738726513.148978
-0.049375,0.092,0.116125,0.014663749,-0.00096125,-0.0158845,1738726513.166548
-0.037625,0.089375,0.115125,0.016296498,0.00340275,-0.02708425,1738726513.1779652
-0.02325,0.0645,0.121375,0.019348249,0.0052795,-0.03306575,1738726513.1928809
-0.017,0.03975,0.11525,0.02430725,0.0080872495,-0.04249575,1738726513.206836
-0.00275,-0.019,0.102,0.02114875,0.007019,-0.045807,1738726513.221241
0.000125,-0.036375,0.108875,0.0119934995,0.00204475,-0.04751575,1738726513.23596
-0.000875,-0.042125,0.12925,0.0102845,0.0008545,-0.04682925,1738726513.2501462
-0.002875,-0.037125,0.134125,0.012054499,0.00149525,-0.0449525,1738726513.266597
-0.00925,-0.022625,0.13325,0.0139465,0.002472,-0.04483025,1738726513.279287
-0.013625,-0.020375,0.12825,0.015533499,0.003418,-0.0456695,1738726513.295418
-0.017625,-0.0245,0.124375,0.017120251,0.004013,-0.048477247,1738726513.308268
-0.022875,-0.046125,0.11775,0.0158845,0.00367725,-0.04875175,1738726513.3253639
-0.0225,-0.056375,0.11875,0.0114744995,0.00267025,-0.04449475,1738726513.3372722
-0.018125,-0.05025,0.121625,0.01127625,0.002411,-0.04072575,1738726513.351734
-0.023375,-0.047875,0.127875,0.011016751,0.00384525,-0.0352325,1738726513.366467
-0.021375,-0.04025,0.126875,0.00738525,0.00691225,-0.0319215,1738726513.380797
-0.018875,-0.029875,0.122875,0.004593,0.00953675,-0.02848825,1738726513.395605
-0.01525,-0.021875,0.12275,0.00720225,0.012436,-0.024765,1738726513.409739
-0.009875,-0.023625,0.116125,0.00862125,0.0137635,-0.024688749,1738726513.42536
-0.008375,-0.031875,0.113125,0.0054475004,0.014663749,-0.02610775,1738726513.438818
-0.002625,-0.048125,0.108375,0.0024872501,0.014099,-0.025772,1738726513.4554508
-0.00025,-0.05125,0.1115,-0.00263975,0.01145925,-0.022491502,1738726513.467812
0.00525,-0.065375,0.111875,-0.00416575,0.01048275,-0.020034749,1738726513.4829178
0.007375,-0.080875,0.1155,-0.0038299998,0.008346501,-0.011825499,1738726513.4968162
0.01775,-0.174,0.113375,-0.0034790002,0.00798025,-0.0056,1738726513.511334
0.027125,-0.25675,0.08075,-0.00617975,0.00801075,0.005066,1738726513.525756
0.02825,-0.3155,0.03425,-0.0180665,0.00010675,0.050888002,1738726513.54015
-0.018,-0.246875,0.026,-0.0173645,-0.010238751,0.0811005,1738726513.5554209
-0.045375,-0.17475,0.052125,-0.0054780003,-0.026764,0.119140506,1738726513.5693371
-0.075625,-0.09275,0.107375,-0.0016175,-0.03005975,0.12539676,1738726513.5857449
-0.0865,-0.027875,0.1375,-0.002655,-0.02793875,0.129013,1738726513.5985239
-0.0925,0.113375,0.147375,-0.00880425,-0.02244575,0.12194825,1738726513.61648
-0.0925,0.158875,0.119125,-0.0138855,-0.013443,0.09417725,1738726513.627552
-0.105875,0.2375,0.109875,-0.008590749,-0.0142365,0.07589725,1738726513.642047
-0.111125,0.23675,0.114625,-0.00378425,-0.01586925,0.05336,1738726513.656548
-0.114625,0.21425,0.124125,0.0005035,-0.01779175,0.008773751,1738726513.6709278
-0.11575,0.166375,0.17675,0.00328075,-0.01634225,-0.0091095,1738726513.685816
-0.108875,0.137875,0.18775,0.00546275,-0.0056609996,-0.0375365,1738726513.700046
-0.089875,0.095375,0.1675,0.0056609996,0.000473,-0.04862975,1738726513.7167401
-0.08125,0.076,0.157625,0.012085,0.010009751,-0.06669625,1738726513.728959
-0.06575,0.032625,0.135625,0.016327,0.013992251,-0.073028505,1738726513.745428
-0.059375,0.013875,0.123125,0.019714251,0.0170745,-0.0774535,1738726513.757938
-0.054,-0.003125,0.1145,0.02415475,0.0194245,-0.0823365,1738726513.775409
-0.04375,-0.0485,0.108875,0.024108998,0.01930225,-0.083725,1738726513.786962
-0.037,-0.082125,0.10175,0.016265752,0.017807,-0.081985496,1738726513.801437
-0.01825,-0.124875,0.08725,0.009323,0.01510625,-0.07804875,1738726513.816604
-0.0085,-0.13875,0.097625,-0.0012665,0.00788875,-0.068344004,1738726513.830532
-0.00675,-0.174375,0.1155,-0.00325,0.0067902496,-0.05838,1738726513.8453948
-0.003375,-0.1575,0.1235,0.00198375,0.009948749,-0.02626025,1738726513.8596811
-0.000125,-0.069,0.121,0.0110932505,0.013092,-0.014007499,1738726513.875365
-0.000875,-0.043125,0.112875,0.019638,0.0154115,-0.0085755,1738726513.888644
-0.001125,-0.035125,0.108125,0.022796748,0.015090999,-0.0101165,1738726513.90547
0.0015,-0.0395,0.091375,0.01474,0.013412501,-0.012436,1738726513.917554
0.002,-0.043625,0.08,-0.0069580004,0.0063934997,-0.0149995005,1738726513.932693
0.0005,-0.058125,0.0885,-0.011031999,0.00131225,-0.014434749,1738726513.946545
-0.000375,-0.065625,0.103875,-0.0072632497,-0.00463875,-0.00883475,1738726513.961246
-0.00125,-0.0765,0.122375,-0.0048979996,-0.0051574996,-0.0047150003,1738726513.975942
0.00025,-0.095875,0.128,-0.00228875,-0.0046539996,0.00328075,1738726513.9904482
0.0105,-0.21075,0.092125,-0.00352475,-0.00381475,0.00912475,1738726514.005419
0.010875,-0.28775,0.049875,-0.0085755,-0.00434875,0.0205535,1738726514.019456
-0.002125,-0.334,0.004,-0.021347,-0.016418502,0.06953425,1738726514.035725
-0.06725,-0.231,0.016875,-0.01820375,-0.029251,0.1003875,1738726514.0486138
-0.09525,-0.109875,0.100125,-0.0042725,-0.0453185,0.136673,1738726514.0665228
-0.1025,0.042375,0.197875,-0.005539,-0.0381775,0.13273625,1738726514.077746
-0.106875,0.06275,0.18475,-0.014648501,-0.01608275,0.112640254,1738726514.095243
-0.14025,0.16425,0.148375,-0.01206975,-0.0093995,0.10534675,1738726514.106753
-0.1525,0.214875,0.133,-0.0051574996,-0.0054475004,0.0936585,1738726514.121269
-0.145125,0.24125,0.149625,0.004303,-0.0054015,0.054580748,1738726514.135752
-0.130375,0.225375,0.166375,0.00364675,-0.00531,0.031952,1738726514.1501231
-0.113,0.19625,0.17125,0.000122000005,0.00160225,-0.00817875,1738726514.166304
-0.076375,0.13175,0.150875,-0.00083925005,0.006073,-0.02354425,1738726514.17906
-0.060375,0.107125,0.133875,-0.0009765,0.0119934995,-0.0464935,1738726514.195379
-0.040875,0.084125,0.1185,0.00086975005,0.013290499,-0.056366,1738726514.20794
-0.04,0.073875,0.116,0.0077972496,0.0149535,-0.07887275,1738726514.225311
-0.05,0.01775,0.11275,0.0122375,0.0157165,-0.090454005,1738726514.236799
-0.057375,-0.025,0.111,0.01649475,0.01664725,-0.09989925,1738726514.251265
-0.060125,-0.07925,0.10525,0.020324752,0.01841725,-0.10682675,1738726514.2670562
-0.036375,-0.215125,0.05575,0.016098,0.01753225,-0.102127,1738726514.280249
-0.019375,-0.2565,0.03825,6.1000002e-05,0.003006,-0.073288,1738726514.29558
-0.005125,-0.235,0.103375,-0.00411975,-0.0062865,-0.05363475,1738726514.30941
-0.00575,-0.197625,0.145375,-0.0005645,-0.0076142503,-0.01838675,1738726514.325713
-0.008625,-0.107875,0.160875,0.004593,-0.00119025,-0.0046539996,1738726514.3388212
-0.009,-0.063,0.14625,0.014389,0.009811499,0.0089875,1738726514.355697
-0.009375,-0.00825,0.125875,0.0161895,0.011810251,0.00791925,1738726514.3677151
-0.009125,-0.007125,0.117875,0.01504525,0.01245125,0.00352475,1738726514.382111
-0.008,-0.01875,0.105625,0.0032195,0.010681249,-0.00579825,1738726514.39662
-0.009,-0.042625,0.0835,-0.0033570002,0.00773625,-0.00741575,1738726514.411443
-0.01125,-0.043,0.0835,-0.00801075,-0.00096125,-0.0047150003,1738726514.426222
-0.01375,-0.0375,0.12175,-0.0065612504,-0.00437925,-0.0021972498,1738726514.4409459
-0.01325,-0.03175,0.138375,-0.00074775,-0.0028535,0.0030365,1738726514.4561138
-0.01,-0.011625,0.142875,0.0019989999,0.00027475,0.004547,1738726514.469921
-0.00875,-0.004625,0.136,0.00355525,0.0050965,0.0026245,1738726514.486007
-0.004875,-0.012,0.11975,0.0018615,0.0057677496,0.0002595,1738726514.498873
-0.002,-0.020625,0.113,-0.00093075,0.0054015,-0.00184625,1738726514.516709
0.000375,-0.032375,0.1105,-0.0064545004,0.00267025,-0.00444025,1738726514.528021
0.00525,-0.08575,0.103,-0.00785825,0.0013275,-0.00408925,1738726514.545419
0.01075,-0.155625,0.09225,-0.00889575,-0.001114,0.0061950004,1738726514.557037
0.015875,-0.38425,0.029125,-0.0075377496,-0.0023345,0.02525325,1738726514.5715258
-0.012375,-0.41425,-0.0035,0.0049742498,-0.01911925,0.101318255,1738726514.586136
-0.095125,-0.24625,0.054625,0.013839751,-0.0327605,0.13691701,1738726514.6007528
-0.12475,-0.143125,0.115,0.01838675,-0.042282,0.157135,1738726514.616624
-0.151625,0.057625,0.222375,0.00823975,-0.0395355,0.157608,1738726514.629819
-0.15325,0.1405,0.215125,-0.00296025,-0.027404752,0.1447755,1738726514.645445
-0.154375,0.19475,0.164125,-0.021514999,-0.00585925,0.10467525,1738726514.659016
-0.149375,0.262125,0.097,-0.0213165,-0.0047150003,0.080429,1738726514.6752949
-0.13875,0.266,0.111875,-0.01150525,-0.01042175,0.02622975,1738726514.6880152
-0.1105,0.199125,0.1695,-0.0075835,-0.010147001,0.0015105,1738726514.7052329
-0.09525,0.15875,0.180125,-0.0037995,-0.00048825,-0.032821752,1738726514.7171478
-0.067,0.097375,0.154,-0.004486,0.00531,-0.044616748,1738726514.731709
-0.054875,0.070125,0.129875,-0.00567625,0.009582501,-0.0549165,1738726514.74622
-0.031875,-0.00175,0.087625,-0.0038757501,0.0122985,-0.072280996,1738726514.7608042
-0.018375,-0.053875,0.062125,-0.002243,0.01091,-0.077652,1738726514.7758029
-0.00425,-0.1055,0.04325,-0.0010375,-0.00064075,-0.0731965,1738726514.7900941
0.007375,-0.13275,0.07475,0.00137325,-0.00880425,-0.0630035,1738726514.805482
0.0025,-0.10725,0.1165,0.0075072497,-0.016570998,-0.042511,1738726514.819212
-0.01225,-0.06675,0.17025,0.008377,-0.01380925,-0.037445,1738726514.8359208
-0.017375,-0.06425,0.17375,0.0077210004,-0.0021819999,-0.0328065,1738726514.8484218
-0.02325,-0.0685,0.151625,0.0072785,0.00354,-0.03022775,1738726514.8665018
-0.02375,-0.06925,0.133,0.00393675,0.00991825,-0.02357475,1738726514.877467
-0.022,-0.057625,0.0975,0.001114,0.009552,-0.019775499,1738726514.891948
-0.02175,-0.04025,0.099,-1.5250001e-05,0.0070342496,-0.016128499,1738726514.9065669
-0.022125,-0.022625,0.112375,0.003769,0.0024872501,-0.01301575,1738726514.921154
-0.024375,0.006625,0.140875,0.0057220003,0.0027160002,-0.013992251,1738726514.9355378
-0.026,0.016375,0.151125,0.008072,0.0074004997,-0.01988225,1738726514.949908
-0.030625,0.019625,0.156125,0.0090485,0.011031999,-0.023956249,1738726514.966856
-0.032125,0.011125,0.14825,0.0056304997,0.01734925,-0.032959,1738726514.978845
-0.02925,-0.02075,0.12025,0.00149525,0.018814,-0.036209,1738726514.995554
-0.026625,-0.032125,0.113625,-0.0022277501,0.018631,-0.037033,1738726515.008178
-0.024,-0.036875,0.117875,-0.00367725,0.01640325,-0.033508252,1738726515.025419
-0.017,-0.042875,0.125125,-0.00062550005,0.0168915,-0.03096,1738726515.037486
-0.010875,-0.0475,0.121,0.005249,0.018127501,-0.0256805,1738726515.055404
-0.00425,-0.0505,0.119625,0.006836,0.01747125,-0.02360525,1738726515.066744
-0.002875,-0.059875,0.12225,0.006073,0.01753225,-0.01997375,1738726515.081163
0.005625,-0.082,0.128,0.00434875,0.0183715,-0.016418502,1738726515.095658
0.009625,-0.106125,0.1345,0.0028687501,0.021408001,-0.00402825,1738726515.110251
0.031625,-0.216125,0.072,0.0011445,0.023834249,0.00535575,1738726515.125696
0.049375,-0.312125,-0.00675,-0.0027160002,0.023056,0.018692,1738726515.13903
0.05075,-0.376,-0.071125,-0.0028229998,-0.002243,0.07159425,1738726515.1554828
-0.023,-0.25,0.001125,0.0066985004,-0.023346001,0.105606005,1738726515.168184
-0.056125,-0.12825,0.088875,0.017852752,-0.043472253,0.1370545,1738726515.185667
-0.0685,-0.046875,0.148625,0.01127625,-0.0399475,0.13134775,1738726515.1972742
-0.071,-0.045125,0.15275,0.00071725,-0.028885,0.1188355,1738726515.211848
-0.093875,0.06075,0.1725,-0.0011445,-0.02357475,0.116394,1738726515.226429
-0.100125,0.14275,0.159375,-0.00485225,-0.013336251,0.09013375,1738726515.240916
-0.08925,0.168375,0.129375,-0.0077972496,-0.011886501,0.066513,1738726515.255645
-0.08625,0.148875,0.130625,-0.00930775,-0.011917,0.045715246,1738726515.269896
-0.08475,0.13325,0.1345,-0.009017999,-0.0104674995,0.01753225,1738726515.285841
-0.08175,0.124875,0.139625,-0.0063325,-0.008667,0.00596625,1738726515.298924
-0.076,0.11875,0.14225,0.001419,-0.0044555003,-0.0178985,1738726515.317081
-0.059875,0.096,0.146375,0.0033722501,-0.0023039998,-0.02934275,1738726515.3279428
-0.0535,0.086125,0.139875,0.003128,0.001953,-0.050766,1738726515.345353
-0.048375,0.064375,0.123875,0.0025940002,0.0029755002,-0.061676,1738726515.356828
-0.04825,0.046625,0.1225,0.00239575,0.00331125,-0.072250254,1738726515.371202
-0.04875,-0.003625,0.1205,0.0033722501,0.0040435,-0.087905996,1738726515.385931
-0.047875,-0.030125,0.1175,0.0040587503,0.004486,-0.09114075,1738726515.400207
-0.04575,-0.056,0.116875,0.0060577504,0.0042267498,-0.08801275,1738726515.4159539
-0.030875,-0.11875,0.107875,0.0074615004,0.00428775,-0.08288575,1738726515.429216
-0.017,-0.14725,0.09575,0.00109875,0.001236,-0.062377997,1738726515.445426
-0.00825,-0.12025,0.115125,-0.00267025,-0.00263975,-0.04821775,1738726515.458451
-0.0095,-0.088875,0.142125,-0.00369275,-0.0041044997,-0.02948,1738726515.4754739
-0.012375,-0.04575,0.1605,-0.0021819999,-1.5250001e-05,-0.024826,1738726515.487861
-0.013125,-0.0275,0.152625,0.00048825,0.005005,-0.021698,1738726515.505436
-0.012125,-0.017125,0.126,0.004837,0.01206975,-0.0212555,1738726515.5169501
-0.01075,-0.026,0.117,0.0049895,0.012909001,-0.02265925,1738726515.5315032
-0.008875,-0.036125,0.114125,0.0029145,0.01104725,-0.023254499,1738726515.546029
-0.005375,-0.050875,0.106875,0.0014495,0.00991825,-0.02215575,1738726515.560506
-0.003875,-0.054875,0.102875,-0.00051875,0.0063477503,-0.01753225,1738726515.575645
-0.002875,-0.052625,0.108125,-0.00042725,0.0041044997,-0.014328,1738726515.5897
-0.003125,-0.0465,0.116875,0.0025787498,0.001831,-0.0081025,1738726515.605588
-0.003625,-0.033375,0.130125,0.00434875,0.0023039998,-0.0062255003,1738726515.618748
-0.003875,-0.031125,0.1305,0.0055085,0.00343325,-0.00564575,1738726515.63562
-0.004625,-0.031875,0.128125,0.0057220003,0.0057372497,-0.0070037497,1738726515.647716
-0.0085,-0.0395,0.132875,0.0059205,0.006363,-0.0080567505,1738726515.662241
-0.00875,-0.046,0.138875,0.0042572496,0.0085755,-0.008545,1738726515.676713
-0.0045,-0.084,0.1435,0.001114,0.009872501,-0.0071409997,1738726515.691253
0.002375,-0.1395,0.13675,-0.00514225,0.0137635,0.0017852499,1738726515.705754
0.028,-0.3575,0.018625,-0.01077275,0.01501475,0.01440425,1738726515.720247
0.020875,-0.436625,-0.055875,-0.014282251,-0.00238025,0.07754525,1738726515.7354271
-0.0655,-0.2325,-0.010625,-0.002472,-0.022873,0.117523246,1738726515.749593
-0.09075,-0.082625,0.09575,0.00985725,-0.04119875,0.14164725,1738726515.766628
-0.093625,0.006125,0.14875,0.0011445,-0.040634252,0.13365175,1738726515.7787688
-0.0855,0.09375,0.157875,-0.0077972496,-0.03341675,0.120376505,1738726515.7957718
-0.086875,0.147375,0.156,-0.014587499,-0.020813,0.09107975,1738726515.807791
-0.091375,0.2075,0.118,-0.01716625,-0.01670825,0.070556745,1738726515.82557
-0.094875,0.198375,0.107625,-0.0154725,-0.016845752,0.028259251,1738726515.836929
-0.1005,0.147125,0.1345,-0.01020825,-0.01820375,0.012146,1738726515.851525
-0.098875,0.12475,0.1575,-0.0007325,-0.0149995005,-0.0089875,1738726515.867008
-0.084375,0.097125,0.184875,0.00213625,-0.010009751,-0.016632,1738726515.880703
-0.07275,0.0895,0.180125,0.00419625,-0.0037385002,-0.0235595,1738726515.89587
-0.05975,0.078125,0.16375,0.00561525,0.0073395,-0.036728002,1738726515.909639
-0.035125,0.03625,0.122125,0.0056304997,0.01019275,-0.042099,1738726515.925707
-0.023375,0.003125,0.10375,0.00352475,0.009521499,-0.04768375,1738726515.9385128
-0.004,-0.057875,0.08425,0.0017852499,0.00646975,-0.04621875,1738726515.955393
-0.000375,-0.06775,0.088625,-0.00042725,-0.0012970001,-0.036255002,1738726515.967804
0.0015,-0.054,0.11775,-0.001419,-0.00402825,-0.0312805,1738726515.9856372
-0.00125,-0.045125,0.133875,-0.00308225,-0.00444025,-0.0247955,1738726515.997101
-0.00875,-0.027375,0.14825,-0.00254825,-0.00201425,-0.02316275,1738726516.011786
-0.011875,-0.025375,0.145625,-0.00070200005,0.0012970001,-0.02253725,1738726516.026421
-0.016625,-0.02775,0.12775,0.0036010002,0.007019,-0.0210725,1738726516.040918
-0.016625,-0.0355,0.115,0.0038299998,0.0084379995,-0.019806,1738726516.0555148
-0.015125,-0.044875,0.1045,0.001709,0.0070952503,-0.01525875,1738726516.070176
-0.013125,-0.0355,0.10475,0.00157175,0.00494375,-0.011886501,1738726516.0856278
-0.013125,-0.01825,0.115125,0.001953,0.0017395001,-0.00889575,1738726516.099228
-0.014375,-0.000875,0.128,0.00146475,0.0016632499,-0.0104674995,1738726516.1164212
-0.01575,0.001,0.13075,0.00070200005,0.0026092501,-0.01496875,1738726516.128133
-0.018375,-0.009625,0.1305,0.000473,0.0036315,-0.017120251,1738726516.145216
-0.017375,-0.02925,0.122125,0.0,0.004837,-0.018692,1738726516.157131
-0.01475,-0.05225,0.114125,0.0002595,0.0050202496,-0.016159,1738726516.171613
-0.008875,-0.067375,0.11425,0.0013427499,0.00419625,-0.0114135,1738726516.186163
-0.00725,-0.051625,0.11925,0.00238025,0.00314325,-0.0014495,1738726516.200613
-0.005,-0.01675,0.130625,0.002655,0.00331125,0.00036625,1738726516.215997
-0.004125,-0.0095,0.129625,0.0034790002,0.0048065,-0.0007325,1738726516.229465
-0.00225,-0.01,0.11825,0.00302125,0.0051880004,-0.00190725,1738726516.2452009
-0.001375,-0.01925,0.113125,0.00149525,0.0043639997,-0.00302125,1738726516.258635
0.000125,-0.032125,0.104,0.00093075,0.0032195,-0.00181575,1738726516.275237
0.0,-0.027375,0.107125,0.0003205,0.0013885,0.000412,1738726516.287507
-0.000375,-0.016625,0.114875,0.0002595,-0.0014495,0.00390625,1738726516.305161
-0.00175,0.003,0.1265,0.0004425,-0.001648,0.0038757501,1738726516.316538
-0.0025,0.0065,0.12875,-0.000122000005,-0.00071725,0.00109875,1738726516.3310668
-0.0035,-0.00275,0.12475,-0.000824,-0.000229,-0.00054925,1738726516.3457642
-0.003875,-0.011875,0.121125,-0.00163275,-0.00029,-0.00143425,1738726516.3604999
-0.005375,-0.021125,0.119,-0.0013580001,-0.00086975005,-0.0005035,1738726516.375456
-0.00675,-0.019875,0.12325,0.0002595,-0.00201425,0.0018615,1738726516.389832
-0.0085,-0.010875,0.13025,0.001007,-0.0019225,0.0025025,1738726516.4054341
-0.0095,-0.0055,0.13325,0.00083925005,-0.00160225,0.0026245,1738726516.418864
-0.01,-0.002625,0.137625,0.000183,-0.0001525,0.00119025,1738726516.433385
