acc_x,acc_y,acc_z,gyro_x,gyro_y,gyro_z,timestamp
-0.004875,-0.010875,0.126375,1.5250001e-05,0.00045775,-0.00068675,1738726517.497855
-0.0045,-0.011125,0.1255,-0.00051875,0.0011445,-0.00112925,1738726517.5130482
-0.003125,-0.0125,0.122625,-0.0005645,0.0013580001,-0.00125125,1738726517.52923
-0.002625,-0.014125,0.12075,-0.0003205,0.001526,-0.001114,1738726517.541733
-0.001375,-0.01675,0.11675,-0.00019825,0.00131225,-0.00074775,1738726517.556375
-0.000875,-0.016125,0.11725,-0.00010675,0.000534,0.00030525,1738726517.5708458
-0.000375,-0.0115,0.119625,-1.5250001e-05,0.00030525,0.00064075,1738726517.5853179
-0.000375,-0.01,0.11875,-0.000824,0.0,0.0005645,1738726517.599839
-0.000875,-0.0115,0.121125,-0.00146475,-0.00035100002,0.00030525,1738726517.615267
-0.0015,-0.01175,0.1245,-0.00181575,-0.00059500005,7.625e-05,1738726517.628971
-0.002,-0.012,0.126875,-0.0021057501,7.625e-05,-0.00036625,1738726517.6448882
-0.00275,-0.014,0.12625,-0.00270075,0.0007325,-0.00045775,1738726517.658131
-0.0025,-0.014875,0.1255,-0.003296,0.00143425,-0.00029,1738726517.674792
-0.00125,-0.013,0.12525,-0.0031889998,0.0016175,-0.00013725001,1738726517.687367
-0.000625,-0.014,0.125,-0.0020599999,0.0017852499,9.15e-05,1738726517.7018392
0.00075,-0.01375,0.12275,-0.0011445,0.00175475,0.00035100002,1738726517.716275
0.00125,-0.014125,0.12175,-6.1000002e-05,0.0014037499,0.00059500005,1738726517.7307642
0.00125,-0.017375,0.120875,-4.575e-05,0.00105275,0.000763,1738726517.745167
0.000875,-0.017625,0.122375,0.000122000005,0.00061025,0.001175,1738726517.759478
0.00025,-0.0165,0.12425,0.00102225,0.00016775,0.0022125002,1738726517.774836
-0.0005,-0.013625,0.127,0.00157175,0.0003205,0.0024414998,1738726517.7882519
-0.000375,-0.01275,0.126,0.0027465,0.00102225,0.0025025,1738726517.804734
0.00075,-0.013375,0.1225,0.00308225,0.00119025,0.0024872501,1738726517.817098
0.001125,-0.01525,0.1205,0.002365,0.00105275,0.00245675,1738726517.8313851
0.001875,-0.0185,0.1155,0.0015105,0.00074775,0.0028229998,1738726517.845686
0.0025,-0.019625,0.111625,0.00027475,0.000229,0.00352475,1738726517.860074
0.003125,-0.023625,0.108,-0.00198375,-0.00181575,0.00585925,1738726517.874966
-0.002,-0.02075,0.10775,-0.0027160002,-0.0031585,0.0080567505,1738726517.889204
-0.0115,0.003625,0.12125,-0.00434875,-0.0038299998,0.0129700005,1738726517.9049568
-0.03925,0.1185,0.153875,-0.00112925,-0.00036625,0.013839751,1738726517.9184608
-0.05625,0.206875,0.15475,0.019744748,0.0104674995,0.004303,1738726517.934787
-0.102,0.35775,0.15625,0.02781675,0.014068499,-0.01200875,1738726517.947384
-0.131,0.387375,0.158,0.02513125,0.01681525,-0.038025003,1738726517.961781
-0.162375,0.349,0.17375,0.0041810004,0.02211,-0.1065215,1738726517.976247
-0.211625,0.097125,0.185875,-0.001648,0.02787775,-0.13365175,1738726517.9908302
-0.2005,-0.0865,0.164125,0.006607,0.040664747,-0.15000924,1738726518.005409
-0.0285,-0.489125,-0.04375,0.0059205,0.0438385,-0.13565075,1738726518.019965
0.0675,-0.5,-0.156125,0.011139,0.01193225,-0.041748002,1738726518.034493
0.06675,-0.321125,0.024375,0.025299,-0.01838675,0.01150525,1738726518.048952
0.028875,-0.166625,0.1855,0.0117035,-0.03382875,0.033264253,1738726518.065682
0.01775,-0.13175,0.196875,-0.0114744995,-0.01953125,0.017852752,1738726518.078099
0.02425,-0.19025,0.118625,-0.0272675,-0.006668,0.0086975,1738726518.094499
0.01925,-0.203875,0.071125,-0.029892,-0.0044707498,0.026275748,1738726518.1071181
-0.0185,-0.086625,0.08075,-0.026855499,-0.008667,0.0390625,1738726518.1216152
-0.034125,-0.023875,0.099125,-0.0212555,-0.013183501,0.0483245,1738726518.136269
-0.045375,0.04275,0.116,-0.017852752,-0.013564999,0.0468445,1738726518.150811
-0.046125,0.0585,0.1265,-0.00968925,-0.013321,0.0405885,1738726518.165605
-0.0425,0.069125,0.15525,-0.006363,-0.012054499,0.036163248,1738726518.179877
-0.03725,0.05925,0.15775,-0.003952,-0.0066985004,0.02565,1738726518.194638
-0.02275,0.0185,0.14025,-0.0032347501,-0.004303,0.022171,1738726518.2088299
-0.015625,-0.000625,0.12875,-0.001953,-0.0028074998,0.02101125,1738726518.224243
-0.010125,-0.0145,0.11775,0.0010375,-0.00251775,0.024353001,1738726518.238086
-0.005875,-0.011625,0.115875,0.00187675,-0.0033722501,0.027007999,1738726518.25457
-0.005375,-0.0025,0.120875,0.002655,-0.0037995,0.028594999,1738726518.267037
-0.004,0.0005,0.124625,0.0029907501,-0.00320425,0.02749625,1738726518.2814631
-0.003125,-0.009875,0.117125,0.00177,-0.002243,0.025085501,1738726518.2960792
-0.003,-0.035375,0.102625,0.00068675,-0.0029755002,0.025589,1738726518.310581
-0.004125,-0.03925,0.100625,0.000473,-0.005066,0.03108225,1738726518.3250911
-0.008625,-0.011375,0.102375,0.00093075,-0.0059510004,0.034606997,1738726518.339551
-0.012875,0.018,0.108625,0.0014495,-0.00671375,0.036972,1738726518.354932
-0.018375,0.04975,0.11325,0.0,-0.0067902496,0.03376775,1738726518.3683379
-0.028875,0.082625,0.118875,-0.0019685,-0.00621025,0.028427,1738726518.385087
-0.035,0.092125,0.119875,-0.0042572496,-0.00434875,0.0184785,1738726518.397362
-0.048875,0.1435,0.129125,-0.0034637498,-0.00283825,0.014343251,1738726518.411807
-0.057125,0.190875,0.13025,0.00640875,0.00231925,0.0015105,1738726518.4261901
-0.080375,0.28375,0.131125,0.01681525,0.0050965,-0.011734,1738726518.4407449
-0.0965,0.280625,0.1315,0.0240325,0.0075072497,-0.0324555,1738726518.455302
-0.116125,0.242,0.14475,0.017517,0.009903,-0.082275495,1738726518.469731
-0.1515,0.095125,0.1805,0.01054375,0.012985251,-0.102539,1738726518.485047
-0.1585,0.00575,0.182625,0.0034484998,0.023940999,-0.12321475,1738726518.498697
-0.140125,-0.167375,0.1825,0.002243,0.02886975,-0.123138495,1738726518.515954
-0.1155,-0.236,0.17425,0.0061950004,0.03775025,-0.1021575,1738726518.527818
-0.033125,-0.3535,0.102125,0.01020825,0.040283248,-0.08341975,1738726518.544836
0.013625,-0.378375,0.044,0.01658625,0.0315095,-0.0329895,1738726518.5569541
0.057375,-0.308125,0.006125,0.01628125,0.019134501,-0.007553,1738726518.571338
0.048625,-0.2335,0.049125,0.011917,0.00579825,0.01210025,1738726518.585649
0.034375,-0.1645,0.0955,-0.0048979996,-0.0051574996,0.026122998,1738726518.6002681
0.019125,-0.11025,0.105875,-0.01248175,-0.00320425,0.024947999,1738726518.616023
0.01525,-0.10925,0.0875,-0.0158845,-0.0012817499,0.02690125,1738726518.629339
0.003375,-0.09975,0.068375,-0.012909001,-0.003006,0.032547,1738726518.645188
-0.00525,-0.081125,0.06525,-0.0068665,-0.008773751,0.046752997,1738726518.6584342
-0.020875,-0.032125,0.07225,-0.00538625,-0.01260375,0.052185003,1738726518.673235
-0.0275,0.000875,0.0885,-0.00505075,-0.0164795,0.055359002,1738726518.68759
-0.030875,0.0355,0.108875,-0.0049590003,-0.020034749,0.05233775,1738726518.7050502
-0.025875,0.081875,0.13775,-0.0048065,-0.01930225,0.046325747,1738726518.716664
-0.0215,0.087,0.14725,-0.005005,-0.015213001,0.02996825,1738726518.7312331
-0.01625,0.061375,0.15225,-0.0051269997,-0.0122985,0.0220795,1738726518.745816
-0.0145,0.035875,0.148,-0.00358575,-0.0068665,0.0128785,1738726518.760336
-0.0095,-0.009375,0.1285,-0.0020295,-0.0052337497,0.01266475,1738726518.7749481
-0.00825,-0.016625,0.123875,0.001068,-0.0050965,0.01753225,1738726518.7895172
-0.007125,-0.00675,0.130375,0.0021819999,-0.00514225,0.02000425,1738726518.804571
-0.006125,0.000625,0.1355,0.00317375,-0.0046234997,0.02124025,1738726518.818393
-0.003875,0.00125,0.136125,0.0030669998,-0.0020752498,0.0199585,1738726518.8353338
0.003625,-0.02125,0.114125,0.0011445,-0.0011445,0.019104,1738726518.847432
0.007375,-0.03825,0.1005,-0.0029907501,-0.00239575,0.021759002,1738726518.861998
0.006875,-0.050125,0.089875,-0.0034484998,-0.00402825,0.0259095,1738726518.8765042
0.002125,-0.036625,0.09275,-0.0013275,-0.0070952503,0.03671275,1738726518.891018
-0.019125,0.03275,0.12325,0.00096125,-0.0076142503,0.04104625,1738726518.9054358
-0.03375,0.07675,0.140875,0.004837,-0.0022735,0.043045,1738726518.9199538
-0.072625,0.2465,0.146625,0.00596625,0.0029449998,0.039184503,1738726518.9348962
-0.09625,0.3615,0.143875,0.010589501,0.0079345,0.027862499,1738726518.9486122
-0.12075,0.439625,0.14,0.030365,0.01525875,-0.03025825,1738726518.965878
-0.18125,0.3665,0.16825,0.0300445,0.0163575,-0.07194525,1738726518.977691
-0.21925,0.259,0.2175,0.009094249,0.023819,-0.143341,1738726518.99486
-0.273125,-0.0385,0.253375,0.00193775,0.03569025,-0.165161,1738726519.006835
-0.26325,-0.202875,0.212875,0.00013725001,0.059906,-0.1670685,1738726519.021306
-0.13575,-0.438375,0.067375,0.0037385002,0.064209,-0.147873,1738726519.035826
-0.022625,-0.5,-0.0215,0.008850001,0.062393248,-0.118805,1738726519.050399
0.072,-0.5,-0.11925,0.01997375,0.032409754,-0.02601625,1738726519.066199
0.07725,-0.295,-0.042875,0.025589,0.0016175,0.01496875,1738726519.0794308
0.038875,-0.183875,0.10125,0.004486,-0.02749625,0.032653753,1738726519.095336
0.013875,-0.08725,0.16075,-0.0138702495,-0.0189515,0.02613825,1738726519.108531
0.020625,-0.07675,0.10675,-0.02996825,-0.0033570002,0.018432502,1738726519.125879
0.022625,-0.073625,0.033375,-0.026413,-0.0049285004,0.0210725,1738726519.1375308
0.01225,-0.064,0.04675,-0.010024999,-0.016540501,0.034866247,1738726519.1556249
-0.013375,-0.028125,0.0885,-0.0050965,-0.020401,0.0418395,1738726519.1691048
-0.022375,-0.00325,0.111625,-0.002655,-0.022934001,0.04670725,1738726519.181272
-0.02625,0.014625,0.13475,-0.002472,-0.022766002,0.04653925,1738726519.1958349
-0.0205,0.006375,0.1405,-0.0048979996,-0.020034749,0.043045,1738726519.210324
-0.0145,-0.0155,0.11875,-0.01345825,-0.01737975,0.03825375,1738726519.226031
-0.0125,-0.056875,0.0975,-0.015304499,-0.01937875,0.039627,1738726519.2395039
-0.016875,-0.066375,0.104,-0.0093995,-0.022995,0.0494385,1738726519.255423
-0.031875,-0.038875,0.133,-0.00408925,-0.023407,0.05555725,1738726519.268681
-0.036375,-0.014375,0.149375,0.0067445002,-0.019348249,0.059951752,1738726519.285698
-0.035,0.020125,0.164375,0.01062,-0.0155030005,0.057953,1738726519.297706
-0.032875,0.032,0.151875,0.012130749,-0.01115425,0.054183997,1738726519.312211
-0.0315,0.04,0.130125,0.0043944996,-0.0071105,0.04367075,1738726519.326726
-0.031,0.063875,0.112875,-0.0026092501,-0.0085602505,0.037902746,1738726519.341228
-0.031,0.072625,0.12275,-0.009948749,-0.010727,0.024414,1738726519.355843
-0.0325,0.071625,0.133625,-0.010024999,-0.00941475,0.0178375,1738726519.3702972
-0.033875,0.0665,0.1345,-0.00823975,-0.005539,0.008194,1738726519.385631
-0.038,0.077,0.13925,-0.0065002497,-0.00317375,0.0049895,1738726519.3993
-0.041,0.0995,0.137,-0.0027465,0.0031127501,-0.0031889998,1738726519.416429
-0.049375,0.165125,0.12,-0.001236,0.0055847503,-0.01036075,1738726519.428324
-0.060625,0.21,0.127625,0.00148,0.0067902496,-0.02034,1738726519.44267
-0.081,0.246875,0.140125,0.01425175,0.0128785,-0.052368253,1738726519.4571211
-0.131,0.194625,0.142125,0.0174865,0.018188499,-0.07324225,1738726519.4716601
-0.150375,0.14625,0.145125,0.010940501,0.02613825,-0.103653,1738726519.486114
-0.16875,0.057625,0.1265,0.010879501,0.03034975,-0.11236575,1738726519.50072
-0.161625,0.0025,0.09175,0.01956175,0.032409754,-0.1195525,1738726519.51632
-0.120375,-0.141625,0.071,0.0211335,0.028167749,-0.118667506,1738726519.5296042
-0.09475,-0.229375,0.09175,0.01882925,0.02278125,-0.113861,1738726519.5452642
-0.0625,-0.312625,0.11275,0.011856,0.01808175,-0.087509245,1738726519.558757
0.0215,-0.43525,0.089125,0.01054375,0.01852425,-0.064682,1738726519.575101
0.047375,-0.421625,0.0405,0.01036075,0.009384249,-0.0088805,1738726519.587692
0.03725,-0.283375,0.065,0.00715625,-0.003006,0.012680001,1738726519.604716
0.02025,-0.226375,0.1175,-0.0065612504,-0.014419501,0.03259275,1738726519.616745
0.001,-0.175875,0.127875,-0.013275251,-0.0115815,0.03657525,1738726519.6312609
-0.005625,-0.157125,0.108625,-0.02139275,-0.0076142503,0.045043997,1738726519.6458602
-0.02225,-0.119,0.07375,-0.0219115,-0.008270251,0.050598253,1738726519.660507
-0.033625,-0.099875,0.065375,-0.02076725,-0.0105742505,0.05706775,1738726519.675366
-0.0465,-0.07275,0.067,-0.01826475,-0.01756275,0.07121275,1738726519.689696
-0.070125,0.006875,0.101625,-0.0169525,-0.0204925,0.0758515,1738726519.705308
-0.07275,0.04075,0.123125,-0.011901749,-0.0207215,0.073410004,1738726519.718793
-0.05975,0.076,0.145125,-0.009201,-0.01808175,0.0672455,1738726519.735552
-0.04975,0.0805,0.143625,-0.0041504996,-0.0110625,0.05220025,1738726519.747807
-0.032375,0.08125,0.132375,-0.00292975,-0.00852975,0.04492175,1738726519.762261
-0.026125,0.073125,0.1305,-0.003296,-0.00546275,0.03114325,1738726519.776768
-0.0185,0.05,0.123125,-0.0033570002,-0.00402825,0.02595525,1738726519.7912629
-0.017,0.042,0.11925,-0.0028687501,-0.003006,0.0220795,1738726519.8057332
-0.01625,0.035,0.120125,-0.00086975005,-0.00228875,0.0168,1738726519.820296
-0.01525,0.022625,0.1245,1.5250001e-05,-0.0017395001,0.01519775,1738726519.8360581
-0.01425,0.0145,0.125625,0.00065625,-0.0003205,0.013275251,1738726519.849099
-0.0115,-0.0025,0.12075,0.0004425,0.0002595,0.012847999,1738726519.866001
-0.010125,-0.00775,0.119625,3.0500001e-05,0.0002135,0.01345825,1738726519.87795
-0.00875,-0.008,0.111625,-0.000473,9.15e-05,0.01396175,1738726519.895068
-0.009375,-0.001375,0.10675,-0.00193775,-0.00051875,0.014267,1738726519.907118
-0.011875,0.010375,0.10875,-0.00611875,-0.002884,0.013854999,1738726519.921598
-0.0235,0.04325,0.11625,-0.007843,-0.0033264998,0.013031,1738726519.936248
-0.0325,0.066375,0.123375,-0.00842275,-0.0018615,0.010788,1738726519.950741
-0.059875,0.173625,0.147125,-0.00440975,0.0012055,0.008850001,1738726519.966274
-0.082125,0.267125,0.16,0.015976,0.0129395,-0.00953675,1738726519.979697
-0.1415,0.39225,0.1615,0.02301025,0.0198365,-0.03395075,1738726519.995216
-0.17625,0.379375,0.161875,0.009948749,0.028656,-0.103241,1738726520.008659
-0.242125,0.20775,0.165625,0.0025940002,0.032333247,-0.1341095,1738726520.025114
-0.2575,0.06475,0.145625,0.00090025004,0.036758497,-0.15635675,1738726520.0376692
-0.241875,-0.11825,0.121375,0.003418,0.041793752,-0.16714475,1738726520.055234
-0.082875,-0.5,0.0505,0.00074775,0.042358503,-0.14845274,1738726520.0667388
0.0125,-0.5,-0.01175,0.0078125,0.029007,-0.06001275,1738726520.081255
0.074375,-0.4,-0.0085,0.02165225,0.01177975,-0.01542675,1738726520.095787
0.0545,-0.292625,0.067875,0.01826475,-0.013321,0.02171325,1738726520.1102238
0.023,-0.196375,0.152,0.00093075,-0.013351499,0.0213775,1738726520.125199
0.0205,-0.196,0.137,-0.0141145,-0.00889575,0.02012625,1738726520.1391969
0.0175,-0.185375,0.103375,-0.023940999,-0.00267025,0.03079225,1738726520.155606
-0.0025,-0.081875,0.052625,-0.020629998,-0.0044707498,0.03955075,1738726520.168409
-0.016,-0.029125,0.053375,-0.0058287503,-0.0148925,0.049606252,1738726520.185503
-0.037625,0.018375,0.10375,-0.0009765,-0.0203095,0.050277747,1738726520.197591
-0.0435,0.03225,0.13825,0.000412,-0.02433775,0.04739375,1738726520.2121532
-0.042,0.04975,0.182125,0.0003205,-0.021484248,0.043945253,1738726520.2266948
-0.036125,0.048375,0.180125,0.0015105,-0.01142875,0.03572075,1738726520.241125
-0.022625,0.038875,0.1535,0.00099175,-0.0075225,0.03205875,1738726520.25564
-0.016125,0.03,0.1395,-0.00119025,-0.0052337497,0.0283965,1738726520.270236
-0.008875,0.01025,0.126375,-0.0052947504,-0.004074,0.02227775,1738726520.285454
0.000625,-0.03125,0.11175,-0.00494375,-0.00469975,0.0227355,1738726520.299208
0.000375,-0.0355,0.12125,-7.625e-05,-0.006302,0.029144252,1738726520.316555
-0.001625,-0.020125,0.14575,0.0032655,-0.0052947504,0.03208925,1738726520.3282418
-0.00025,-0.012875,0.15,0.008499251,-3.0500001e-05,0.03364575,1738726520.342922
0.00325,-0.014,0.127625,0.0093385,0.002884,0.032897998,1738726520.357147
0.004375,-0.014625,0.107625,0.0057372497,0.0045625,0.031128,1738726520.3716
0.004875,-0.008625,0.076,0.0021819999,0.0029145,0.030365,1738726520.386007
0.002875,-0.000125,0.068125,-0.00090025004,0.0,0.0298615,1738726520.400408
-0.00125,0.014875,0.0725,-0.0041810004,-0.0078735,0.0290375,1738726520.416254
-0.014125,0.054,0.1025,-0.0049742498,-0.010162249,0.027709998,1738726520.429507
-0.023,0.07975,0.11375,-0.0013580001,-0.009597749,0.023224002,1738726520.4452748
-0.0465,0.17375,0.140375,0.006302,-0.0068665,0.019867001,1738726520.4584289
-0.06675,0.248375,0.152875,0.0282135,0.0026245,0.00289925,1738726520.47522
-0.13525,0.40575,0.209,0.03359975,0.00883475,-0.019165002,1738726520.4872582
-0.179125,0.408,0.2365,0.02886975,0.017303498,-0.05340575,1738726520.5016232
-0.220875,0.337125,0.259875,0.00903325,0.03904725,-0.1266175,1738726520.516356
-0.270125,0.062375,0.24675,0.0038605002,0.051757753,-0.14904775,1738726520.5306199
-0.2625,-0.0895,0.18825,-0.0017852499,0.0714875,-0.15718076,1738726520.54529
-0.134875,-0.3765,0.009125,-0.0019685,0.072586,-0.14550775,1738726520.559817
-0.020375,-0.491875,-0.09575,0.0084379995,0.05024725,-0.08535775,1738726520.575281
0.1025,-0.468875,-0.159375,0.02064525,0.02278125,-0.036728002,1738726520.5890088
0.08025,-0.361375,-0.031875,0.029571502,-0.02763375,0.02674875,1738726520.6052768
0.026625,-0.174125,0.159125,0.01586925,-0.029571502,0.0306245,1738726520.6179168
0.027375,-0.148875,0.1355,-0.00358575,-0.0206145,0.02374275,1738726520.635435
0.034625,-0.1645,0.079875,-0.024353001,-0.0076295,0.013214,1738726520.647027
0.02675,-0.187,0.0185,-0.022033751,-0.010391249,0.01979075,1738726520.661495
0.007,-0.15425,0.028625,-0.011123749,-0.02433775,0.04338075,1738726520.67603
-0.0385,-0.057625,0.088625,-0.00715625,-0.030151252,0.05131525,1738726520.690582
-0.053,-0.02475,0.123625,-0.00364675,-0.034378,0.054718,1738726520.705594
-0.0605,0.00975,0.17675,-0.0039825,-0.032364,0.053009,1738726520.719724
-0.055375,0.02075,0.177375,-0.010238751,-0.023071252,0.045715246,1738726520.735754
-0.03675,0.017125,0.145875,-0.01368725,-0.01937875,0.041153,1738726520.748727
-0.027875,0.003875,0.131125,-0.014800999,-0.01731875,0.03778075,1738726520.7664251
-0.0225,-0.00925,0.124125,-0.0086975,-0.0160675,0.037155252,1738726520.777791
-0.01675,-0.0295,0.118875,-0.0043639997,-0.0154725,0.03913875,1738726520.7926211
-0.016125,-0.0225,0.12125,3.0500001e-05,-0.01501475,0.044113252,1738726520.806995
-0.01425,0.008875,0.137375,4.575e-05,-0.0142365,0.04438775,1738726520.8213718
-0.011125,0.017625,0.133375,-0.0028687501,-0.0104065,0.03866575,1738726520.835971
-0.005875,0.012875,0.104875,-0.0047302498,-0.00935375,0.034256,1738726520.8504782
-0.006125,0.0105,0.093875,-0.0061339997,-0.009643501,0.0302735,1738726520.866379
-0.0085,0.014875,0.092875,-0.0037995,-0.0129700005,0.0253295,1738726520.879503
-0.01425,0.01525,0.10125,0.000183,-0.01419075,0.02348325,1738726520.895185
-0.017,0.0145,0.103625,0.0062865,-0.015747,0.020324752,1738726520.908333
-0.026,0.036125,0.132375,0.0063934997,-0.016021749,0.018097,1738726520.925235
-0.030875,0.047,0.146125,0.00328075,-0.011795,0.01150525,1738726520.937191
-0.05025,0.104,0.173625,0.00279225,-0.008255,0.0080872495,1738726520.951634
-0.068125,0.160125,0.212875,0.009658749,0.0054780003,-0.0033722501,1738726520.966466
-0.117875,0.297375,0.269375,0.012756251,0.018432502,-0.0172425,1738726520.9806452
-0.149125,0.338625,0.267125,0.013626001,0.03364575,-0.0392915,1738726520.9952588
-0.185125,0.327375,0.248125,0.00712575,0.061996497,-0.098739505,1738726521.009668
-0.242875,0.14175,0.17725,0.0032655,0.071457,-0.124115,1738726521.025491
-0.245875,0.019125,0.1225,0.0007325,0.0790405,-0.14535525,1738726521.038572
-0.1555,-0.2315,-0.03225,0.00289925,0.073699996,-0.1416015,1738726521.0554261
-0.072375,-0.3655,-0.05,0.001068,0.045287997,-0.105697505,1738726521.0678232
0.059875,-0.468875,-0.065,0.0024872501,0.03117375,-0.071579,1738726521.0851252
0.072875,-0.398,-0.04075,0.0084379995,0.01525875,-0.035202,1738726521.096971
0.0425,-0.261875,0.07875,0.00723275,-0.011306751,0.00621025,1738726521.1113641
0.034875,-0.255875,0.09225,-0.0038757501,-0.01402275,0.0105742505,1738726521.125996
0.035125,-0.271625,0.077375,-0.02388,-0.01396175,0.01725775,1738726521.140501
0.02,-0.268125,0.036875,-0.026657,-0.01667775,0.02769475,1738726521.155575
-0.00225,-0.225,0.0375,-0.02186575,-0.027740499,0.056244,1738726521.169593
-0.049875,-0.137375,0.075375,-0.017929,-0.032714747,0.06796275,1738726521.185667
-0.06975,-0.095375,0.094125,-0.01301575,-0.0372925,0.08461,1738726521.198782
-0.092,-0.00075,0.1185,-0.01257325,-0.03762825,0.08781425,1738726521.216733
-0.094375,0.036625,0.130125,-0.01358025,-0.03686525,0.08718875,1738726521.227978
-0.087,0.1,0.1495,-0.017120251,-0.0319825,0.077865504,1738726521.245284
-0.078625,0.1175,0.156875,-0.017929,-0.0282745,0.069336,1738726521.257025
-0.068875,0.121375,0.163125,-0.013717749,-0.019806,0.0491485,1738726521.2714748
-0.051,0.10075,0.17425,-0.00811775,-0.01510625,0.04072575,1738726521.285964
-0.0435,0.08875,0.168125,0.0017395001,-0.0054475004,0.028854249,1738726521.300381
-0.030625,0.069,0.148,0.00331125,-0.0024414998,0.0240325,1738726521.316562
-0.026,0.06225,0.14375,0.0014495,0.001007,0.0147705,1738726521.329143
-0.018625,0.04875,0.1315,0.0004425,0.00254825,0.01026925,1738726521.345373
-0.015125,0.038,0.12475,0.0,0.0036315,0.006363,1738726521.357784
-0.011625,0.02525,0.1195,4.575e-05,0.0039825,0.0017395001,1738726521.375272
-0.00575,-0.003625,0.111625,0.00039675,0.0037385002,0.00131225,1738726521.3866072
-0.003,-0.01425,0.10475,0.0021819999,0.00283825,0.0040587503,1738726521.4010181
-0.00175,-0.008375,0.097625,0.0034637498,0.00190725,0.00637825,1738726521.416455
-0.003375,0.00625,0.09725,0.0048065,0.00010675,0.0091705,1738726521.429718
-0.013875,0.04875,0.11175,0.005783,-0.00054925,0.009155249,1738726521.445639
-0.024875,0.08175,0.128625,0.00975025,-4.575e-05,0.00846875,1738726521.458614
-0.041375,0.128625,0.1535,0.027069,0.007019,0.0031585,1738726521.475459
-0.09725,0.253125,0.21975,0.0355225,0.014846751,-0.0049895,1738726521.48738
-0.13825,0.331625,0.248875,0.0362855,0.04104625,-0.043090753,1738726521.50274
-0.234,0.391875,0.24125,0.02731325,0.05708325,-0.07684325,1738726521.516594
-0.283625,0.2975,0.1965,0.0060272496,0.0802765,-0.151825,1738726521.530786
-0.32,-0.081875,0.070125,-0.0016785001,0.083114505,-0.176178,1738726521.545428
-0.267375,-0.29425,0.016375,-0.0033264998,0.07914725,-0.1844025,1738726521.5600572
-0.138,-0.470125,-0.032625,-0.0005035,0.063095,-0.1418915,1738726521.5754828
0.119625,-0.5,-0.275125,0.005783,0.049423248,-0.075317495,1738726521.589378
0.114375,-0.4365,-0.2455,0.036376998,-0.0289155,0.042831503,1738726521.605603
0.012375,-0.215625,0.17025,0.025406,-0.05416875,0.05207825,1738726521.6183639
0.00125,-0.161625,0.21375,-0.029144252,-0.030578502,0.0273285,1738726521.6356218
0.01825,-0.152,0.074,-0.04356375,-0.01667775,0.021087749,1738726521.6475022
0.0175,-0.139125,0.01975,-0.035049498,-0.01794425,0.03244025,1738726521.662007
-0.020625,-0.089375,0.036875,-0.023758,-0.027252251,0.04281625,1738726521.676585
-0.0475,-0.0465,0.087125,-0.01510625,-0.035659753,0.05233775,1738726521.691203
-0.06675,-0.0045,0.137875,-0.007309,-0.03964225,0.059265252,1738726521.705813
-0.0695,0.04,0.193875,-0.0065917503,-0.035492,0.056549,1738726521.720298
-0.05925,0.046875,0.186875,-0.011612001,-0.02268975,0.045730498,1738726521.735649
-0.036125,0.04625,0.144375,-0.015274,-0.01852425,0.0395965,1738726521.749276
-0.02575,0.03475,0.131625,-0.014068499,-0.0152435,0.030075,1738726521.766668
-0.011125,-0.001125,0.1155,-0.0085755,-0.014038,0.028564502,1738726521.778209
-0.008125,-0.01475,0.112375,0.0021515,-0.013992251,0.03096,1738726521.792922
-0.008,-0.023375,0.12975,0.0043335,-0.014648501,0.0325775,1738726521.807204
-0.009125,-0.016625,0.138375,0.00396725,-0.014389,0.03341675,1738726521.821652
-0.0095,-0.01275,0.139375,-0.0007935,-0.0112915,0.030716,1738726521.8362648
-0.009625,-0.017,0.12275,-0.0037995,-0.00985725,0.028167749,1738726521.850823
-0.011625,-0.017375,0.114875,-0.00646975,-0.009674,0.0248565,1738726521.866685
-0.017125,-0.02025,0.1095,-0.004486,-0.0099639995,0.02456675,1738726521.880018
-0.020625,-0.01925,0.111125,-7.625e-05,-0.010238751,0.026000999,1738726521.8955169
-0.025375,-0.00875,0.12075,0.0002135,-0.009903,0.026657,1738726521.908999
-0.025875,0.002375,0.121375,-0.0002595,-0.0088195,0.02702325,1738726521.925497
-0.028,0.023125,0.121875,-0.00045775,-0.006012,0.025970502,1738726521.9379861
-0.037625,0.079875,0.13475,0.00065625,-0.0045777503,0.023178,1738726521.955476
-0.044625,0.111625,0.14725,0.00672925,0.000946,0.011734,1738726521.9674711
-0.072375,0.1755,0.201,0.0138245,0.0061645,0.0033570002,1738726521.98115
-0.097,0.21125,0.24525,0.02398675,0.02510075,-0.0213165,1738726521.995528
-0.170375,0.297875,0.33675,0.021179251,0.0414275,-0.040710498,1738726522.010035
-0.214125,0.311375,0.320375,0.01753225,0.084823504,-0.091858,1738726522.025416
-0.287625,0.2045,0.152875,0.0157165,0.100463755,-0.1180115,1738726522.0389068
-0.293875,0.071625,0.0655,0.00833125,0.106277496,-0.1411285,1738726522.055285
-0.273375,-0.070375,0.00275,-0.0048217503,0.09196475,-0.16081226,1738726522.067957
-0.124625,-0.40925,-0.016875,-0.004303,0.0785675,-0.155182,1738726522.085483
-0.0055,-0.5,-0.068375,0.00381475,0.059372,-0.084015,1738726522.097182
0.129625,-0.458,-0.2855,0.01177975,0.038849,-0.0291595,1738726522.111697
0.1015,-0.3455,-0.180125,0.017135499,-0.034225497,0.02967825,1738726522.126195
0.026,-0.165125,0.111625,0.00444025,-0.04660025,0.030655,1738726522.140584
0.021125,-0.14275,0.124,-0.012130749,-0.040512,0.0229035,1738726522.155458
0.027875,-0.15725,0.086625,-0.03762825,-0.02333075,0.013916001,1738726522.1696692
0.020625,-0.179125,0.019,-0.0395965,-0.02449025,0.02023325,1738726522.185814
0.0005,-0.1615,0.032125,-0.03067025,-0.038772497,0.04391475,1738726522.198668
-0.04825,-0.077375,0.08325,-0.02560425,-0.04429625,0.05467225,1738726522.216576
-0.065125,-0.0295,0.115,-0.01326,-0.0486755,0.06469725,1738726522.227859
-0.07125,0.033,0.16475,-0.0088805,-0.046768248,0.063034,1738726522.245302
-0.065125,0.039,0.17075,-0.009292499,-0.038849,0.052001998,1738726522.2568982
-0.04925,0.023375,0.162,-0.011825499,-0.034378,0.0464325,1738726522.271374
-0.041125,0.007625,0.146875,-0.014068499,-0.029953,0.042251498,1738726522.28587
-0.035625,0.002375,0.135625,-0.009781,-0.02500925,0.04025275,1738726522.300334
-0.028875,0.011,0.14125,-0.0033722501,-0.02357475,0.040268,1738726522.316559
-0.025625,0.013,0.144375,0.0069885002,-0.01867675,0.037414502,1738726522.329254
-0.022125,0.011375,0.140875,0.00785825,-0.016739,0.03439325,1738726522.3454468
-0.02175,0.006875,0.13825,0.0025787498,-0.01445,0.0264435,1738726522.358389
-0.023,-0.00775,0.131625,-0.0011445,-0.013503999,0.023193251,1738726522.373279
-0.02475,-0.014125,0.128875,-0.0076905,-0.01092525,0.020813,1738726522.3875468
-0.028375,-0.01975,0.109625,-0.00842275,-0.0099639995,0.02149975,1738726522.405637
-0.0315,-0.00775,0.114375,-0.0071409997,-0.0101775,0.02297975,1738726522.416724
-0.035125,0.010125,0.127625,-0.0016632499,-0.00930775,0.02388,1738726522.431252
-0.0405,0.045375,0.1445,0.00016775,-0.0069580004,0.021942249,1738726522.4456809
-0.041625,0.057125,0.14725,-0.000763,-0.0003815,0.013290499,1738726522.4601479
-0.047625,0.0765,0.154875,-0.0013427499,0.0034790002,0.00782775,1738726522.475335
-0.055,0.09625,0.17525,0.0033875,0.01322925,-0.0025940002,1738726522.488964
-0.0815,0.169,0.213875,0.009903,0.0216675,-0.008850001,1738726522.50548
-0.099625,0.200625,0.2125,0.02015675,0.0328675,-0.01782225,1738726522.517889
-0.11725,0.2055,0.1915,0.036758497,0.0559235,-0.04644775,1738726522.535286
-0.14875,0.167125,0.156375,0.0341035,0.06279,-0.0632325,1738726522.546865
-0.16025,0.133375,0.153125,0.02139275,0.07229625,-0.095687754,1738726522.5613499
-0.16275,0.0075,0.099375,0.013198749,0.0758515,-0.10916125,1738726522.5757701
-0.1485,-0.073,0.054875,-0.0023345,0.070098996,-0.123825,1738726522.5903392
-0.067875,-0.294,0.00275,-0.01036075,0.060180753,-0.12298575,1738726522.6054962
-0.010125,-0.4145,-0.019625,-0.016632,0.037735,-0.08737175,1738726522.619651
0.08425,-0.466875,-0.0815,-0.0072785,0.0254365,-0.0494995,1738726522.6357
0.084125,-0.350625,-0.074125,0.0050812503,0.009887749,-0.008850001,1738726522.6487439
0.059875,-0.224,-0.007,0.0075835,-0.02177425,0.0298005,1738726522.666665
0.018375,-0.11125,0.120125,-0.00308225,-0.025466999,0.02772525,1738726522.677877
0.014625,-0.108625,0.12175,-0.01849375,-0.01693725,0.0170745,1738726522.6953092
0.0145,-0.130875,0.06775,-0.01867675,-0.015167249,0.016845752,1738726522.7068522
0.008375,-0.133,0.053125,-0.01452625,-0.023285,0.0283355,1738726522.7212958
-0.016875,-0.10975,0.083625,-0.011764499,-0.029068,0.03663625,1738726522.735966
-0.029625,-0.089875,0.108125,-0.0052947504,-0.03373725,0.051071253,1738726522.750556
-0.0445,-0.034625,0.1395,-0.0025940002,-0.03300475,0.05514525,1738726522.766541
-0.043625,-0.01125,0.148,-0.000946,-0.0310975,0.056366,1738726522.779762
-0.04025,0.007,0.151,0.00077825,-0.02534475,0.05201725,1738726522.795407
-0.03175,0.02725,0.144375,0.00061025,-0.02272025,0.04695125,1738726522.8086588
-0.025875,0.019,0.139125,-0.00440975,-0.0192565,0.034195,1738726522.825556
-0.0175,-0.00575,0.12525,-0.0068665,-0.01852425,0.029831,1738726522.8378801
-0.016625,-0.014125,0.130625,-0.0070952503,-0.017624,0.02619925,1738726522.855563
-0.017375,-0.025375,0.139625,-0.0047455,-0.01593025,0.02607725,1738726522.867071
-0.018,-0.0255,0.14025,0.00042725,-0.012130749,0.027237,1738726522.881658
-0.01925,-0.019,0.146625,0.00143425,-0.01004025,0.0275115,1738726522.896152
-0.019625,-0.016625,0.146,0.001953,-0.007553,0.02731325,1738726522.910662
-0.0195,-0.015,0.14075,0.0021819999,-0.0028074998,0.025695749,1738726522.9256089
-0.017375,-0.00825,0.126125,0.0013885,-0.001236,0.02459725,1738726522.9396648
-0.01675,-0.0025,0.119625,6.1000002e-05,0.00029,0.022461,1738726522.955756
-0.01925,0.02,0.115625,-0.000122000005,0.00083925005,0.021362249,1738726522.96845
-0.02425,0.040625,0.121125,0.00352475,0.0028535,0.019622749,1738726522.9853141
-0.044875,0.1215,0.1725,0.012405501,0.005539,0.01882925,1738726522.9970639
-0.061,0.179875,0.20175,0.0266875,0.0112915,0.016159,1738726523.011549
-0.0775,0.228,0.211875,0.043472253,0.03022775,-0.0076295,1738726523.02606
-0.118875,0.259,0.211375,0.0353545,0.039215,-0.030075,1738726523.0406349
-0.14375,0.2335,0.2145,0.0085602505,0.056274503,-0.083877504,1738726523.0556438
-0.185125,0.066625,0.168125,-0.00340275,0.06573475,-0.108429,1738726523.069653
-0.184125,-0.049875,0.12825,-0.0158385,0.075943,-0.13394175,1738726523.08558
-0.129375,-0.246125,0.074125,-0.01637275,0.07554625,-0.13146976,1738726523.09905
-0.078,-0.332,0.021875,-0.010818499,0.067093,-0.1022185,1738726523.116384
0.064875,-0.4645,-0.121125,-0.0064850003,0.054183997,-0.074081495,1738726523.128244
0.1015,-0.423625,-0.15825,-0.0013275,0.034256,-0.0382385,1738726523.1451771
0.095875,-0.32775,-0.133,0.0077972496,-0.016845752,0.0182495,1738726523.157665
0.039875,-0.15375,0.04,0.00839225,-0.03524775,0.027847249,1738726523.1747541
0.023625,-0.113875,0.10175,-0.0128785,-0.036239497,0.02127075,1738726523.1866062
0.014875,-0.117375,0.09375,-0.02622975,-0.02796925,0.0154115,1738726523.201165
0.0095,-0.1345,0.068875,-0.032180753,-0.02510075,0.019622749,1738726523.216479
-0.010625,-0.13025,0.059,-0.028183,-0.03019725,0.028442498,1738726523.230249
-0.02575,-0.10925,0.070875,-0.01956175,-0.039794996,0.046981752,1738726523.245332
-0.05125,-0.047375,0.11825,-0.014358499,-0.042465247,0.05372625,1738726523.259472
-0.05675,-0.019625,0.143125,-0.009430001,-0.042923,0.057235748,1738726523.275518
-0.056375,-0.002,0.15675,-0.0045165,-0.037674,0.054901,1738726523.288627
-0.046375,0.00425,0.153125,-0.0047607496,-0.03395075,0.051498502,1738726523.305284
-0.041625,0.0035,0.147125,-0.007187,-0.02822875,0.04451,1738726523.3176079
-0.034375,0.0015,0.1345,-0.0076905,-0.02630625,0.040985,1738726523.3355148
-0.031625,-0.009625,0.130875,-0.008484,-0.024002,0.034729,1738726523.3467178
-0.0285,-0.038375,0.13175,-0.0089569995,-0.0229035,0.03367625,1738726523.36129
-0.029125,-0.038375,0.13825,-0.0062255003,-0.01997375,0.03622425,1738726523.376052
-0.03075,-0.016,0.149875,-0.0031889998,-0.017547501,0.037613,1738726523.3905358
-0.03075,-0.005875,0.1455,-0.0013275,-0.014358499,0.037613,1738726523.405463
-0.029125,-0.0015,0.13525,-0.0023345,-0.00903325,0.033325247,1738726523.4198332
-0.02625,-0.000875,0.11525,-0.00364675,-0.00788875,0.030304002,1738726523.435744
-0.026,-0.0005,0.11075,-0.0052947504,-0.00764475,0.02522275,1738726523.449009
-0.028125,0.011875,0.115875,-0.0056,-0.00770575,0.02333075,1738726523.466253
-0.030625,0.02375,0.122625,-0.00611875,-0.0061950004,0.018341,1738726523.4780521
-0.041625,0.05175,0.144,-0.0069885002,-0.00428775,0.0148925,1738726523.495313
-0.054,0.075875,0.171375,-0.0051880004,0.0038757501,0.00708,1738726523.5072541
-0.09575,0.18075,0.251375,0.00054925,0.012557999,0.0025025,1738726523.521693
-0.1235,0.262375,0.271375,0.01083375,0.02565,-0.00444025,1738726523.536143
-0.15625,0.328375,0.2615,0.028747499,0.05947875,-0.04270925,1738726523.5505211
-0.23075,0.3265,0.196,0.024108998,0.073028505,-0.07478325,1738726523.566279
-0.264,0.2455,0.158,-0.003952,0.085678004,-0.140274,1738726523.579623
-0.277625,-0.03725,0.086875,-0.01649475,0.08544925,-0.16206351,1738726523.59527
-0.245125,-0.183125,0.0765,-0.016967751,0.075821,-0.16389474,1738726523.608893
-0.09525,-0.4325,0.01925,-0.00991825,0.0717315,-0.1463775,1738726523.62534
0.010375,-0.5,-0.07,0.00292975,0.055252,-0.07409675,1738726523.63803
0.108625,-0.427125,-0.2005,0.01705925,0.030883752,-0.02262875,1738726523.655382
0.083375,-0.3195,-0.103375,0.02804575,-0.0026092501,0.015518251,1738726523.667275
0.046,-0.246375,0.043375,0.00997925,-0.03825375,0.03338625,1738726523.681739
0.013375,-0.17675,0.141875,-0.0074615004,-0.032196,0.03173825,1738726523.6962402
0.01525,-0.169,0.108125,-0.027282748,-0.01570125,0.03302,1738726523.710759
0.004625,-0.141625,0.039875,-0.029251,-0.01531975,0.0394745,1738726523.725676
-0.010375,-0.09575,0.035375,-0.019744748,-0.025421249,0.0561065,1738726523.739852
-0.03825,-0.017125,0.057375,-0.01036075,-0.031158501,0.060241748,1738726523.7554
-0.048,-0.002625,0.084375,0.004486,-0.040283248,0.0611725,1738726523.7692
-0.060875,0.02175,0.152625,0.0070342496,-0.041824248,0.060089,1738726523.785507
-0.059875,0.036125,0.1805,0.0067597497,-0.040512,0.05752575,1738726523.798301
-0.053375,0.044625,0.19025,-0.00039675,-0.030151252,0.04660025,1738726523.816333
-0.036,0.042625,0.17025,-0.004776,-0.024780251,0.0398255,1738726523.827341
-0.029375,0.032875,0.158625,-0.00880425,-0.0177765,0.0276185,1738726523.841872
-0.018625,-0.007125,0.136,-0.00953675,-0.0157165,0.02336125,1738726523.8564422
-0.015875,-0.023125,0.134625,-0.00741575,-0.014053251,0.02253725,1738726523.871134
-0.0155,-0.021875,0.146125,-0.005005,-0.01301575,0.02421575,1738726523.885731
-0.015,-0.020125,0.14825,-0.0024414998,-0.00868225,0.025268499,1738726523.900343
-0.00925,-0.04425,0.114875,-0.003296,-0.0067902496,0.02503975,1738726523.916404
-0.005875,-0.06725,0.09175,-0.0049590003,-0.00671375,0.0256195,1738726523.929612
-0.0085,-0.078,0.08075,-0.006363,-0.012176501,0.032943748,1738726523.94533
-0.013125,-0.058125,0.095375,-0.005066,-0.0157165,0.0384675,1738726523.958862
-0.0175,-0.0355,0.112875,-0.0034790002,-0.018219,0.044693,1738726523.975467
-0.0215,-0.006375,0.130875,-0.0038757501,-0.0169525,0.045043997,1738726523.988232
-0.02425,0.009375,0.1325,-0.0072632497,-0.01260375,0.04393,1738726524.005497
-0.042,0.06475,0.13675,-0.0102235,-0.01036075,0.04270925,1738726524.017289
-0.058875,0.107,0.146,-0.010788,-0.00428775,0.03901675,1738726524.032063
-0.11,0.288375,0.19875,-0.00367725,0.000473,0.035553,1738726524.04621
-0.136875,0.418375,0.228625,0.009674,0.008361749,0.02503975,1738726524.060707
-0.213875,0.5,0.221125,0.034958,0.035873502,-0.0405885,1738726524.075297
-0.2865,0.48975,0.21875,0.031723,0.04818725,-0.09490975,1738726524.089566
-0.37875,0.3705,0.211,-0.0015565,0.06773375,-0.20072925,1738726524.1051211
-0.5,-0.089125,0.143625,-0.016159,0.075225756,-0.23252875,1738726524.1187341
-0.463875,-0.339,0.108125,-0.018158002,0.078643754,-0.22996525,1738726524.135301
-0.14625,-0.5,0.000875,-0.00833125,0.07662975,-0.18988025,1738726524.1479301
0.02825,-0.5,-0.149875,0.028534,0.051437248,-0.03598025,1738726524.162544
0.06625,-0.317,-0.13375,0.049682498,0.00817875,0.032852247,1738726524.17693
0.014,-0.202,0.1135,0.04862975,-0.03395075,0.055435248,1738726524.191369
-0.01275,-0.148,0.27275,-0.01576225,-0.029144252,0.022705,1738726524.2059488
0.01075,-0.1515,0.151875,-0.038849,-0.004242,0.010666001,1738726524.2206101
0.027375,-0.144875,0.031625,-0.0325775,0.009842,0.0196075,1738726524.2356548
0.01825,-0.0745,-0.037125,-0.01953125,-0.0019225,0.030639749,1738726524.249768
-0.002875,-0.0365,0.012125,-0.004837,-0.02790825,0.046875,1738726524.266102
-0.035125,0.02925,0.129875,-0.001831,-0.032943748,0.0503235,1738726524.278869
-0.03675,0.04925,0.1625,-0.00115975,-0.0282135,0.045944247,1738726524.295309
-0.023375,0.0425,0.164875,-0.0037995,-0.02301025,0.04040525,1738726524.3078551
-0.014625,0.0165,0.144625,-0.007553,-0.01841725,0.035049498,1738726524.3252711
-0.007,-0.022125,0.116125,-0.01260375,-0.0153807495,0.0316315,1738726524.336931
-0.002,-0.092375,0.084375,-0.011321999,-0.0177155,0.035949748,1738726524.3516228
-0.008625,-0.097125,0.08925,0.00068675,-0.02424625,0.052902248,1738726524.3664699
-0.02625,-0.02975,0.146875,0.007431,-0.025833251,0.059723,1738726524.380631
-0.027375,0.00225,0.173625,0.0116425,-0.0200805,0.057251,1738726524.395391
-0.02025,0.007875,0.161375,0.0081025,-0.01431275,0.051071253,1738726524.409458
-0.01875,-0.004125,0.138125,-0.00283825,-0.0077515002,0.042328,1738726524.425432
-0.021125,-0.026,0.09925,-0.00767525,-0.0072632497,0.04100025,1738726524.438646
-0.023875,-0.025625,0.086625,-0.010788,-0.0081635,0.041061502,1738726524.4561548
-0.026875,-0.020375,0.089625,-0.00953675,-0.012680001,0.042648252,1738726524.467829
-0.02925,0.007,0.12425,-0.007019,-0.013503999,0.0435485,1738726524.4856262
-0.029375,0.022625,0.139625,-0.0026092501,-0.010009751,0.0415955,1738726524.4968262
-0.025625,0.024375,0.13625,-0.0021972498,-0.0068055,0.03842175,1738726524.511292
-0.023875,0.021625,0.129625,-0.0050812503,-0.00216675,0.03329475,1738726524.525833
-0.025375,0.04125,0.124875,-0.006607,-0.000534,0.032256998,1738726524.540311
-0.0265,0.062125,0.12275,-0.005005,0.0037537501,0.0291595,1738726524.555476
-0.028625,0.1205,0.10475,-0.0034942501,0.0056,0.025848499,1738726524.5692632
-0.03525,0.166375,0.09575,-0.0028535,0.0062865,0.0204315,1738726524.585547
-0.0515,0.244875,0.091625,-0.000122000005,0.0054475004,-0.00267025,1738726524.5982258
-0.12275,0.42425,0.12625,0.0067445002,0.0050965,-0.02737425,1738726524.6135218
-0.185125,0.469375,0.154125,0.0215455,0.011184749,-0.1062165,1738726524.627139
-0.339875,0.296875,0.23025,0.01811225,0.017212,-0.1530915,1738726524.6416168
-0.401375,0.11725,0.264125,-0.0055847503,0.035949748,-0.21272275,1738726524.656158
-0.4085,-0.257375,0.3055,-0.0109709995,0.047668498,-0.215149,1738726524.6708329
-0.34025,-0.399875,0.269625,-0.0076142503,0.062561,-0.198639,1738726524.685626
-0.207375,-0.486375,0.13075,0.004242,0.088791,-0.12634274,1738726524.699991
0.075,-0.489625,-0.257125,0.0041044997,0.075683504,-0.0733185,1738726524.7162938
0.09325,-0.39275,-0.196125,0.0143737495,-0.01554875,0.02023325,1738726524.729011
0.020375,-0.1635,0.2495,0.008514499,-0.038498,0.032714747,1738726524.745297
0.0105,-0.11375,0.262625,-0.023071252,-0.00817875,0.021347,1738726524.7580311
0.035125,-0.166,0.09325,-0.029144252,0.00469975,0.017608749,1738726524.775298
0.036625,-0.183875,0.060625,-0.021881001,0.0048217503,0.03288275,1738726524.787026
0.008375,-0.0825,0.05,-0.013092,0.0020905002,0.0451965,1738726524.801478
-0.004625,0.00775,0.0395,-0.0023345,-0.0003815,0.05349725,1738726524.816575
-0.008375,0.058375,0.033125,0.017578252,-0.009491,0.048660252,1738726524.830393
-0.010375,0.045375,0.0775,0.018035999,-0.016448999,0.043213002,1738726524.8456
-0.014875,0.047875,0.119625,0.00543225,-0.02354425,0.036560003,1738726524.8593888
-0.01825,0.043375,0.156875,0.0025025,-0.021225,0.0326385,1738726524.875475
-0.0165,0.0265,0.147375,0.001114,-0.015029999,0.02719125,1738726524.888405
-0.014875,0.007625,0.135375,-0.00077825,-0.014648501,0.026977502,1738726524.9055328
-0.014375,0.01075,0.145625,-0.00270075,-0.0149995005,0.027282748,1738726524.917529
-0.01,0.007125,0.16825,-0.00238025,-0.01200875,0.025115998,1738726524.935322
-0.006875,-0.003375,0.17025,-6.1000002e-05,-0.00846875,0.02316275,1738726524.946621
-0.004,-0.01475,0.166375,0.0029755002,-0.000885,0.0209655,1738726524.961356
-0.000125,-0.037625,0.14475,0.00242625,0.0020752498,0.02076725,1738726524.9758122
0.000375,-0.045875,0.131875,-0.00029,0.004486,0.02339175,1738726524.990219
0.000375,-0.04225,0.123375,-0.00099175,0.00440975,0.02589425,1738726525.005654
0.0,-0.029375,0.122375,-0.0012207499,0.0045012496,0.030426001,1738726525.0190358
0.000625,0.00475,0.1245,-0.00061025,0.00494375,0.031188998,1738726525.035768
0.00225,0.015625,0.121375,7.625e-05,0.0060882503,0.030746501,1738726525.0475242
0.003625,0.02275,0.1155,0.000824,0.0088805,0.029449498,1738726525.061832
0.003375,0.042875,0.101875,0.00184625,0.0101165,0.029601999,1738726525.0761259
0.00175,0.073625,0.086875,0.0038299998,0.011260999,0.02943425,1738726525.090306
-0.00125,0.2135,0.048125,0.0060882503,0.01042175,0.02545175,1738726525.1054661
-0.006375,0.2825,0.020375,0.01187125,0.00845325,0.01454175,1738726525.118926
-0.021375,0.3125,-0.003375,0.02114875,-0.0024414998,-0.0298615,1738726525.135147
-0.08825,0.257375,0.028,0.017212,-0.011795,-0.0559235,1738726525.1480598
-0.12725,0.208375,0.113,0.00331125,-0.02497875,-0.094925,1738726525.166249
-0.1805,0.102875,0.294625,0.0019225,-0.018692,-0.10600275,1738726525.1771169
-0.193,0.051125,0.315,0.0128632495,0.017929,-0.1162415,1738726525.191508
-0.19475,-0.0625,0.217375,0.017852752,0.03559875,-0.1196595,1738726525.2060192
-0.17325,-0.166625,0.168125,0.011169501,0.047348,-0.122100756,1738726525.220479
-0.0525,-0.4465,0.131125,0.0041504996,0.04606625,-0.10997,1738726525.235876
0.0185,-0.49575,0.059625,-0.00064075,0.044433497,-0.082656756,1738726525.2497091
0.059625,-0.435375,0.0015,-0.002884,0.020218,-0.014419501,1738726525.267036
0.042125,-0.208125,0.108375,-0.00794975,0.00354,0.00453175,1738726525.2787
0.023875,-0.15025,0.163375,-0.02053825,0.0008545,0.0115205,1738726525.295327
0.0195,-0.142875,0.126125,-0.02424625,0.00764475,0.01206975,1738726525.307703
0.02375,-0.15725,0.092625,-0.0257415,0.010849,0.02105725,1738726525.322485
0.02375,-0.2035,0.05,-0.02336125,0.00767525,0.0315095,1738726525.3367438
0.010375,-0.1945,0.045,-0.013702501,-0.0042267498,0.063400246,1738726525.351316
-0.02875,-0.1255,0.06,-0.008773751,-0.01033025,0.078308,1738726525.3665202
-0.0455,-0.086,0.071125,-0.00411975,-0.0155030005,0.089981005,1738726525.380574
-0.05625,-0.056875,0.07825,0.0051880004,-0.02162175,0.101699755,1738726525.395487
-0.078,-0.041625,0.06275,0.008590749,-0.024047751,0.104599,1738726525.4098198
-0.086125,-0.009375,0.07125,0.01419075,-0.032318,0.109603755,1738726525.425633
-0.08175,0.076875,0.134125,0.018310498,-0.03421025,0.105804496,1738726525.438849
-0.07125,0.094875,0.1505,0.016327,-0.02934275,0.086456254,1738726525.455607
-0.054875,0.10975,0.151875,0.0099945,-0.02586375,0.0758515,1738726525.46777
-0.05,0.118125,0.149375,-0.00343325,-0.019333,0.0529785,1738726525.485628
-0.045625,0.09775,0.131125,-0.007843,-0.016632,0.04125975,1738726525.4968162
-0.044875,0.078375,0.130875,-0.0099639995,-0.0151825,0.0315095,1738726525.5112891
-0.044,0.059125,0.13725,-0.009094249,-0.012542751,0.02000425,1738726525.525814
-0.04125,0.041,0.15025,-0.0068665,-0.0099639995,0.01800525,1738726525.5403001
-0.0395,0.04375,0.14875,-0.0032195,-0.0029907501,0.0158385,1738726525.555577
-0.0355,0.055875,0.12575,-0.0031127501,-4.575e-05,0.0138855,1738726525.569313
-0.03375,0.063875,0.112125,-0.0043639997,0.00231925,0.008651749,1738726525.585692
-0.038625,0.108375,0.104625,-0.0043639997,0.0021972498,0.00561525,1738726525.5982678
-0.045875,0.145625,0.10925,-0.0012665,0.00270075,0.00154125,1738726525.616225
-0.056875,0.189375,0.108375,0.01573175,0.0080567505,-0.012847999,1738726525.627177
-0.1065,0.292875,0.1015,0.020584,0.010452249,-0.02687075,1738726525.6416159
-0.14725,0.33475,0.123875,0.023376498,0.01452625,-0.0730895,1738726525.6560981
-0.250375,0.34125,0.174125,0.0273285,0.020904498,-0.102172755,1738726525.670468
-0.30025,0.266375,0.16625,0.0280915,0.037597753,-0.16148375,1738726525.685508
-0.3255,-0.111,0.14825,0.0149995005,0.040969748,-0.18312074,1738726525.69952
-0.24825,-0.36475,0.11875,-0.016861,0.04019175,-0.173462,1738726525.716228
0.03275,-0.5,-0.046625,-0.01927175,0.0331115,-0.12796025,1738726525.7287931
0.094625,-0.5,-0.051125,-0.00354,0.0148772495,-0.059845,1738726525.745238
0.07725,-0.357,0.062,0.024643,-0.02790825,0.04452525,1738726525.757994
0.0235,-0.079625,0.254375,0.0072785,-0.0281525,0.0426025,1738726525.7725172
0.0295,-0.127125,0.2195,-0.038025003,-0.00440975,0.007019,1738726525.786936
0.02975,-0.24075,0.108625,-0.042861998,0.001587,0.009948749,1738726525.801392
0.010125,-0.203375,0.08825,-0.02658075,0.002533,0.04243475,1738726525.8164108
-0.0335,-0.0315,0.087875,-0.01667775,0.00160225,0.054779,1738726525.830525
-0.044,0.035875,0.088875,-0.0100555,0.00070200005,0.058914248,1738726525.8453472
-0.0425,0.08975,0.09975,-0.00263975,-0.0020295,0.04982,1738726525.859466
-0.037125,0.088,0.1075,-0.0004425,-0.0033722501,0.0419465,1738726525.875515
-0.032,0.07775,0.113625,-0.00070200005,-0.0048979996,0.028534,1738726525.8884811
-0.024875,0.058875,0.13225,-0.001419,-0.00505075,0.0243225,1738726525.9054852
-0.0215,0.054875,0.13675,-0.00175475,-0.00239575,0.018631,1738726525.917504
-0.012875,0.04525,0.1355,-0.00157175,-0.00099175,0.01593025,1738726525.935522
-0.0085,0.035875,0.134125,-3.0500001e-05,0.0011445,0.010727,1738726525.946402
-0.002375,0.01,0.134,0.00051875,0.0016175,0.0088195,1738726525.9608152
-0.001125,-0.00425,0.138,0.00057975,0.0018005001,0.0074004997,1738726525.975508
-0.00025,-0.0175,0.139125,-0.0021057501,0.00289925,0.0070495,1738726525.989844
-0.001125,-0.028375,0.141375,-0.0031585,0.0037385002,0.008545,1738726526.0054321
-0.00225,-0.026,0.141875,-0.0015105,0.00672925,0.012619001,1738726526.019008
-0.002,-0.0195,0.1245,-0.001236,0.008316,0.014587499,1738726526.035608
-0.0005,-0.017625,0.118,-0.00225825,0.00883475,0.01820375,1738726526.048021
0.004375,-0.015375,0.106875,-0.0024414998,0.0086975,0.01953125,1738726526.0624452
0.00675,-0.015625,0.102875,-0.0017395001,0.0077667497,0.022354,1738726526.076875
0.010625,-0.026375,0.079125,-0.00099175,0.0072632497,0.024810748,1738726526.0914
0.00975,-0.0255,0.067125,-0.000412,0.00567625,0.028747499,1738726526.1059399
0.00425,-0.013125,0.069,0.00231925,0.000183,0.03910825,1738726526.120142
-0.02125,0.048,0.07625,0.0047912505,-0.00099175,0.04417425,1738726526.135308
-0.039125,0.11275,0.078375,0.01756275,-0.0009765,0.0505675,1738726526.1490839
-0.074125,0.29425,0.073625,0.03050225,0.00024425,0.045898497,1738726526.166372
-0.08975,0.362375,0.0645,0.054183997,-0.00054925,0.0068665,1738726526.17802
-0.11875,0.374375,0.10175,0.05036925,-0.00469975,-0.02598575,1738726526.1952472
-0.138625,0.329375,0.153625,0.034866247,-0.008484,-0.0622405,1738726526.2072508
-0.167125,0.2635,0.203125,0.0047302498,-0.00198375,-0.1286315,1738726526.221767
-0.235875,0.0465,0.22825,-0.00343325,0.0077972496,-0.15519725,1738726526.236317
-0.254125,-0.09375,0.227875,-0.0157165,0.025543248,-0.18096925,1738726526.251023
-0.22025,-0.36325,0.245375,-0.01744075,0.032776,-0.1744995,1738726526.266627
-0.158625,-0.459,0.2405,-0.00517275,0.049774252,-0.1216735,1738726526.280211
-0.000625,-0.4935,0.09075,0.0030669998,0.05513,-0.0798035,1738726526.295267
0.042875,-0.406625,0.025625,0.0200805,0.03530875,-0.00064075,1738726526.3093681
0.044875,-0.22575,0.051625,0.018859752,0.01835625,0.017746,1738726526.325412
0.032625,-0.18475,0.10175,0.009552,0.00564575,0.0248565,1738726526.338069
0.024125,-0.158,0.12825,-0.01187125,0.00238025,0.03105175,1738726526.355447
0.02,-0.137375,0.0855,-0.019226,0.0061339997,0.0345155,1738726526.367409
0.016875,-0.130125,0.056125,-0.023285,0.004837,0.04786675,1738726526.381878
-0.000375,-0.078,0.034875,-0.01956175,0.00030525,0.056686502,1738726526.396472
-0.010875,-0.039,0.034375,-0.008590749,-0.010513251,0.069122255,1738726526.411047
-0.02425,0.01475,0.0455,-0.0046539996,-0.01658625,0.070648246,1738726526.425555
-0.027875,0.024625,0.059625,-0.00070200005,-0.02749625,0.06764225,1738726526.4402392
-0.032125,0.038,0.095,0.000122000005,-0.030838,0.06495675,1738726526.456043
-0.032125,0.036625,0.107375,0.000412,-0.032287497,0.06172175,1738726526.4689898
-0.03325,0.0335,0.114,0.00057975,-0.03221125,0.0561675,1738726526.485844
-0.038,0.045125,0.147875,0.0014495,-0.03170775,0.0538635,1738726526.497817
-0.037625,0.054125,0.16625,0.0007325,-0.025115998,0.047668498,1738726526.51229
-0.0325,0.062125,0.173625,1.5250001e-05,-0.019775499,0.043213002,1738726526.526676
-0.02925,0.056875,0.166625,-0.001648,-0.0095672505,0.03250125,1738726526.54118
-0.025125,0.037,0.139125,-0.0033264998,-0.0059510004,0.028167749,1738726526.555834
-0.025125,0.034375,0.126875,-0.0046845004,-0.003769,0.025115998,1738726526.570187
-0.026,0.035,0.12075,-0.0048217503,-0.00254825,0.020874001,1738726526.585355
-0.027375,0.040625,0.123875,-0.003952,-0.00228875,0.01914975,1738726526.5993001
-0.0285,0.045375,0.12675,-0.0028535,-0.00033575002,0.016235251,1738726526.6163251
-0.03175,0.06475,0.1335,-0.0026854998,0.0014037499,0.01490775,1738726526.628355
-0.0335,0.08125,0.1345,-0.0024872501,0.0070495,0.010452249,1738726526.6451058
-0.038125,0.120625,0.13325,-0.0034942501,0.01036075,0.0068665,1738726526.6572978
-0.044,0.15475,0.1345,0.0011445,0.01849375,-0.0028074998,1738726526.674548
-0.06925,0.25375,0.11275,0.013046251,0.02398675,-0.010803251,1738726526.686147
-0.086375,0.286375,0.083875,0.028594999,0.02920525,-0.0230255,1738726526.700568
-0.10425,0.2935,0.057875,0.041092,0.029663,-0.06185925,1738726526.7161732
-0.14325,0.2555,0.047125,0.03067025,0.024505502,-0.08686825,1738726526.729362
-0.172125,0.20475,0.069875,0.0017852499,0.011078,-0.139923,1738726526.74507
-0.228375,-0.030875,0.151,-0.00631725,0.007019,-0.16101076,1738726526.7585752
-0.218,-0.232125,0.198625,-0.012054499,0.01026925,-0.16619875,1738726526.775122
-0.071125,-0.5,0.183625,-0.0149535,0.017044,-0.139679,1738726526.787893
0.00525,-0.5,0.1205,-0.0110015,0.02177425,-0.09461975,1738726526.805248
0.041375,-0.4485,0.070875,0.020111,0.009719751,0.000534,1738726526.816798
0.01825,-0.186625,0.143625,0.02436825,-0.00187675,0.0229645,1738726526.831171
0.003625,-0.122375,0.196875,-0.0045012496,-0.00511175,0.017974751,1738726526.845685
0.006875,-0.146875,0.181625,-0.0196685,0.0022125002,0.011123749,1738726526.8601978
0.012,-0.17225,0.13175,-0.030151252,0.012375,0.01811225,1738726526.875432
0.002375,-0.131125,0.073125,-0.02731325,0.011123749,0.0298615,1738726526.889014
-0.008875,-0.077625,0.06475,-0.0213165,0.0078735,0.0416565,1738726526.905317
-0.021,0.0025,0.07475,-0.005066,-0.0003815,0.05461125,1738726526.917987
-0.02175,0.02175,0.0895,0.0023039998,-0.004303,0.056015,1738726526.935036
-0.020625,0.031,0.103375,0.00883475,-0.008727999,0.053299,1738726526.9467928
-0.016125,0.043125,0.116,0.0077515002,-0.009216251,0.050644003,1738726526.961285
-0.012625,0.046,0.120125,0.00302125,-0.008941749,0.0426025,1738726526.9758132
-0.005125,0.045,0.119375,0.00080875,-0.008316,0.0381165,1738726526.9902122
-0.002625,0.042375,0.122375,-0.000229,-0.0075225,0.0300445,1738726527.005269
0.001,0.024625,0.12225,-0.00013725001,-0.006836,0.026657,1738726527.019264
0.00175,0.01225,0.123,-0.000763,-0.00643925,0.02418525,1738726527.035563
0.00125,0.003375,0.130375,-0.001526,-0.0056915004,0.0227355,1738726527.048054
-0.0005,-0.00175,0.140375,-0.0011445,-0.00411975,0.023056,1738726527.063699
-0.001375,-0.000375,0.14025,0.000534,0.00030525,0.0237885,1738726527.077389
-0.00225,0.00325,0.123625,0.00080875,0.002411,0.024108998,1738726527.091736
-0.002375,0.0075,0.117125,0.001007,0.00396725,0.025695749,1738726527.106084
-0.002,0.02225,0.114875,0.0023039998,0.00444025,0.026275748,1738726527.120372
-0.00125,0.02525,0.108625,0.00378425,0.00520325,0.026184,1738726527.135349
-0.00125,0.025875,0.104125,0.0059205,0.0055237496,0.026184,1738726527.148999
-0.007875,0.05225,0.107,0.008148249,0.0057677496,0.026977502,1738726527.166154
-0.013875,0.084125,0.10575,0.022705,0.009292499,0.027893,1738726527.1775591
-0.031,0.175625,0.08625,0.03480525,0.0115205,0.02633675,1738726527.194835
-0.044875,0.255,0.092375,0.0489655,0.013290499,0.0085602505,1738726527.20627
-0.099125,0.467,0.109625,0.04312125,0.01419075,-0.01586925,1738726527.2207968
-0.15625,0.5,0.122625,0.027542,0.014038,-0.0558015,1738726527.2354271
-0.23125,0.427625,0.16775,-0.01048275,0.01145925,-0.15812676,1738726527.2500732
-0.345,-0.0015,0.264125,-0.02575675,0.015686,-0.1936645,1738726527.266119
-0.341875,-0.216,0.279625,-0.034073003,0.035049498,-0.2008515,1738726527.279285
-0.12575,-0.5,0.14425,-0.026733499,0.047622748,-0.17504875,1738726527.294938
0.012125,-0.5,-0.021875,0.0073547503,0.03993225,-0.053222753,1738726527.308484
0.068625,-0.351375,-0.039375,0.027893,0.00788875,0.00372325,1738726527.325067
0.031125,-0.235125,0.121625,0.01728825,-0.033370998,0.0312805,1738726527.337373
0.006875,-0.169625,0.2475,-0.00279225,-0.0247955,0.02336125,1738726527.352766
0.018,-0.197125,0.1695,-0.019470248,-0.0080567505,0.017868,1738726527.366559
0.023125,-0.208,0.0835,-0.032226503,0.0040435,0.029327499,1738726527.381105
-0.000375,-0.09825,0.034625,-0.03097525,-0.000824,0.040573,1738726527.395703
-0.015625,-0.026875,0.036625,-0.0109709995,-0.0101165,0.052353002,1738726527.410254
-0.027625,-0.001375,0.07325,0.00045775,-0.014434749,0.05226125,1738726527.4253492
-0.0315,0.00175,0.10125,0.0032195,-0.020599252,0.051422,1738726527.439182
-0.031375,0.0175,0.1385,0.000534,-0.020218,0.04924,1738726527.4553978
-0.026375,0.01275,0.1365,-0.00593575,-0.01564025,0.043975748,1738726527.4680371
-0.0175,0.01525,0.11975,-0.010162249,-0.014557,0.04214475,1738726527.485389
-0.0145,0.015125,0.1205,-0.014510999,-0.014587499,0.039566003,1738726527.497151
-0.011625,0.009125,0.124625,-0.018463248,-0.0144805005,0.034668,1738726527.511659
-0.007375,-0.00525,0.131125,-0.015579251,-0.01374825,0.034134,1738726527.526232
-0.006625,-0.011875,0.134,-0.00643925,-0.01142875,0.03550725,1738726527.5409129
-0.009,-0.018375,0.13975,-0.00378425,-0.0100707505,0.037063498,1738726527.555703
-0.01175,-0.016,0.143,-0.00105275,-0.006546,0.040069498,1738726527.5701408
-0.017375,-0.00775,0.12675,-0.00115975,-0.0046845004,0.040741,1738726527.5856671
-0.020625,-0.00025,0.1155,-0.0044555003,-0.004303,0.04011525,1738726527.5994549
-0.026875,0.028125,0.11375,-0.0057220003,-0.00585925,0.03889475,1738726527.616134
-0.02825,0.0405,0.123625,-0.0060425,-0.00723275,0.036499,1738726527.628459
-0.0285,0.045875,0.13125,-0.006302,-0.00593575,0.02970875,1738726527.6449878
-0.02675,0.045875,0.132875,-0.0063325,-0.0038299998,0.026977502,1738726527.6574452
-0.02675,0.048625,0.1255,-0.0056915004,0.0005035,0.02456675,1738726527.6718569
-0.034375,0.07775,0.11025,-0.0050812503,0.00190725,0.02415475,1738726527.686346
-0.041375,0.111625,0.108375,-0.0020752498,0.004013,0.0207215,1738726527.700764
-0.065,0.248625,0.138625,0.0032195,0.006363,0.01504525,1738726527.7160692
-0.082,0.321125,0.14925,0.0138855,0.01145925,0.0033722501,1738726527.729428
-0.102,0.349375,0.143375,0.03164675,0.02424625,-0.042419497,1738726527.744961
-0.158625,0.2975,0.146125,0.029007,0.027771,-0.069931,1738726527.758455
-0.1915,0.2465,0.1575,0.0166015,0.03607175,-0.118164,1738726527.7751129
-0.230875,0.094375,0.127875,0.012176501,0.04202275,-0.13595575,1738726527.7873092
-0.230625,0.002125,0.102,0.0037385002,0.04524225,-0.155243,1738726527.804798
-0.188,-0.204625,0.110875,0.000824,0.04290775,-0.15605174,1738726527.816489
-0.130875,-0.34475,0.114875,-0.003662,0.04040525,-0.13560475,1738726527.8312268
0.04975,-0.5,0.01375,-0.00355525,0.0372925,-0.10125725,1738726527.845856
0.093875,-0.498375,-0.048625,0.0044707498,0.02708425,-0.04830925,1738726527.8604422
0.086125,-0.39175,-0.035625,0.023834249,-0.0133667495,0.0364685,1738726527.875363
0.0305,-0.179125,0.124375,0.0169525,-0.02610775,0.045578,1738726527.889364
0.02,-0.1595,0.157,-0.018219,-0.021606501,0.034408502,1738726527.9052439
0.014625,-0.17,0.123125,-0.03144825,-0.0158385,0.03335575,1738726527.9184299
0.00725,-0.159375,0.097125,-0.03427125,-0.01150525,0.04667675,1738726527.9350588
-0.020875,-0.110125,0.06375,-0.0282135,-0.0127105,0.056839,1738726527.947531
-0.0385,-0.07725,0.059,-0.012847999,-0.019989,0.07614125,1738726527.962139
-0.068,0.013625,0.089375,-0.0058287503,-0.0247345,0.0818635,1738726527.976647
-0.073375,0.056375,0.11725,-0.00077825,-0.028015248,0.082672,1738726527.991154
-0.071,0.091125,0.14125,-0.000122000005,-0.02680975,0.070221,1738726528.005687
-0.051875,0.129,0.165875,-0.003128,-0.02323925,0.05865475,1738726528.020158
-0.042,0.12875,0.167625,-0.01095575,-0.014053251,0.03291325,1738726528.0357661
-0.0285,0.0955,0.161625,-0.014297499,-0.009719751,0.0220795,1738726528.0492742
-0.0235,0.06475,0.15525,-0.0157165,-0.00216675,0.00962825,1738726528.0662038
-0.015375,0.01525,0.138875,-0.01251225,0.0007935,0.008590749,1738726528.0782971
-0.011875,0.004875,0.1335,-0.00773625,0.0029449998,0.009903,1738726528.095
-0.007125,0.012875,0.13275,0.0019989999,0.0056,0.014663749,1738726528.107483
-0.004625,0.0225,0.131375,0.00511175,0.0069885002,0.0159455,1738726528.121821
-0.002125,0.0315,0.129,0.0060272496,0.0097045,0.015213001,1738726528.136349
0.002125,0.04425,0.127,0.0054780003,0.0110932505,0.0133667495,1738726528.150778
0.004,0.045875,0.117875,0.004303,0.014053251,0.0076599997,1738726528.1661062
0.00775,0.0405,0.07975,0.002655,0.0142365,0.0050965,1738726528.179443
0.00775,0.039875,0.062875,-0.00131225,0.009140001,0.0027160002,1738726528.195076
0.001625,0.07425,0.063,0.0021057501,0.00596625,0.0036010002,1738726528.2081249
-0.006125,0.120375,0.0625,0.0115815,0.004776,0.0054932497,1738726528.2249951
-0.020625,0.187875,0.064,0.04167175,0.00520325,0.0029907501,1738726528.236768
-0.072,0.305125,0.08575,0.048645,0.0054475004,-0.009933501,1738726528.251317
-0.107125,0.337,0.09625,0.023620501,0.0037995,-0.06147775,1738726528.2663949
-0.177125,0.256375,0.16775,0.007965,0.0021972498,-0.093567,1738726528.2804632
-0.198625,0.130625,0.203625,-0.0075377496,0.009658749,-0.14126575,1738726528.295004
-0.1915,-0.1445,0.219375,-0.0063934997,0.01782225,-0.14720151,1738726528.309504
-0.164,-0.241,0.206,-0.000229,0.02699275,-0.140808,1738726528.32526
-0.123875,-0.316875,0.188625,0.019638,0.0432435,-0.104461744,1738726528.3386738
-0.02775,-0.3635,0.124,0.02864075,0.048278753,-0.07876575,1738726528.355236
0.006875,-0.34,0.087125,0.039276,0.041916,-0.03120425,1738726528.3675818
0.039375,-0.294,0.080625,0.0398255,0.03329475,-0.013641249,1738726528.38247
0.0435,-0.2725,0.09,0.02822875,0.0212555,0.0112915,1738726528.3962429
0.041,-0.210375,0.078,0.01631175,0.0182495,0.01876825,1738726528.410635
0.0385,-0.173125,0.061,0.00263975,0.015564,0.02354425,1738726528.4250612
0.037375,-0.136125,0.03975,-0.016540501,0.007965,0.028747499,1738726528.439358
0.037125,-0.11175,0.03125,-0.01968375,0.0016632499,0.030014,1738726528.4555478
0.034125,-0.120375,0.04,-0.0172425,-0.010101249,0.038131747,1738726528.468436
0.020125,-0.134125,0.05325,-0.0125885,-0.01474,0.046157748,1738726528.485387
0.009625,-0.12625,0.055375,-0.0030975002,-0.02265925,0.065384,1738726528.497424
-0.017625,-0.065875,0.062,-7.625e-05,-0.02645875,0.0730895,1738726528.512015
-0.027125,-0.026375,0.069375,-0.0035704998,-0.032486,0.076934755,1738726528.526741
-0.02925,0.0315,0.077875,-0.009216251,-0.0343475,0.0730895,1738726528.541373
-0.026,0.04375,0.084375,-0.01390075,-0.0360565,0.0668945,1738726528.555802
-0.023375,0.04925,0.096125,-0.017654499,-0.03840625,0.05343625,1738726528.570465
-0.02125,0.04,0.12475,-0.016739,-0.03781125,0.04789725,1738726528.585681
-0.02,0.03,0.13175,-0.01380925,-0.0326995,0.04202275,1738726528.5994382
-0.019375,0.02525,0.136125,-0.012375,-0.029601999,0.041320752,1738726528.616151
-0.019,0.028875,0.138875,-0.009231499,-0.02313225,0.0408325,1738726528.628418
-0.0205,0.046875,0.133625,-0.0074004997,-0.019455,0.0401765,1738726528.645003
-0.023625,0.0595,0.127375,-0.00570675,-0.016113251,0.038971,1738726528.657414
-0.035875,0.089125,0.1245,-0.00181575,-0.0114744995,0.034958,1738726528.672711
-0.046,0.11525,0.129875,0.00149525,-0.009231499,0.03297425,1738726528.686323
-0.06225,0.17775,0.152875,0.021514999,-0.001236,0.030853251,1738726528.700906
-0.123,0.4,0.233375,0.0379485,0.0076295,0.022049,1738726528.7159538
-0.161625,0.469625,0.23625,0.05119325,0.03707875,-0.037063498,1738726528.729742
-0.261875,0.419,0.18725,0.040420502,0.048019502,-0.0805205,1738726528.745518
-0.305,0.28825,0.181,0.012619001,0.058349498,-0.156433,1738726528.758583
-0.313875,-0.04125,0.14025,0.00070200005,0.06124875,-0.17530824,1738726528.775241
-0.289,-0.15775,0.143375,-0.00520325,0.0616455,-0.1793365,1738726528.787744
-0.251875,-0.2675,0.15175,0.00225825,0.067749,-0.16351324,1738726528.8046238
-0.058875,-0.5,0.044875,0.0070495,0.074462995,-0.14299001,1738726528.816957
0.054,-0.5,-0.10025,0.013198749,0.059616,-0.045181252,1738726528.831418
0.1045,-0.390375,-0.15375,0.019134501,0.02613825,0.005249,1738726528.845922
0.07125,-0.2905,-0.02275,0.00708,-0.0265045,0.03553775,1738726528.860448
0.029625,-0.209625,0.1155,-0.01104725,-0.028366,0.032547,1738726528.8756108
0.026375,-0.184625,0.107125,-0.03347775,-0.017425502,0.034149252,1738726528.8893938
0.01825,-0.126375,0.059875,-0.034973253,-0.0148315,0.038437,1738726528.905208
0.009375,-0.09875,0.0475,-0.03274525,-0.0160065,0.043716498,1738726528.918373
-0.003375,-0.0695,0.047625,-0.0213165,-0.02528375,0.055191003,1738726528.935137
-0.03125,-0.012125,0.080875,-0.013839751,-0.030334499,0.05950925,1738726528.947569
-0.04075,0.0125,0.104875,-0.0017852499,-0.03559875,0.06144725,1738726528.96221
-0.043125,0.049625,0.142375,0.000183,-0.035293497,0.058776747,1738726528.976817
-0.039,0.06225,0.155375,-0.00381475,-0.030716,0.047821,1738726528.9913542
-0.026375,0.06325,0.16575,-0.00823975,-0.02693175,0.04034425,1738726529.00587
-0.019375,0.04975,0.162625,-0.012496999,-0.022613501,0.0331115,1738726529.0203252
-0.00975,0.022125,0.151625,-0.013992251,-0.014297499,0.024353001,1738726529.035465
-0.007875,0.014125,0.147625,-0.01115425,-0.011016751,0.022934001,1738726529.049325
-0.006125,0.008875,0.144375,-0.004837,-0.0065002497,0.022094749,1738726529.066241
-0.002125,-0.003,0.137,-0.003296,-0.005066,0.021484248,1738726529.078399
-0.000625,-0.009625,0.133375,-0.005066,-0.0038757501,0.0204925,1738726529.095045
0.00125,-0.01575,0.136375,-0.00694275,-0.003418,0.020446751,1738726529.1076329
0.00225,-0.020375,0.134375,-0.008788999,-0.00030525,0.021759002,1738726529.1249762
0.00575,-0.030375,0.112875,-0.008865249,0.0013580001,0.02386475,1738726529.1365619
0.007,-0.030125,0.0995,-0.00862125,0.0021819999,0.026947001,1738726529.151039
0.008,-0.02675,0.087625,-0.006073,0.00125125,0.034317,1738726529.166206
0.004625,-0.000875,0.070125,-0.00355525,-0.00039675,0.03807075,1738726529.180213
-0.00125,0.026,0.06875,0.00016775,-0.0052947504,0.04312125,1738726529.195063
-0.019625,0.10275,0.079625,0.00048825,-0.0075377496,0.04273975,1738726529.2091799
-0.031125,0.14575,0.0895,0.0013427499,-0.008407501,0.033462502,1738726529.225135
-0.06475,0.273125,0.1295,0.0062865,-0.0065612504,0.0259095,1738726529.2384582
-0.091,0.36075,0.145,0.0276185,0.0048674997,-0.00712575,1738726529.2552152
-0.146625,0.38775,0.1105,0.031997748,0.010604749,-0.039245497,1738726529.267539
-0.173375,0.3145,0.11825,0.0265655,0.011260999,-0.074935995,1738726529.282945
-0.19775,0.218625,0.1545,0.0072175004,0.01065075,-0.128128,1738726529.296576
-0.212,-0.0025,0.182875,0.0041810004,0.01664725,-0.140625,1738726529.3111439
-0.19575,-0.09,0.16325,0.012085,0.0305175,-0.137436,1738726529.325618
-0.13725,-0.207875,0.133875,0.01994325,0.0338135,-0.12719725,1738726529.340127
-0.10525,-0.25275,0.1375,0.033462502,0.035339247,-0.099136256,1738726529.3553221
-0.046375,-0.320375,0.152125,0.0332795,0.0361785,-0.08403025,1738726529.369195
-0.01425,-0.371875,0.134625,0.019775499,0.03604125,-0.052353002,1738726529.385416
0.04175,-0.407375,0.0725,0.012542751,0.033264253,-0.030609248,1738726529.397998
0.050125,-0.348625,0.041875,0.0079345,0.028427,-0.0065917503,1738726529.416089
0.048,-0.275,0.035375,0.00520325,0.011306751,0.0273285,1738726529.42688
0.033375,-0.17525,0.057125,0.00096125,0.0042267498,0.033844,1738726529.4412858
0.026625,-0.165,0.061125,-0.011383001,-0.0037537501,0.039627,1738726529.45588
0.007875,-0.145,0.0695,-0.013275251,-0.0070495,0.04597475,1738726529.470311
-0.0025,-0.117375,0.071875,-0.0104674995,-0.01222225,0.061889753,1738726529.485503
-0.019125,-0.054,0.069375,-0.008606,-0.014434749,0.06726075,1738726529.499795
-0.02325,-0.030125,0.06575,-0.0077972496,-0.0168305,0.06973275,1738726529.516138
-0.026875,-0.002,0.076375,-0.0069885002,-0.023040751,0.068847746,1738726529.5290291
-0.027125,0.008,0.088125,-0.0059205,-0.025528,0.067214996,1738726529.544939
-0.026,0.018875,0.093375,-0.0043335,-0.026657,0.062561,1738726529.5582561
-0.025,0.04125,0.108,-0.0047607496,-0.027237,0.059387248,1738726529.575069
-0.024,0.054875,0.121625,-0.0068969997,-0.02613825,0.051468,1738726529.587313
-0.018625,0.072125,0.13575,-0.0074920002,-0.023803748,0.04588325,1738726529.605058
-0.015375,0.067,0.139,-0.006668,-0.018509,0.03424075,1738726529.616576
-0.010375,0.044,0.135875,-0.00593575,-0.015808,0.029892,1738726529.63114
-0.008375,0.0275,0.129,-0.00511175,-0.01142875,0.02560425,1738726529.645656
-0.00525,-0.001875,0.109875,-0.0042725,-0.01019275,0.02633675,1738726529.660204
-0.006,0.000125,0.105375,-0.0021057501,-0.00982675,0.028900249,1738726529.675355
-0.00875,0.014875,0.103875,0.0035095,-0.010376001,0.03424075,1738726529.689213
-0.01675,0.0575,0.10425,0.00466925,-0.01091,0.03479,1738726529.705246
-0.023125,0.082,0.110875,0.004547,-0.011383001,0.031662002,1738726529.7180212
-0.049,0.152375,0.132625,0.0072785,-0.00997925,0.0295105,1738726529.73488
-0.073875,0.224625,0.14975,0.029296748,-0.0012817499,0.022705,1738726529.7470238
-0.14125,0.387875,0.167625,0.03872675,0.0057677496,0.00741575,1738726529.76151
-0.181125,0.429625,0.187625,0.03683475,0.01193225,-0.02023325,1738726529.776145
-0.226125,0.43225,0.229125,0.01440425,0.02459725,-0.0943145,1738726529.790566
-0.318,0.28575,0.230375,0.009613,0.03848275,-0.13031,1738726529.8050072
-0.34825,0.145,0.17175,0.0034637498,0.061996497,-0.18162525,1738726529.819617
-0.334,-0.184375,0.10275,-0.00228875,0.06304925,-0.19256599,1738726529.835179
-0.27525,-0.361875,0.092,-0.010940501,0.056701753,-0.18035875,1738726529.849329
-0.009875,-0.5,0.02225,-0.004776,0.05549625,-0.14956675,1738726529.863646
0.089,-0.5,-0.110125,0.034866247,0.038681,-0.013198749,1738726529.878137
0.064,-0.372375,-0.083875,0.04240425,0.000183,0.04373175,1738726529.895019
0.025375,-0.269125,0.109375,0.032013,-0.036087003,0.06210325,1738726529.9070468
0.007875,-0.212625,0.197875,-0.02301025,-0.03067025,0.040099997,1738726529.9216142
0.00525,-0.2235,0.132,-0.03971875,-0.01579275,0.035400502,1738726529.936137
-0.005,-0.191875,0.081875,-0.0368805,-0.0055847503,0.056686502,1738726529.9508328
-0.036625,-0.064875,0.047375,-0.028,-0.00811775,0.06805425,1738726529.9663942
-0.05025,-0.01725,0.045,-0.01380925,-0.0168,0.078659,1738726529.9802089
-0.068625,0.053125,0.0605,-0.009430001,-0.022643998,0.0798035,1738726529.995156
-0.071625,0.083375,0.08525,-0.00402825,-0.032653753,0.0724945,1738726530.0094268
-0.0625,0.125,0.13575,-0.003952,-0.033981252,0.0639495,1738726530.024742
-0.053375,0.1315,0.156,-0.0052947504,-0.032943748,0.05334475,1738726530.0384
-0.036625,0.11975,0.178375,-0.0075835,-0.024780251,0.0317535,1738726530.055382
-0.030125,0.101875,0.1755,-0.008026,-0.01879875,0.02256775,1738726530.067533
-0.024,0.077,0.166125,-0.0075225,-0.0085602505,0.009903,1738726530.08529
-0.0135,0.022625,0.14425,-0.0064545004,-0.0054475004,0.006775,1738726530.0967228
-0.00975,0.00275,0.139,-0.00279225,-0.00276175,0.005844,1738726530.1113129
-0.00525,-0.01875,0.14275,-0.00109875,-0.0019989999,0.00688175,1738726530.125927
-0.0045,-0.022625,0.14575,-0.00062550005,0.00045775,0.009948749,1738726530.140398
-0.003,-0.019,0.147125,-0.00137325,0.0020752498,0.011078,1738726530.1552682
-0.00175,-0.018125,0.144625,-0.0020905002,0.0039215,0.0115815,1738726530.1695292
0.003625,-0.027625,0.128125,-0.0034637498,0.0075377496,0.012191749,1738726530.185359
0.007125,-0.036375,0.116625,-0.00440975,0.0085755,0.013198749,1738726530.198393
0.01075,-0.046,0.104875,-0.0054475004,0.008133001,0.0180665,1738726530.2137349
0.01525,-0.05175,0.085625,-0.0050812503,0.0068512503,0.02215575,1738726530.2272131
0.015125,-0.045375,0.0795,-0.0027465,0.003128,0.03158575,1738726530.241642
0.00825,-0.00775,0.071125,-0.00154125,0.00071725,0.036026,1738726530.2559822
-0.001,0.023875,0.074125,-0.001007,-0.00485225,0.040954497,1738726530.2705321
-0.03475,0.100875,0.09725,-0.00163275,-0.006607,0.040985,1738726530.285008
-0.05775,0.162125,0.116625,-0.000534,-0.0064545004,0.0405885,1738726530.299628
-0.08725,0.2665,0.144375,0.0204315,0.00354,0.03421025,1738726530.316015
-0.156875,0.497625,0.1415,0.032424998,0.013503999,0.015228249,1738726530.3283799
-0.192125,0.5,0.117375,0.0252075,0.022338752,-0.0652465,1738726530.3448699
-0.2885,0.419625,0.179,0.014724749,0.02064525,-0.11274725,1738726530.357249
-0.33625,0.262125,0.196375,0.0052947504,0.033722,-0.18634026,1738726530.3716118
-0.375625,-0.107125,0.163,-0.0002135,0.041626,-0.2032775,1738726530.386187
-0.3305,-0.317875,0.134875,-0.0055237496,0.046173,-0.2084655,1738726530.400817
-0.199125,-0.4905,0.075875,-0.0059205,0.047805753,-0.162201,1738726530.416003
0.0755,-0.5,-0.099125,0.0051269997,0.035949748,-0.09091175,1738726530.429889
0.083375,-0.424875,-0.041875,0.037445,-0.01979075,0.03913875,1738726530.4451861
0.01175,-0.173375,0.230625,0.0266875,-0.0318145,0.046463,1738726530.4590101
0.00775,-0.15625,0.2535,-0.026596,-0.01098625,0.0138245,1738726530.475337
0.02425,-0.234875,0.1335,-0.038390998,0.00193775,0.0112915,1738726530.4881039
0.01775,-0.208,0.074375,-0.027679501,0.007782,0.03793325,1738726530.5051
-0.0125,-0.041375,0.03975,-0.016113251,0.00325,0.050644003,1738726530.51702
-0.022125,0.021625,0.048625,-0.0046539996,-0.0025025,0.05622875,1738726530.531523
-0.026875,0.049,0.065875,0.0085755,-0.0139465,0.05137625,1738726530.54588
-0.02975,0.07,0.1215,0.00839225,-0.01805125,0.046569753,1738726530.5604851
-0.028375,0.078625,0.148875,0.00491325,-0.017654499,0.03500375,1738726530.575488
-0.019625,0.072125,0.168375,0.00364675,-0.013641249,0.0283355,1738726530.589477
-0.013125,0.057,0.15725,-0.0015105,-0.0051880004,0.0168915,1738726530.605372
0.0005,0.02375,0.135625,-0.0043182503,-0.00308225,0.013137749,1738726530.618376
0.00575,0.008375,0.13,-0.0060272496,-0.00184625,0.010757499,1738726530.635347
0.0095,-0.00675,0.12525,-0.005249,-0.00013725001,0.0102235,1738726530.6472871
0.013875,-0.028125,0.119125,-0.00343325,0.000229,0.011886501,1738726530.6617138
0.01425,-0.0275,0.12225,0.00137325,1.5250001e-05,0.01634225,1738726530.676078
0.012625,-0.018375,0.129125,0.0031127501,0.0005035,0.017685,1738726530.6903749
0.011625,-0.010125,0.1255,0.00119025,0.001709,0.0177155,1738726530.705446
0.0105,-0.000875,0.122875,-0.00099175,0.0017852499,0.01605225,1738726530.719199
0.010875,-0.002625,0.12,-0.0031585,0.0019685,0.014053251,1738726530.735018
0.010875,-0.005375,0.118125,-0.006546,0.00175475,0.01150525,1738726530.7482188
0.011375,-0.011625,0.119625,-0.0072632497,0.001648,0.01098625,1738726530.765701
0.012625,-0.0165,0.1155,-0.0072785,0.0019685,0.01171875,1738726530.777015
0.0165,-0.024625,0.1025,-0.00590525,0.00160225,0.01330575,1738726530.791381
0.019625,-0.03375,0.08725,-0.00074775,-0.001007,0.01820375,1738726530.8059251
0.0275,-0.083375,0.036,0.00112925,-0.0048065,0.0225525,1738726530.820487
0.028,-0.108625,0.027,0.00378425,-0.01835625,0.040527247,1738726530.8355
0.00525,-0.056,0.056125,0.0049895,-0.024231002,0.052185003,1738726530.849379
-0.013125,-0.0015,0.069375,0.0049285004,-0.0281525,0.060974,1738726530.866179
-0.034625,0.066125,0.090875,0.0017395001,-0.033325247,0.066619754,1738726530.8783848
-0.0785,0.237625,0.141125,0.001648,-0.03262325,0.06204225,1738726530.894978
-0.100625,0.32675,0.1715,0.025528,-0.0198365,0.03541575,1738726530.907219
-0.149125,0.460125,0.16175,0.0387115,-0.00738525,0.01019275,1738726530.9216099
-0.1835,0.48125,0.143875,0.025772,0.0072937496,-0.067749,1738726530.9361029
-0.271625,0.351125,0.19475,0.0106355,0.009674,-0.1118775,1738726530.9505432
-0.318,0.222375,0.23275,9.15e-05,0.014618,-0.15019225,1738726530.966356
-0.355625,0.0615,0.262,-0.0011445,0.03648375,-0.19560249,1738726530.979711
-0.3485,-0.30225,0.24825,0.004303,0.05093375,-0.19697575,1738726530.995116
-0.275375,-0.43425,0.1855,0.02301025,0.07415775,-0.1541595,1738726531.008817
-0.0025,-0.5,-0.10625,0.024688749,0.0746765,-0.11470025,1738726531.025315
0.081625,-0.49925,-0.2045,0.024414,0.01737975,-0.00785825,1738726531.037929
0.046375,-0.3155,0.091,0.021881001,-0.01893625,0.026184,1738726531.0554082
0.010875,-0.197375,0.22,-0.016448999,-0.0222015,0.03161625,1738726531.067112
0.010125,-0.147625,0.141625,-0.034027,-0.00717175,0.0227355,1738726531.081596
0.01725,-0.179,0.073375,-0.040207002,0.00105275,0.0205535,1738726531.0960052
0.011625,-0.185875,0.0315,-0.02876275,-0.004593,0.04293825,1738726531.110623
-0.031625,-0.0845,0.051125,-0.01811225,-0.012405501,0.0589905,1738726531.125599
-0.053125,0.000375,0.09575,-0.004303,-0.02168275,0.0746765,1738726531.1397061
-0.060375,0.107,0.157875,-0.00245675,-0.02073675,0.07041925,1738726531.155545
-0.051125,0.109375,0.165,-0.0051574996,-0.013092,0.05125425,1738726531.168809
-0.030375,0.0545,0.141625,-0.0088805,-0.00930775,0.04299925,1738726531.185667
-0.02325,0.021125,0.131125,-0.012207,-0.00637825,0.036620997,1738726531.197988
-0.0155,-0.033375,0.11825,-0.009811499,-0.00621025,0.038452253,1738726531.21634
-0.016875,-0.032875,0.122625,-0.0050202496,-0.0066374997,0.04296875,1738726531.2271621
-0.019125,-0.01525,0.1385,0.008788999,-0.0063325,0.0512085,1738726531.2417028
-0.018625,0.0285,0.16075,0.014618,-0.00364675,0.05113225,1738726531.256167
-0.015375,0.036125,0.157,0.016235251,0.00343325,0.04185475,1738726531.270561
-0.009375,0.023625,0.13175,0.012252751,0.005844,0.03598025,1738726531.2855291
-0.008625,0.015625,0.112875,-0.00074775,0.0063325,0.027832001,1738726531.299426
-0.00675,0.00675,0.086,-0.0080567505,0.00390625,0.02592475,1738726531.316176
-0.005,0.006,0.091625,-0.01266475,0.0005645,0.025055,1738726531.328187
-0.003375,0.00525,0.1025,-0.011260999,-0.00238025,0.025085501,1738726531.3449569
0.003125,-0.014,0.102,-0.008361749,-0.001419,0.026184,1738726531.3572211
0.0055,-0.022625,0.094625,-0.00325,-0.00030525,0.03367625,1738726531.371691
0.004625,-0.004375,0.06575,-0.00099175,-0.000824,0.0388335,1738726531.386179
-0.001125,0.036,0.04875,0.009445249,-0.00585925,0.04635625,1738726531.400627
-0.02375,0.1525,0.039375,0.019348249,-0.0094604995,0.045898497,1738726531.416209
-0.040375,0.2035,0.037875,0.031784,-0.018463248,0.031662002,1738726531.4296
-0.085125,0.31675,0.11275,0.0327605,-0.02342225,0.017624,1738726531.445123
-0.117,0.384,0.167625,0.0319215,-0.024002,-0.00190725,1738726531.4586291
-0.160875,0.45175,0.216125,0.03572075,-0.0072480002,-0.0592805,1738726531.4750779
-0.28575,0.423375,0.258375,0.03494275,0.00845325,-0.10015875,1738726531.487481
-0.35525,0.275625,0.263,0.018158002,0.04141225,-0.17858875,1738726531.505352
-0.417125,-0.163,0.258125,0.01187125,0.05752575,-0.19824225,1738726531.516499
-0.381125,-0.33725,0.2315,0.016143749,0.08839425,-0.177414,1738726531.530987
-0.156,-0.494875,-0.00875,0.019989,0.09983825,-0.14863576,1738726531.545608
-0.01075,-0.5,-0.2,0.019989,0.09706125,-0.1130675,1738726531.5602949
0.076375,-0.497,-0.251625,0.0220185,0.018127501,-0.0199585,1738726531.5755332
0.049625,-0.309,0.092375,0.0178985,-0.0194855,0.013122501,1738726531.58916
0.019375,-0.203375,0.189875,-0.0072937496,-0.019455,0.02398675,1738726531.605226
0.018,-0.159125,0.10825,-0.018509,-0.00585925,0.016128499,1738726531.6182761
0.025,-0.181,0.053625,-0.02417,0.00109875,0.015396,1738726531.6354911
0.009875,-0.158,0.0275,-0.018920999,-0.0035095,0.02490225,1738726531.647257
-0.00525,-0.123875,0.04025,-0.0112,-0.01670825,0.043762248,1738726531.661877
-0.030125,-0.052625,0.093625,-0.0110932505,-0.022293,0.049850497,1738726531.676451
-0.037375,-0.016625,0.1235,-0.012039251,-0.025406,0.05336,1738726531.691052
-0.040625,0.02175,0.142625,-0.01165775,-0.02253725,0.051818747,1738726531.705606
-0.031375,0.06075,0.1385,-0.00823975,-0.018448,0.046646,1738726531.720045
-0.022875,0.044375,0.123125,-0.00511175,-0.0141755,0.035949748,1738726531.735399
-0.011875,0.005,0.129625,-0.00637825,-0.01496875,0.033752497,1738726531.7490938
-0.01,-0.006375,0.14025,-0.00665275,-0.0136565,0.03302,1738726531.7663622
-0.008,-0.02025,0.13975,-0.00538625,-0.011612001,0.033584498,1738726531.778341
-0.00925,-0.017125,0.13575,-0.00384525,-0.009674,0.03559875,1738726531.79523
-0.015,0.00225,0.149125,-0.00399775,-0.0093385,0.035293497,1738726531.8073778
-0.01675,0.007625,0.153,-0.00494375,-0.00791925,0.033615,1738726531.825283
-0.01725,0.009,0.152125,-0.008773751,-0.00331125,0.029251,1738726531.83636
-0.014875,0.004125,0.143,-0.01048275,-0.001007,0.02746575,1738726531.8508859
-0.01175,-0.004375,0.13075,-0.012802,0.00239575,0.02589425,1738726531.866234
-0.003625,-0.025125,0.1035,-0.01245125,0.002884,0.02693175,1738726531.8799
0.001125,-0.037875,0.09125,-0.00712575,0.0015105,0.033752497,1738726531.895069
0.0045,-0.028125,0.09,-0.00308225,1.5250001e-05,0.039352503,1738726531.9086761
0.00425,-0.01125,0.09525,0.00027475,-0.00096125,0.044372503,1738726531.924978
0.0035,0.00825,0.098,0.00561525,-0.0005645,0.04957575,1738726531.937312
-0.002,0.035625,0.0955,0.007904,-1.5250001e-05,0.04992675,1738726531.955235
-0.009125,0.054625,0.089,0.011123749,0.0003815,0.0502625,1738726531.966401
-0.032625,0.12075,0.078375,0.013503999,-0.00045775,0.04953,1738726531.980608
-0.0455,0.175875,0.077125,0.024063,-0.0023039998,0.041824248,1738726531.995121
-0.07525,0.349375,0.081125,0.03524775,-0.00263975,0.03053275,1738726532.0095549
-0.103375,0.441375,0.082125,0.047805753,-0.0016632499,0.009094249,1738726532.025106
-0.152125,0.49575,0.091,0.04556275,-0.00070200005,-0.07460025,1738726532.038534
-0.297,0.35675,0.215375,0.0219115,-0.00125125,-0.12896726,1738726532.055018
-0.37225,0.19025,0.296625,-0.01940925,0.014587499,-0.207779,1738726532.067683
-0.4185,-0.249625,0.37325,-0.019394,0.033081003,-0.2183685,1738726532.08527
-0.36775,-0.390625,0.321,0.00982675,0.0787965,-0.16903675,1738726532.0967832
-0.197875,-0.34575,0.083,0.027771,0.092682,-0.131073,1738726532.111413
-0.117625,-0.321125,0.008375,0.035293497,0.07810975,-0.083145246,1738726532.126121
-0.00075,-0.387375,0.032375,0.02630625,0.059692502,-0.067977995,1738726532.140809
0.03275,-0.397125,0.042875,0.0192565,0.0456695,-0.04995725,1738726532.155384
0.05225,-0.36,0.0135,0.0154725,0.03044125,-0.0075377496,1738726532.169709
0.06725,-0.2835,-0.028125,0.011031999,0.0205535,0.00891125,1738726532.1856
0.06425,-0.243375,-0.030875,-0.00354,0.00093075,0.03385925,1738726532.198761
0.04425,-0.13825,-0.033,-0.0089875,-0.0078735,0.041748002,1738726532.216397
0.03325,-0.111375,-0.024,-0.0135955,-0.02619925,0.04574575,1738726532.227954
-0.0035,-0.081,0.024,-0.014389,-0.035202,0.04830925,1738726532.245176
-0.025125,-0.04075,0.071875,-0.010101249,-0.047287,0.05555725,1738726532.2571552
-0.03725,-0.022125,0.149375,-0.0071105,-0.046341,0.0554505,1738726532.271725
-0.035125,-0.02925,0.146625,-0.006546,-0.041977,0.05502325,1738726532.28638
-0.033125,-0.015625,0.127625,-0.01127625,-0.03562925,0.05555725,1738726532.300954
-0.0335,0.007125,0.126875,-0.01380925,-0.033996496,0.0551605,1738726532.31651
-0.032875,0.03325,0.1335,-0.00883475,-0.02964775,0.0505065,1738726532.32994
-0.0235,0.034625,0.141375,-0.0056609996,-0.02693175,0.0449525,1738726532.345195
-0.02025,0.019125,0.146125,-0.0061645,-0.02371225,0.0333405,1738726532.358967
-0.019375,-0.007875,0.165,-0.0073242504,-0.02149975,0.02920525,1738726532.3754098
-0.02,-0.021375,0.1575,-0.01197825,-0.0139465,0.0274505,1738726532.388128
-0.023,-0.014625,0.143125,-0.014495751,-0.01197825,0.0293885,1738726532.405298
-0.02375,-0.0005,0.142125,-0.01567075,-0.01071175,0.03082275,1738726532.417436
-0.020875,0.00975,0.1315,-0.0149535,-0.0073395,0.0296325,1738726532.4356139
-0.018625,0.009375,0.1295,-0.014297499,-0.00621025,0.028411752,1738726532.4464698
-0.0165,0.00725,0.130375,-0.01446525,-0.004776,0.02607725,1738726532.4608839
-0.0115,-0.0075,0.12025,-0.015304499,-0.0038757501,0.0250245,1738726532.475561
-0.008375,-0.020625,0.109,-0.01608275,-0.0036162501,0.02677925,1738726532.490166
-0.006,-0.01925,0.108125,-0.01481625,-0.0043944996,0.03053275,1738726532.505449
-0.0085,0.00125,0.115125,-0.00794975,-0.0028535,0.03840625,1738726532.519256
-0.01975,0.051,0.124875,-0.0034942501,-0.00057975,0.040268,1738726532.535017
-0.031375,0.092625,0.130375,0.0014495,0.00270075,0.04116825,1738726532.54803
-0.04775,0.162875,0.12675,0.0251465,0.0157165,0.04135125,1738726532.56593
-0.09225,0.410125,0.071875,0.04188525,0.0229645,0.03424075,1738726532.5767722
-0.128,0.5,0.054,0.0506135,0.023758,-0.0299225,1738726532.591155
-0.250125,0.5,0.132375,0.040527247,0.020324752,-0.0858765,1738726532.605572
-0.3345,0.39525,0.2075,0.012375,0.02949525,-0.185913,1738726532.6199412
-0.43775,-0.06525,0.235125,0.0070647504,0.04556275,-0.2102355,1738726532.635388
-0.402875,-0.282625,0.1565,0.0050202496,0.062317003,-0.21331775,1738726532.649138
-0.102625,-0.5,-0.068125,0.00201425,0.06890875,-0.16815175,1738726532.666322
0.031375,-0.5,-0.1365,0.012329,0.050003,-0.1055755,1738726532.678315
0.06475,-0.46875,-0.070625,0.03370675,-0.017212,0.010009751,1738726532.6949492
-0.004,-0.262375,0.272625,0.019622749,-0.03273,0.02412425,1738726532.707436
-0.012375,-0.22325,0.294125,-0.025711,-0.0050965,0.011383001,1738726532.7251232
0.014625,-0.21925,0.098625,-0.036087003,0.010101249,0.01020825,1738726532.736574
0.021875,-0.2075,0.025,-0.028289748,0.008148249,0.02633675,1738726532.75108
-0.00175,-0.125125,0.036375,-0.0189515,-0.00204475,0.03793325,1738726532.766568
-0.0205,-0.07425,0.081,-0.0113525,-0.01054375,0.04739375,1738726532.7802129
-0.03775,-0.003,0.13375,-0.0058135,-0.014206001,0.05558775,1738726532.79521
-0.036625,0.015375,0.137875,-0.0073547503,-0.01193225,0.055191003,1738726532.809459
-0.032375,0.031,0.130625,-0.01454175,-0.0060425,0.0507355,1738726532.824943
-0.0205,0.058125,0.0905,-0.016021749,-0.00416575,0.04679875,1738726532.8384829
-0.013375,0.05425,0.074625,-0.012405501,-0.00788875,0.036255002,1738726532.855435
-0.0015,0.010625,0.090875,-0.0099945,-0.01197825,0.032318,1738726532.86747
0.000625,-0.01675,0.108125,-0.00637825,-0.01667775,0.0318145,1738726532.885342
-0.001875,-0.033875,0.139,-0.0042725,-0.01670825,0.03477475,1738726532.896564
-0.0035,-0.026625,0.14875,-0.00181575,-0.015457249,0.0377655,1738726532.911246
-0.004625,-0.02325,0.153375,-0.00019825,-0.010666001,0.039672747,1738726532.9258618
-0.005875,-0.035,0.1305,-0.00408925,-0.0080415,0.039810248,1738726532.940447
-0.005625,-0.043875,0.111375,-0.01446525,-0.00587475,0.04388425,1738726532.955513
-0.005375,-0.043375,0.097,-0.014679,-0.0057525,0.048645,1738726532.969762
-0.0085,-0.015375,0.1035,-0.0041504996,-0.00384525,0.059753504,1738726532.9855192
-0.019875,0.066375,0.113125,0.00184625,-0.001831,0.061737,1738726532.9987998
-0.026,0.0975,0.108875,0.0073547503,0.0021057501,0.05513,1738726533.016701
-0.04375,0.129875,0.103875,0.0089875,0.0033875,0.050063998,1738726533.027565
-0.054875,0.166375,0.109875,0.0151825,0.005249,0.046936,1738726533.045082
-0.065375,0.235875,0.108125,0.04751575,0.01460275,0.039627,1738726533.056459
-0.094875,0.4205,0.04425,0.06451425,0.01921075,0.024780251,1738726533.070743
-0.127875,0.473375,0.01375,0.05587775,0.01042175,-0.046630748,1738726533.085335
-0.235625,0.390875,0.131375,0.0301665,-0.0013580001,-0.095108,1738726533.099632
-0.295625,0.2685,0.228875,-0.00585925,0.0,-0.1743165,1738726533.116262
-0.364375,-0.091875,0.33125,-0.01206975,0.0138702495,-0.19573975,1738726533.1287549
-0.357875,-0.261125,0.347875,-0.01425175,0.0309905,-0.200409,1738726533.144974
-0.25125,-0.428,0.23775,0.0033264998,0.07099925,-0.1611785,1738726533.15795
-0.16125,-0.4365,0.11525,0.019317752,0.086074755,-0.127365,1738726533.174994
-0.069875,-0.401375,0.004875,0.028411752,0.074264504,-0.0629425,1738726533.187117
0.03725,-0.367,-0.033125,0.018448,0.050659247,-0.04273975,1738726533.202442
0.048,-0.358625,0.03025,-0.0043944996,0.013992251,-0.009933501,1738726533.2162151
0.037125,-0.2615,0.0775,-0.011764499,0.009613,0.00402825,1738726533.23067
0.034375,-0.208,0.058625,-0.01911925,0.008926501,0.01832575,1738726533.245161
0.03475,-0.142,0.006875,-0.019027751,0.0070952503,0.02064525,1738726533.259819
0.03225,-0.14025,0.00275,-0.0158845,0.00242625,0.023117,1738726533.275465
0.013,-0.1015,0.0415,-0.0040435,-0.0105742505,0.036560003,1738726533.2887979
0.002,-0.067875,0.060375,0.00024425,-0.015335,0.043472253,1738726533.3053708
-0.00625,-0.04325,0.0745,-0.00267025,-0.022369498,0.0484315,1738726533.317728
-0.019,0.005125,0.102625,-0.0079345,-0.025085501,0.048355,1738726533.3348322
-0.0215,0.03325,0.1175,-0.0089875,-0.026413,0.043578997,1738726533.346665
-0.01775,0.044375,0.143625,-0.00416575,-0.0247345,0.039322,1738726533.361235
-0.01525,0.033625,0.151625,0.00267025,-0.02026375,0.032196,1738726533.375783
-0.01075,-0.000125,0.18,0.0034790002,-0.017624,0.0298615,1738726533.390166
-0.007875,-0.016,0.181375,0.0036162501,-0.01361075,0.028289748,1738726533.405426
-0.004375,-0.036625,0.170125,0.0013275,-0.0056915004,0.02722175,1738726533.4193249
0.000125,-0.080125,0.12425,-0.00239575,-0.00413525,0.029251,1738726533.4350889
0.000125,-0.09125,0.106625,-0.010742251,-0.0077515002,0.039199747,1738726533.448451
-0.004625,-0.08525,0.118,-0.011139,-0.010147001,0.04550175,1738726533.466343
-0.00975,-0.07625,0.127625,-0.0034637498,-0.0091095,0.057129003,1738726533.477736
-0.019875,-0.049875,0.144625,0.0026092501,-0.0064545004,0.062179502,1738726533.4950569
-0.023375,-0.043375,0.145125,0.014663749,0.0015565,0.07014475,1738726533.5069172
-0.025125,-0.048875,0.13275,0.02015675,0.00567625,0.074554496,1738726533.521396
-0.028125,-0.03925,0.119125,0.02534475,0.0093385,0.0803375,1738726533.5357969
-0.034625,-0.001125,0.09475,0.030151252,0.01260375,0.0912475,1738726533.550406
-0.05075,0.162875,0.025875,0.025115998,0.009140001,0.09019475,1738726533.565848
-0.057625,0.292625,0.011,0.014053251,-0.00697325,0.064559996,1738726533.579471
-0.072375,0.48575,0.01525,0.021225,-0.01431275,0.03506475,1738726533.594972
-0.096625,0.477375,0.0415,0.029601999,-0.02766425,-0.045349,1738726533.608463
-0.1955,0.410625,0.237625,0.01646425,-0.031036502,-0.083114505,1738726533.625131
-0.2595,0.3705,0.32425,-0.0097045,-0.00463875,-0.15048225,1738726533.637565
-0.385,0.132,0.326875,-0.013061499,0.01937875,-0.18074025,1738726533.6550138
-0.41375,-0.058,0.292875,-0.011856,0.04144275,-0.20140076,1738726533.666754
-0.402625,-0.219375,0.254625,-0.0013885,0.072372496,-0.1947175,1738726533.681359
-0.22975,-0.472,0.127125,0.008941749,0.08078,-0.17135625,1738726533.695935
-0.094375,-0.5,0.013375,0.03306575,0.070938006,-0.08601375,1738726533.710439
0.05275,-0.404875,-0.07225,0.03816225,0.0442505,-0.04502875,1738726533.725448
0.044125,-0.337,0.0605,0.01142875,-0.00485225,-0.0065307496,1738726533.739491
0.00475,-0.232125,0.208875,-0.0106355,-0.0034637498,-0.00193775,1738726533.755292
0.01075,-0.23275,0.162125,-0.03056325,0.017212,-0.001068,1738726533.769603
0.035875,-0.249625,0.011875,-0.032180753,0.01991275,0.0048674997,1738726533.785556
0.0345,-0.21825,-0.01675,-0.03173825,0.014328,0.015564,1738726533.798164
0.0225,-0.17175,-0.00125,-0.019027751,-0.00617975,0.03898625,1738726533.8161018
-0.0105,-0.061375,0.067,-0.0104674995,-0.01322925,0.0470275,1738726533.82746
-0.018125,-0.029375,0.1015,-0.002472,-0.01741025,0.05033875,1738726533.8423932
-0.015875,-0.013,0.11225,-0.005249,-0.01564025,0.04881275,1738726533.8566148
-0.011,-0.024,0.10475,-0.0150605,-0.01367175,0.04682925,1738726533.871237
-0.00675,-0.032625,0.095,-0.0186615,-0.013854999,0.04875175,1738726533.885822
-0.00775,-0.01175,0.0955,-0.01367175,-0.01496875,0.053527746,1738726533.90046
-0.00525,0.014125,0.100625,-0.0066985004,-0.01560975,0.053222753,1738726533.91633
-0.00525,0.02275,0.112125,-0.0009765,-0.0167695,0.05160525,1738726533.929701
-0.002375,0.017875,0.14075,-3.0500001e-05,-0.017685,0.043213002,1738726533.945295
-0.0005,-0.001875,0.1485,-0.00308225,-0.01634225,0.03800975,1738726533.9589078
0.00025,-0.019875,0.145625,-0.0112915,-0.0114440005,0.0343475,1738726533.975928
-0.002375,-0.02,0.134125,-0.014267,-0.009521499,0.035873502,1738726533.988041
-0.00425,-0.0055,0.125625,-0.0157165,-0.0060577504,0.03901675,1738726534.005476
-0.00925,0.0275,0.109625,-0.015396,-0.0052795,0.03910825,1738726534.0171561
-0.010375,0.041,0.109,-0.0148772495,-0.004837,0.036758497,1738726534.031619
-0.0075,0.053375,0.099125,-0.0144805005,-0.004242,0.034835752,1738726534.046144
-0.00625,0.058875,0.0925,-0.01408375,-0.00378425,0.0330505,1738726534.0606458
-0.013,0.117625,0.081875,-0.011031999,-0.002655,0.03152475,1738726534.075187
-0.020125,0.17475,0.0675,-0.0045165,-0.00112925,0.030334499,1738726534.0897212
-0.026375,0.23675,0.038875,0.0147705,0.00125125,0.017746,1738726534.1058292
-0.055875,0.364375,0.014125,0.0168305,-0.0022125002,0.0019225,1738726534.118523
-0.091,0.4155,0.053375,0.00305175,-0.011306751,-0.05274975,1738726534.134996
-0.18975,0.36975,0.135625,0.0027312501,-0.009796251,-0.085617,1738726534.147528
-0.2305,0.259375,0.1585,0.013733,0.0013885,-0.13529974,1738726534.162005
-0.255875,0.021125,0.173,0.01808175,0.008072,-0.144638,1738726534.1766431
-0.235375,-0.092,0.171375,0.0197295,0.0137635,-0.145874,1738726534.1911008
-0.18625,-0.239,0.167125,0.019027751,0.019317752,-0.1291505,1738726534.205634
-0.02725,-0.5,0.12025,0.021576,0.018875,-0.103622496,1738726534.220064
0.0285,-0.5,0.1,0.0189515,0.0053405,-0.0325775,1738726534.2353761
0.043625,-0.346,0.147875,0.00715625,-0.0046234997,-0.008484,1738726534.24892
0.035625,-0.311125,0.193,-0.01408375,-0.0110932505,0.01071175,1738726534.265715
0.02325,-0.295375,0.18625,-0.01747125,-0.0061950004,0.0187225,1738726534.277964
0.01125,-0.254,0.1515,-0.017807,-0.00048825,0.029144252,1738726534.295007
-0.023125,-0.148625,0.090375,-0.011764499,0.0048217503,0.04982,1738726534.306976
-0.039875,-0.1075,0.09,-0.00738525,0.0020752498,0.05815125,1738726534.321735
-0.053875,-0.068125,0.10675,-0.0021819999,-0.00570675,0.069336,1738726534.336361
-0.066375,0.01025,0.14375,-0.00131225,-0.00665275,0.0707245,1738726534.350873
-0.06475,0.037125,0.153,-0.00238025,-0.00289925,0.0652465,1738726534.366137
-0.052625,0.06475,0.14475,-0.003952,0.00029,0.060485747,1738726534.379851
-0.044,0.0685,0.130875,-0.008026,0.00488275,0.051574748,1738726534.3951309
-0.0245,0.072,0.111875,-0.008224499,0.00564575,0.047592252,1738726534.408737
-0.014375,0.066375,0.10475,-0.0072937496,0.0059205,0.043273997,1738726534.4252238
-0.00525,0.057125,0.100125,-0.00416575,0.0049590003,0.03559875,1738726534.4376378
0.00725,0.04475,0.107,-0.0018615,0.0042572496,0.0329895,1738726534.4527638
0.010875,0.03925,0.10975,0.0015105,0.00463875,0.02867125,1738726534.4666162
0.016625,0.024375,0.1025,0.00146475,0.0049895,0.026947001,1738726534.480746
0.019125,0.0165,0.095375,-0.00090025004,0.00491325,0.02572625,1738726534.4953458
0.020875,0.007125,0.069875,-0.0022277501,0.0042115003,0.026855499,1738726534.50971
0.0195,0.012125,0.056125,-0.0030975002,0.0025025,0.029174749,1738726534.525262
0.014875,0.032375,0.048875,-0.00065625,-0.003128,0.03508,1738726534.538419
-0.005,0.11475,0.041,0.0034484998,-0.005539,0.036514252,1738726534.555327
-0.018625,0.169875,0.032875,0.016739,-0.010879501,0.030365,1738726534.567426
-0.049375,0.265875,0.038625,0.024231002,-0.014679,0.0202485,1738726534.582363
-0.068625,0.30025,0.059375,0.033432,-0.020218,-0.012085,1738726534.596498
-0.129,0.354625,0.126625,0.03105175,-0.01979075,-0.034073003,1738726534.611182
-0.167625,0.345875,0.144875,0.016983,-0.010437001,-0.08784475,1738726534.62573
-0.231875,0.2185,0.137125,0.0115815,-0.00437925,-0.1128235,1738726534.64023
-0.24625,0.127625,0.127625,0.010024999,0.0005645,-0.13162225,1738726534.654727
-0.2475,0.028625,0.13,0.01136775,0.00469975,-0.1500855,1738726534.669237
-0.217625,-0.1925,0.190875,0.011139,0.00541675,-0.1500855,1738726534.685243
-0.1885,-0.297,0.229875,0.016983,0.01463325,-0.12814325,1738726534.698604
-0.080875,-0.487625,0.214,0.01950075,0.02278125,-0.10697925,1738726534.716547
-0.02275,-0.5,0.1545,0.018753,0.0289155,-0.040420502,1738726534.727744
0.024375,-0.379125,0.098625,0.016113251,0.021789499,-0.009872501,1738726534.74246
0.0195,-0.30625,0.122375,-0.0002595,0.0067445002,0.01849375,1738726534.756763
0.00075,-0.22825,0.14475,-0.0099639995,0.0055847503,0.02374275,1738726534.771112
-0.005875,-0.20275,0.129875,-0.016876249,0.00708,0.02870175,1738726534.7856011
-0.011875,-0.171125,0.11075,-0.018310498,0.009597749,0.042663503,1738726534.800116
-0.02475,-0.09925,0.07925,-0.0136565,0.00883475,0.0499115,1738726534.816483
-0.030125,-0.068875,0.077625,-0.00440975,0.0028535,0.059372,1738726534.829254
-0.033,-0.029625,0.085875,-0.0034637498,-0.00024425,0.06100475,1738726534.845537
-0.03275,-0.013625,0.09175,-0.00593575,-0.0045165,0.060668997,1738726534.858477
-0.0305,0.018125,0.104,-0.0077515002,-0.00541675,0.05906675,1738726534.8751569
-0.026625,0.02525,0.10575,-0.010376001,-0.00538625,0.05349725,1738726534.887418
-0.01575,0.021,0.099875,-0.010727,-0.0054015,0.0508575,1738726534.9051268
-0.01125,0.016375,0.09625,-0.010894749,-0.0059205,0.0488435,1738726534.916428
-0.009125,0.010875,0.1,-0.00852975,-0.00773625,0.047195498,1738726534.930908
-0.007375,0.005875,0.114875,-0.006073,-0.0075835,0.047958247,1738726534.9454331
-0.005875,0.002875,0.11525,-0.00051875,-0.0047455,0.05099475,1738726534.959925
-0.00325,0.003125,0.102875,0.002243,-0.00325,0.0529785,1738726534.9753642
-0.004625,0.0165,0.097625,0.004593,-0.0020599999,0.056335498,1738726534.988832
-0.012625,0.06125,0.0695,0.0028535,-0.00242625,0.05596925,1738726535.005024
-0.01925,0.085625,0.053375,-0.00016775,-0.0044555003,0.053939752,1738726535.017837
-0.028625,0.105125,0.051625,-0.004242,-0.013931249,0.0464325,1738726535.032879
-0.054,0.122625,0.097625,-0.00402825,-0.01753225,0.04290775,1738726535.047002
-0.068375,0.140625,0.114625,0.0035095,-0.013382,0.0416565,1738726535.061446
-0.10025,0.29075,0.1025,0.01573175,-0.00801075,0.04188525,1738726535.0758212
-0.1225,0.404625,0.06525,0.058776747,0.00175475,0.015976,1738726535.090246
-0.19375,0.5,0.009375,0.06956475,-0.0014495,-0.020049999,1738726535.105142
-0.24525,0.462125,0.0615,0.0415955,-0.019012501,-0.11920175,1738726535.1192
-0.356625,0.193625,0.2435,0.018448,-0.018631,-0.164505,1738726535.135027
-0.397625,0.005125,0.296875,0.0003815,-0.00889575,-0.19767751,1738726535.148329
-0.409875,-0.200125,0.3195,-0.008926501,0.022995,-0.2150115,1738726535.166191
-0.269875,-0.5,0.27025,-0.00343325,0.0400085,-0.19514474,1738726535.1775758
-0.1145,-0.5,0.139625,0.01667775,0.06372075,-0.078659,1738726535.192627
0.048125,-0.4205,-0.098375,0.03094475,0.047577,-0.0020295,1738726535.206513
0.033875,-0.253125,0.008625,0.023376498,-0.01326,0.0581665,1738726535.220973
0.004875,-0.091625,0.212375,-0.00485225,-0.01838675,0.039627,1738726535.235548
0.006375,-0.143,0.201,-0.029831,-0.00962825,0.0185395,1738726535.2500968
0.002625,-0.204,0.102125,-0.039169252,0.009369001,0.017455999,1738726535.26619
-0.009125,-0.17175,0.06575,-0.0327605,0.012085,0.03149425,1738726535.279006
-0.023125,-0.115625,0.056375,-0.01678475,0.006302,0.05821225,1738726535.2949262
-0.043875,0.00975,0.077,-0.009734999,0.003128,0.065292254,1738726535.307929
-0.04525,0.06025,0.08925,-0.00080875,6.1000002e-05,0.06330875,1738726535.324946
-0.033,0.114875,0.096875,-0.000412,-0.00071725,0.055724997,1738726535.336818
-0.0255,0.122625,0.09975,-0.004074,-0.0033570002,0.036255002,1738726535.3513541
-0.01575,0.120125,0.112625,-0.0058287503,-0.00444025,0.02696225,1738726535.3663712
-0.0125,0.111875,0.12125,-0.00617975,-0.004776,0.018585252,1738726535.380325
-0.00925,0.09925,0.1265,-0.00296025,-0.0026245,0.0054932497,1738726535.395057
-0.001875,0.06425,0.125,-0.00057975,-0.00096125,0.0012207499,1738726535.409326
0.001625,0.047125,0.121875,0.00270075,0.0011445,-0.0031127501,1738726535.425088
0.006875,0.01475,0.115375,0.00270075,0.001236,-0.0040435,1738726535.437922
0.00825,-0.001125,0.116,0.00090025004,0.00029,-0.00413525,1738726535.455062
0.008,-0.022875,0.113,-0.00070200005,-0.00024425,-0.00283825,1738726535.4672158
0.00675,-0.02525,0.117125,-0.0022125002,-0.0012207499,-0.00054925,1738726535.485319
0.002,-0.007875,0.129375,-0.00228875,-0.0020905002,0.0048674997,1738726535.496316
0.000375,0.002875,0.128625,-0.00149525,-0.0013885,0.00640875,1738726535.510689
-0.00075,0.011375,0.12875,-0.00148,-0.000229,0.0065917503,1738726535.525255
-0.0025,0.02175,0.127375,-0.001526,0.0005035,0.00535575,1738726535.5396018
-0.001875,0.02125,0.123625,-0.00149525,0.00143425,0.00093075,1738726535.555151
0.000125,0.0065,0.122,-0.00225825,0.0013275,-0.00102225,1738726535.568386
0.0005,0.000625,0.122875,-0.0020905002,0.001419,-0.0022125002,1738726535.585276
0.001125,-0.006,0.11525,-0.0013580001,0.0015565,-0.001953,1738726535.597297
0.00125,-0.008375,0.114875,-0.0013580001,0.001068,-0.0013580001,1738726535.611806
0.001125,-0.009125,0.118625,-0.001175,-9.15e-05,6.1000002e-05,1738726535.626292
0.001625,-0.006,0.119125,-0.000412,-7.625e-05,0.00039675,1738726535.6408372
0.002125,-0.00425,0.117875,-0.00083925005,-0.00057975,0.00029,1738726535.6553652
0.001375,-0.003125,0.12275,-0.0012665,-0.000824,0.0,1738726535.669784
0.001,-0.00525,0.12275,-0.00013725001,-0.00057975,-0.00059500005,1738726535.685057
0.00125,-0.00725,0.120375,0.00042725,-0.00051875,-0.000412,1738726535.698911
0.0005,-0.005875,0.121625,0.00064075,-0.00068675,-4.575e-05,1738726535.7160609
-0.0005,-0.0035,0.12525,0.0013885,-0.000946,0.00029,1738726535.727886
-0.000875,-0.001625,0.129625,0.0019989999,-0.00059500005,9.15e-05,1738726535.742539
-0.000625,-0.00175,0.126625,0.0021057501,0.00029,-0.00035100002,1738726535.7570271
-0.000375,-0.003375,0.122625,0.001175,0.0,-0.000473,1738726535.771452
-0.000375,-0.00375,0.12375,0.00030525,-0.00064075,-0.00033575002,1738726535.786096
-0.000125,-0.004125,0.1255,-3.0500001e-05,-0.0007935,-0.00010675,1738726535.8007638
-0.000875,-0.002875,0.128,-0.0013580001,-0.00057975,0.00051875,1738726535.8157818
-0.001625,-0.000125,0.126375,-0.0015565,-0.0001525,0.00057975,1738726535.829994
-0.00125,0.001625,0.127625,-0.0013885,3.0500001e-05,0.000473,1738726535.8447082
-0.000625,0.002625,0.129625,-0.00093075,0.00067150005,-0.00010675,1738726535.858911
0.00075,0.00525,0.1235,-0.00105275,0.00115975,-0.0003815,1738726535.874781
0.001125,0.00525,0.1205,-0.0021972498,0.00080875,-0.00083925005,1738726535.887661
0.001125,0.004,0.12325,-0.0029755002,0.00036625,-0.00099175,1738726535.9048169
0.001,0.003375,0.123875,-0.00437925,7.625e-05,-0.00105275,1738726535.91648
