acc_x,acc_y,acc_z,gyro_x,gyro_y,gyro_z,timestamp
-0.014875,-0.00075,0.123375,0.000183,-0.00013725001,-0.000229,1738726537.5448442
-0.01475,-0.000625,0.124,0.00016775,-6.1000002e-05,-0.000229,1738726537.558134
-0.0145,-0.00125,0.123875,4.575e-05,0.00024425,-0.000534,1738726537.5727491
-0.014125,-0.00425,0.121,0.0001525,0.0003205,-0.00070200005,1738726537.5872269
-0.014125,-0.00525,0.12,0.00016775,0.00010675,-0.00051875,1738726537.604406
-0.013625,-0.005625,0.1155,-0.00016775,-0.00016775,-0.000229,1738726537.61667
-0.013375,-0.005375,0.1155,-0.0005645,-0.00143425,0.00033575002,1738726537.631211
-0.014,-0.00375,0.121875,-0.00036625,-0.001709,0.00054925,1738726537.6458082
-0.014375,-0.0015,0.124375,0.00036625,-0.001114,0.00054925,1738726537.6602292
-0.014375,0.002125,0.12425,0.00039675,-0.00054925,0.0002135,1738726537.674646
-0.013875,0.00075,0.121125,0.0001525,-1.5250001e-05,-0.00024425,1738726537.6893692
-0.013125,-0.002625,0.116625,-0.00010675,0.00010675,-0.0005645,1738726537.7044532
-0.01175,-0.0075,0.104875,7.625e-05,-0.0007325,-0.00024425,1738726537.718566
-0.0115,-0.007375,0.106,-0.000229,-0.0034484998,0.0007325,1738726537.734402
-0.01225,-0.005125,0.111875,-0.00039675,-0.0043182503,0.001068,1738726537.7477381
-0.012125,-0.0045,0.11275,0.00096125,-0.0048065,0.0016785001,1738726537.7646542
-0.01075,-0.00175,0.1035,0.00216675,-0.0049742498,0.0020752498,1738726537.776912
-0.008625,-0.000625,0.094875,0.00390625,-0.00712575,0.00216675,1738726537.791432
-0.002875,-0.006875,0.0675,0.0024414998,-0.0101165,0.001587,1738726537.806032
0.00025,-0.00525,0.067875,-0.00039675,-0.015029999,0.0012970001,1738726537.8205261
-0.0035,0.0165,0.103125,-0.0065917503,-0.026657,0.00086975005,1738726537.835178
-0.018125,0.03325,0.13425,-0.01091,-0.03186025,-0.0005645,1738726537.8498209
-0.04675,0.04475,0.188,-0.02224725,-0.0394745,-0.008209251,1738726537.864794
-0.1525,0.029875,0.378625,-0.028061,-0.038055502,-0.012191749,1738726537.879112
-0.217,0.043625,0.478,-0.02867125,-0.013000499,-0.012039251,1738726537.8938959
-0.2975,0.147125,0.5,-0.02241525,0.017868,-0.014358499,1738726537.9083729
-0.30375,0.170625,0.46575,-0.0111085,0.097763,-0.03518675,1738726537.924032
-0.266125,0.071125,0.263875,-0.0068969997,0.121353246,-0.048294,1738726537.937721
-0.2125,-0.079125,0.115375,0.00720225,0.14630125,-0.05717475,1738726537.9522712
-0.023625,-0.332125,-0.22725,0.019287001,0.1451415,-0.038208,1738726537.966948
0.056125,-0.25625,-0.354125,0.0325775,0.13217175,-0.004242,1738726537.981473
0.10425,-0.05525,-0.44975,0.036087003,0.080017,0.042037997,1738726537.996004
0.134375,0.188375,-0.4915,0.018310498,0.041031,0.0282135,1738726538.0105531
0.11675,0.105375,-0.3995,-0.02215575,-0.03733825,-0.018615749,1738726538.02512
0.028125,-0.0565,-0.07925,-0.028839001,-0.06065375,-0.022766002,1738726538.0398662
-0.0175,-0.050625,0.079625,-0.01634225,-0.0675355,-0.0045777503,1738726538.0548108
-0.05825,0.028875,0.27675,-0.00384525,-0.055297747,0.0038757501,1738726538.069484
-0.057125,0.0605,0.2645,0.01228325,-0.02067575,0.0064545004,1738726538.084384
-0.04225,0.0755,0.174125,0.012375,-0.013733,0.00080875,1738726538.098442
-0.026875,0.02075,0.175625,0.0101165,-0.01460275,-0.0068055,1738726538.115309
0.00975,-0.07425,0.194375,0.012085,-0.01542675,-0.006775,1738726538.127622
0.022625,-0.0575,0.1695,0.01693725,-0.011078,0.0019685,1738726538.144146
0.031125,-0.025,0.13125,0.01857,-0.0059967497,0.0110932505,1738726538.156439
0.03675,-0.004625,0.0885,0.013031,-0.00788875,0.008850001,1738726538.170957
0.034375,-0.016875,0.07825,0.00283825,-0.01440425,0.004593,1738726538.185319
0.0205,-0.0225,0.08025,0.00061025,-0.01817325,0.0055847503,1738726538.199748
0.0115,-0.01075,0.089125,-0.00045775,-0.023681749,0.009216251,1738726538.217013
-0.002375,0.01575,0.1095,0.00016775,-0.024887,0.009903,1738726538.228959
-0.004875,0.019375,0.111375,0.0021819999,-0.024887,0.009597749,1738726538.2446542
-0.00475,0.0195,0.105,0.0069274995,-0.02389525,0.00830075,1738726538.257856
-0.003625,0.0195,0.0845,0.0080415,-0.02442925,0.0073395,1738726538.274762
-0.004625,0.015375,0.077375,0.006363,-0.028366,0.0043639997,1738726538.286905
-0.0105,-0.00875,0.08275,0.0046234997,-0.0312195,0.00352475,1738726538.3014069
-0.01525,-0.013875,0.09575,0.0016785001,-0.0358125,0.00538625,1738726538.315954
-0.02725,0.004125,0.138875,0.0014495,-0.035843,0.0062865,1738726538.330473
-0.033125,0.0105,0.143875,0.0019989999,-0.031128,0.00514225,1738726538.3448231
-0.04425,0.0055,0.14275,0.0013580001,-0.029998751,0.0039215,1738726538.359391
-0.048125,-0.00125,0.15425,0.0003205,-0.02977,0.0030975002,1738726538.374634
-0.051,-0.003875,0.168625,-0.00054925,-0.026947001,0.00355525,1738726538.3885891
-0.049375,-0.009375,0.1675,0.00068675,-0.0239105,0.00408925,1738726538.4045281
-0.046625,-0.012375,0.15975,0.0014495,-0.019867001,0.00541675,1738726538.417711
-0.0425,-0.0095,0.171,0.0009155,-0.01857,0.0060577504,1738726538.43463
-0.04,-0.0045,0.1745,-0.001175,-0.014510999,0.0055085,1738726538.447005
-0.03325,-0.010375,0.171375,-0.0026854998,-0.0128175,0.0045165,1738726538.461638
-0.033,-0.01125,0.175375,-0.00585925,-0.01133725,0.00463875,1738726538.476243
-0.051875,0.019,0.219625,-0.00697325,-0.010528499,0.0053709997,1738726538.490749
-0.07425,0.041875,0.255625,-0.008285499,-0.0087585,0.0050965,1738726538.5052512
-0.107625,0.0645,0.303875,-0.012176501,-0.0005645,-0.00019825,1738726538.519836
-0.210375,0.113625,0.42175,-0.0150605,0.0070952503,-0.0057220003,1738726538.534998
-0.269875,0.13125,0.4835,-0.018448,0.033691503,-0.0228425,1738726538.5490298
-0.351625,0.165625,0.487625,-0.0154725,0.064468496,-0.032196,1738726538.565671
-0.367125,0.15675,0.385125,0.00146475,0.13577275,-0.05508425,1738726538.5778718
-0.289,-0.095875,0.021125,0.017730748,0.1551055,-0.0642395,1738726538.594431
-0.167375,-0.283375,-0.193875,0.034195,0.16271976,-0.061676,1738726538.607052
0.117625,-0.34,-0.5,0.0537415,0.140442,-0.0028074998,1738726538.62153
0.187125,-0.1005,-0.5,0.048995998,0.100296,0.035949748,1738726538.635933
0.20075,0.135875,-0.5,-0.00067150005,-0.0062712496,0.03173825,1738726538.650435
0.124375,0.031625,-0.403375,-0.02449025,-0.0419465,0.0023039998,1738726538.6658828
0.052625,-0.066625,-0.2795,-0.0421905,-0.081833,-0.0055237496,1738726538.67963
-0.105875,-0.02925,0.0375,-0.042358503,-0.091415495,0.0068207504,1738726538.6948328
-0.165375,0.039625,0.1875,-0.02722175,-0.0903015,0.022369498,1738726538.708865
-0.195375,0.143375,0.394375,-0.01498425,-0.076751746,0.02101125,1738726538.7250361
-0.172625,0.157125,0.41125,-0.004776,-0.05635075,0.014343251,1738726538.738038
-0.097875,0.08725,0.330125,0.00782775,-0.01908875,-0.0054015,1738726538.75487
-0.05775,0.00675,0.261,0.012832751,-0.00788875,-0.012619001,1738726538.767154
-0.02225,-0.066125,0.20125,0.01705925,-0.000229,-0.008606,1738726538.782387
0.0155,-0.0715,0.149125,0.0141145,-0.000229,-1.5250001e-05,1738726538.796308
0.01875,-0.0375,0.13675,0.0033570002,0.00013725001,0.009658749,1738726538.810744
0.0105,0.004,0.11675,0.0002595,0.00027475,0.009781,1738726538.824996
0.004375,0.011375,0.103875,-0.0005035,-0.00054925,0.0072632497,1738726538.839357
-0.005375,0.016125,0.088,0.001068,-0.00216675,0.00665275,1738726538.854982
-0.009125,0.026625,0.088,0.00317375,-0.0041810004,0.00688175,1738726538.868246
-0.01125,0.034,0.086625,0.006012,-0.00794975,0.0062865,1738726538.885139
-0.00975,0.037,0.088625,0.0064850003,-0.009734999,0.0053709997,1738726538.897047
-0.007375,0.037625,0.087625,0.006668,-0.012130749,0.00175475,1738726538.911419
-0.005375,0.017125,0.091125,0.00596625,-0.013549751,-0.00086975005,1738726538.925948
-0.006125,0.001375,0.09925,0.0034790002,-0.014587499,-0.0032195,1738726538.940434
-0.00875,-0.020125,0.094875,0.0038299998,-0.014267,-0.0022277501,1738726538.955113
-0.01125,-0.01975,0.091625,0.0053252503,-0.014572251,-0.0002595,1738726538.969585
-0.015375,-0.013,0.09325,0.0065002497,-0.016876249,0.0028687501,1738726538.9852512
-0.02625,-0.004375,0.111625,0.0047302498,-0.018158002,0.00263975,1738726538.998639
-0.030125,-0.01275,0.1215,0.000412,-0.01893625,0.00108325,1738726539.015887
-0.031625,-0.0255,0.14025,-0.0003815,-0.01829525,0.001709,1738726539.0277371
-0.03125,-0.019375,0.143375,-0.0005645,-0.015090999,0.00428775,1738726539.044765
-0.032125,-0.00275,0.1445,-0.00042725,-0.013641249,0.0048065,1738726539.057004
-0.032,0.00025,0.14375,0.00102225,-0.011383001,0.0047455,1738726539.0714371
-0.028625,0.00125,0.140125,0.00198375,-0.010528499,0.0047607496,1738726539.085814
-0.02475,0.0025,0.134625,0.0024872501,-0.009948749,0.004837,1738726539.100383
-0.019875,0.00075,0.131625,0.00105275,-0.011031999,0.0047302498,1738726539.116058
-0.01525,-0.000125,0.13975,-0.00027475,-0.012436,0.00505075,1738726539.129428
-0.01775,0.00625,0.1575,-0.0019225,-0.01504525,0.0059815003,1738726539.144971
-0.03325,0.024375,0.201625,-0.00157175,-0.0151825,0.006012,1738726539.158439
-0.048125,0.0325,0.231875,0.00013725001,-0.013702501,0.00378425,1738726539.1748621
-0.10775,0.02425,0.323125,-0.00042725,-0.011627249,0.00143425,1738726539.187333
-0.157375,0.01875,0.38425,-0.00331125,-0.00019825,-0.001236,1738726539.204871
-0.2695,0.04675,0.495,-0.0042725,0.011245751,-0.0012817499,1738726539.216631
-0.304875,0.089125,0.5,-0.0048065,0.028244,-0.002365,1738726539.231141
-0.316875,0.127625,0.474125,-0.00065625,0.081375,-0.01722725,1738726539.245666
-0.271,0.068375,0.186375,0.00688175,0.105682254,-0.02958675,1738726539.260032
-0.203625,-0.03525,-0.00775,0.02200325,0.123138495,-0.040161252,1738726539.275337
-0.00725,-0.199875,-0.297875,0.02357475,0.115158,-0.03059375,1738726539.2893429
0.07325,-0.1795,-0.371625,0.01599125,0.07785025,0.003769,1738726539.3052359
0.152875,-0.016375,-0.418625,0.010589501,0.0550995,0.013153,1738726539.318279
0.156875,0.026,-0.4135,-0.0065307496,0.0072175004,0.00399775,1738726539.3357482
0.108125,-0.033625,-0.28975,-0.0157165,-0.0172425,-0.0038605002,1738726539.347501
0.06225,-0.06675,-0.187875,-0.02200325,-0.037963748,-0.0056,1738726539.36303
0.013,-0.062375,-0.07,-0.024292,-0.062851004,0.007187,1738726539.376925
-0.06425,0.019625,0.147375,-0.0216675,-0.0647735,0.013503999,1738726539.3914409
-0.091625,0.0625,0.2075,-0.014297499,-0.053604,0.014938249,1738726539.40591
-0.1165,0.105625,0.2945,-0.010147001,-0.046203498,0.010559,1738726539.420457
-0.109,0.094375,0.31975,-0.000229,-0.0248565,-0.0015105,1738726539.435356
-0.063,0.03875,0.27025,0.00396725,-0.012085,-0.00646975,1738726539.449524
-0.034,-0.0025,0.208625,0.0070952503,0.0037079998,-0.010559,1738726539.466099
0.007875,-0.05875,0.107,0.0073242504,0.0039215,-0.0076295,1738726539.4785159
0.015125,-0.0535,0.0935,0.00672925,0.00045775,-0.00239575,1738726539.4948962
0.01375,-0.03475,0.100125,0.0041504996,-0.0077972496,0.0060272496,1738726539.507443
-0.001875,-0.003,0.123875,0.00328075,-0.009811499,0.0072785,1738726539.5245419
-0.0105,0.002875,0.118625,0.0026092501,-0.0104674995,0.0068207504,1738726539.536427
-0.022625,0.009,0.108625,0.0030365,-0.0112,0.006607,1738726539.550805
-0.024375,0.012375,0.106125,0.004593,-0.012146,0.0056915004,1738726539.5664
-0.01775,0.012375,0.096625,0.0048217503,-0.0127105,0.0045012496,1738726539.5797708
-0.012125,0.004125,0.090375,0.004837,-0.013641249,0.0029145,1738726539.594961
-0.008125,-0.00925,0.09,0.0040435,-0.017105,0.0008545,1738726539.609039
-0.01125,-0.029,0.106,0.0036010002,-0.018615749,0.00148,1738726539.625129
-0.01825,-0.028875,0.1145,0.0034942501,-0.019927999,0.0051574996,1738726539.638119
-0.032125,-0.009875,0.139625,0.0042267498,-0.0198365,0.0068665,1738726539.6550012
-0.0355,-0.00075,0.14525,0.0054015,-0.01719675,0.0074920002,1738726539.6671329
-0.035625,0.002375,0.14175,0.0049742498,-0.015533499,0.00672925,1738726539.6815228
-0.032875,0.001375,0.132625,0.0044250004,-0.01324475,0.005249,1738726539.696068
-0.026875,-0.003375,0.119375,0.0041810004,-0.013503999,0.004547,1738726539.7105331
-0.02575,-0.00825,0.12275,0.0038605002,-0.01440425,0.00402825,1738726539.725173
-0.026,-0.01125,0.130875,0.0031127501,-0.01548775,0.004547,1738726539.7396202
-0.02775,-0.003875,0.14475,0.00270075,-0.0148925,0.0053252503,1738726539.7550762
-0.02925,0.003875,0.144875,0.000473,-0.013733,0.0053252503,1738726539.768523
-0.029625,0.01425,0.171875,-0.000534,-0.014419501,0.004547,1738726539.785169
-0.03325,0.0185,0.196625,-0.00108325,-0.015167249,0.00245675,1738726539.797605
-0.068625,0.018125,0.277375,-0.0012817499,-0.0149995005,0.00112925,1738726539.815828
-0.107375,0.013375,0.339,-0.0016632499,-0.0134735005,-0.0001525,1738726539.826685
-0.22625,0.0135,0.455125,-0.00254825,9.15e-05,-0.00225825,1738726539.841225
-0.29,0.033875,0.496,-0.004013,0.011795,-0.0033722501,1738726539.8557382
-0.33775,0.072125,0.5,-0.00590525,0.054809503,-0.01115425,1738726539.870191
-0.370875,0.125875,0.44975,-0.0040587503,0.09117125,-0.02127075,1738726539.884908
-0.369,0.100125,0.333875,0.003952,0.15142825,-0.04806525,1738726539.899254
-0.31425,-0.101375,0.00025,0.0125885,0.16696174,-0.05552675,1738726539.915953
-0.24025,-0.197875,-0.16325,0.032669,0.16714475,-0.0324555,1738726539.928328
-0.04125,-0.19225,-0.441,0.038055502,0.15440375,-0.0066985004,1738726539.9449558
0.042875,-0.076125,-0.5,0.0384675,0.13172925,0.017807,1738726539.957349
0.100375,0.05225,-0.5,0.018020751,0.04982,0.02462775,1738726539.9717069
0.135625,0.057625,-0.429875,0.00024425,0.007599,0.0073242504,1738726539.986038
0.1215,-0.025625,-0.3525,-0.02360525,-0.04158025,-0.0123595,1738726540.000829
0.05925,-0.095625,-0.172,-0.02636725,-0.056198,-0.007187,1738726540.015871
0.024875,-0.060125,-0.077875,-0.0237885,-0.0729675,0.01156625,1738726540.03014
-0.040875,0.0405,0.065,-0.02182,-0.075805746,0.015625,1738726540.04487
-0.07225,0.0655,0.129125,-0.02101125,-0.077880755,0.0114744995,1738726540.059131
-0.107875,0.0665,0.286375,-0.019744748,-0.076294,0.00811775,1738726540.075287
-0.102,0.0595,0.3595,-0.015304499,-0.06918325,0.006256,1738726540.088126
-0.083375,0.059,0.382375,0.0013427499,-0.0329285,0.0049742498,1738726540.104898
-0.034625,0.053375,0.2415,0.008727999,-0.0143737495,0.0023345,1738726540.117059
-0.010875,0.02275,0.154,0.010513251,-0.0029449998,-0.0059510004,1738726540.134689
0.019875,-0.05175,0.071625,0.008270251,-0.0070495,-0.005783,1738726540.145988
0.0225,-0.055875,0.081,0.00302125,-0.018585252,0.002365,1738726540.160521
0.010125,-0.02975,0.111,0.0009155,-0.0214385,0.00564575,1738726540.175178
0.0005,-0.015125,0.11925,-0.00112925,-0.0227355,0.0074004997,1738726540.189434
-0.00775,-0.003625,0.12625,-0.00251775,-0.02330025,0.00788875,1738726540.2048142
-0.01625,0.007,0.130375,-0.0013885,-0.022873,0.00715625,1738726540.218413
-0.01575,0.005625,0.13225,0.0021515,-0.021560749,0.00491325,1738726540.23554
-0.01075,-0.00575,0.130875,0.00393675,-0.02067575,0.00390625,1738726540.247436
-0.00775,-0.0185,0.129375,0.00546275,-0.019592252,0.00302125,1738726540.26189
-0.00575,-0.031375,0.12575,0.0047150003,-0.0194245,0.0042572496,1738726540.2763991
-0.007875,-0.023125,0.127125,0.00302125,-0.01985175,0.00764475,1738726540.290912
-0.014875,-0.006375,0.13325,0.0029145,-0.02000425,0.00830075,1738726540.30543
-0.01625,-0.003375,0.139375,0.00289925,-0.019989,0.008346501,1738726540.319893
-0.01675,-0.0005,0.14325,0.0038605002,-0.01841725,0.0078125,1738726540.334901
-0.019,0.002375,0.138125,0.0040435,-0.01782225,0.0068055,1738726540.348876
-0.02225,-0.000375,0.14675,0.00231925,-0.0193635,0.0044250004,1738726540.365637
-0.03125,-0.00575,0.187625,0.001175,-0.020202748,0.0043335,1738726540.377865
-0.035125,0.00225,0.220125,0.000763,-0.01841725,0.006256,1738726540.394633
-0.054125,0.02475,0.27375,0.0005035,-0.01504525,0.0057677496,1738726540.406811
-0.078125,0.030625,0.309125,-0.00045775,-0.011260999,0.00390625,1738726540.4214962
-0.157375,0.04225,0.40575,-0.00378425,-0.000473,-0.0012970001,1738726540.435966
-0.2055,0.045125,0.45375,-0.0044555003,0.00830075,-0.00411975,1738726540.4506922
-0.245375,0.05625,0.4915,-0.000122000005,0.035797,-0.00830075,1738726540.465141
-0.2765,0.0925,0.4585,0.0050355,0.059951752,-0.0122985,1738726540.4796128
-0.269125,0.07475,0.33475,0.02053825,0.1081085,-0.026519751,1738726540.494786
-0.19775,-0.063875,0.02075,0.027160749,0.11782825,-0.03044125,1738726540.508498
-0.12675,-0.142875,-0.117625,0.03182975,0.11413575,-0.015518251,1738726540.524909
0.042875,-0.14725,-0.31225,0.0318755,0.101806745,0.002472,1738726540.537499
0.107875,-0.069125,-0.35275,0.02981575,0.0835725,0.018463248,1738726540.554902
0.15075,-0.00625,-0.38175,0.01248175,0.044433497,0.018875,1738726540.566299
0.168875,-0.007375,-0.426125,0.00143425,0.02342225,0.009613,1738726540.580807
0.143,-0.041625,-0.387375,-0.01197825,-0.02572625,0.00154125,1738726540.5953732
0.039125,-0.040375,-0.196125,-0.015213001,-0.0468445,0.0044555003,1738726540.6099908
-0.020125,-0.008625,-0.066375,-0.020049999,-0.07238775,0.009719751,1738726540.624917
-0.110125,0.052625,0.177625,-0.0205535,-0.07460025,0.00918575,1738726540.639267
-0.132375,0.074,0.273875,-0.014297499,-0.06115725,0.0044707498,1738726540.655103
-0.125,0.094875,0.371625,-0.008316,-0.04679875,0.000473,1738726540.668405
-0.1015,0.08525,0.353625,-0.0017395001,-0.0296325,-0.00463875,1738726540.685259
-0.07125,0.052,0.29625,0.009094249,-0.001007,-0.0153655,1738726540.697537
-0.006875,-0.064,0.15525,0.010009751,0.0051269997,-0.017273001,1738726540.7119942
0.017125,-0.098375,0.104125,0.0049285004,0.00242625,-0.0076142503,1738726540.726496
0.0365,-0.068875,0.089125,0.0016785001,-0.002655,-0.00059500005,1738726540.740978
0.03325,-0.039625,0.096,-0.002121,-0.009887749,0.0043944996,1738726540.7555048
0.017125,-0.026625,0.108875,-0.0026245,-0.01222225,0.0033264998,1738726540.770112
0.00775,-0.0325,0.108375,-0.00213625,-0.01496875,0.0034942501,1738726540.785276
-0.00825,-0.0195,0.1145,-0.00157175,-0.01620475,0.00531,1738726540.799318
-0.01325,-0.005,0.11875,-0.0009155,-0.016998248,0.0067445002,1738726540.815945
-0.015375,0.005375,0.122125,0.000824,-0.01725775,0.0062407497,1738726540.828299
-0.012375,0.006625,0.118375,0.001709,-0.016861,0.0047912505,1738726540.844712
-0.0085,0.00025,0.111625,0.00384525,-0.0162505,0.0025025,1738726540.8572721
-0.003625,-0.003125,0.09325,0.0047302498,-0.01652525,0.001953,1738726540.872285
-0.00375,-0.004,0.088125,0.0047607496,-0.0194245,0.00062550005,1738726540.886286
-0.0055,-0.011,0.095375,0.004837,-0.02124025,0.000122000005,1738726540.900935
-0.0045,-0.01625,0.1005,0.0052337497,-0.022521999,-4.575e-05,1738726540.915982
0.0005,-0.0265,0.103,0.00535575,-0.02345275,-7.625e-05,1738726540.929949
0.002,-0.034625,0.104,0.0041504996,-0.024108998,-0.00045775,1738726540.9449139
0.002125,-0.04125,0.109125,-0.0003205,-0.02705375,-0.00019825,1738726540.959209
-0.00525,-0.047,0.134,-0.0024414998,-0.028747499,0.000946,1738726540.974723
-0.016,-0.04325,0.151375,-0.00411975,-0.03173825,0.00466925,1738726540.9884858
-0.051625,-0.030375,0.226375,-0.0043639997,-0.03262325,0.006607,1738726541.004627
-0.08375,-0.021625,0.267875,-0.0065307496,-0.028534,0.00889575,1738726541.0176792
-0.18425,-0.01875,0.367375,-0.0091705,-0.02471925,0.008788999,1738726541.0325189
-0.243125,-0.01575,0.437375,-0.014099,-0.01239025,0.010086001,1738726541.0469692
-0.321125,0.03725,0.5,-0.0128632495,0.00036625,0.012115501,1738726541.061512
-0.331,0.089625,0.5,-0.009491,0.0247955,0.012267999,1738726541.0759602
-0.32625,0.1295,0.467,-0.0040587503,0.092926,-0.0058287503,1738726541.090611
-0.303625,0.097,0.267375,-0.000122000005,0.117401004,-0.02130125,1738726541.1051
-0.286375,0.022625,0.130125,0.024108998,0.14703375,-0.040451,1738726541.119487
-0.16675,-0.166875,-0.21225,0.03645325,0.15464775,-0.0361175,1738726541.1351948
-0.0545,-0.2135,-0.3995,0.0366515,0.1378175,0.00242625,1738726541.148569
0.142125,-0.04875,-0.5,0.03034975,0.10186775,0.02389525,1738726541.165326
0.18425,0.0555,-0.470375,0.010879501,0.02153025,0.020584,1738726541.177381
0.17475,0.02325,-0.378875,-0.00276175,-1.5250001e-05,0.0041044997,1738726541.194664
0.14275,-0.043875,-0.3545,-0.0123595,-0.0166015,-0.00691225,1738726541.206541
0.097625,-0.0785,-0.290125,-0.017883249,-0.056686502,-0.003296,1738726541.221267
-0.0105,-0.053125,-0.0595,-0.02064525,-0.0725555,0.0034637498,1738726541.2359638
-0.061625,-0.014375,0.042625,-0.02575675,-0.0823365,0.0124665005,1738726541.250678
-0.12775,0.058,0.21175,-0.0240325,-0.08058175,0.012771499,1738726541.265686
-0.139,0.07225,0.274375,-0.013198749,-0.064926244,0.0071105,1738726541.279785
-0.126125,0.083,0.328875,-0.006302,-0.051864497,0.0035095,1738726541.294917
-0.108125,0.081125,0.315125,0.00535575,-0.0229645,-0.00637825,1738726541.308871
-0.0605,0.026,0.219375,0.00794975,-0.011764499,-0.012267999,1738726541.325011
-0.035,-0.016875,0.169125,0.0084379995,-0.005249,-0.01640325,1738726541.3379872
-0.01225,-0.057,0.12375,0.006546,-0.003952,-0.0148925,1738726541.3549628
0.011,-0.098125,0.0765,0.0046539996,-0.008270251,-0.009384249,1738726541.367092
0.0085,-0.083375,0.0915,0.0018005001,-0.019638,0.0037995,1738726541.384434
-0.0075,-0.036125,0.138375,0.00074775,-0.02197275,0.006668,1738726541.396092
-0.015,-0.02325,0.144375,-0.00160225,-0.020584,0.00531,1738726541.4106839
-0.024375,-0.022625,0.144375,-0.00190725,-0.01950075,0.0037537501,1738726541.425329
-0.02625,-0.024125,0.14025,0.000473,-0.01678475,0.0031585,1738726541.440029
-0.024625,-0.01875,0.13425,0.0019685,-0.01596075,0.0035704998,1738726541.4552581
-0.021125,-0.01675,0.133375,0.00331125,-0.01531975,0.003952,1738726541.4690702
-0.01675,-0.01475,0.12825,0.00564575,-0.0139770005,0.0045012496,1738726541.48517
-0.01325,-0.00925,0.112875,0.00517275,-0.01396175,0.00419625,1738726541.498174
-0.015375,-0.00975,0.1135,0.00096125,-0.0168,0.001831,1738726541.5157802
-0.020625,-0.022625,0.141875,-0.0005645,-0.01805125,0.000946,1738726541.527423
-0.020125,-0.027,0.154875,0.00033575002,-0.01763925,0.00190725,1738726541.5446138
-0.010875,-0.026,0.186,0.001709,-0.0166015,0.0034637498,1738726541.556422
-0.00775,-0.0135,0.19675,0.00340275,-0.01326,0.0070037497,1738726541.571
-0.026125,0.02,0.21475,0.0024414998,-0.012191749,0.0065612504,1738726541.5853922
-0.048375,0.023,0.243125,0.0001525,-0.012115501,0.00369275,1738726541.59987
-0.078375,0.009125,0.286625,-0.0048979996,-0.009613,-0.00453175,1738726541.615836
-0.165625,-0.034625,0.393,-0.0052642496,-0.00440975,-0.00561525,1738726541.629185
-0.216125,-0.0335,0.43975,-0.00292975,0.017395,-6.1000002e-05,1738726541.64492
-0.282,0.018375,0.490875,-0.0012665,0.033996496,0.00263975,1738726541.658418
-0.286625,0.06225,0.480125,0.0047607496,0.07978825,-0.0025787498,1738726541.674214
-0.262125,0.07175,0.255125,0.01121525,0.10537725,-0.012130749,1738726541.687317
-0.231375,0.0105,0.0885,0.027160749,0.1300355,-0.02690125,1738726541.702056
-0.108125,-0.143375,-0.1955,0.02955625,0.12843324,-0.0235595,1738726541.716397
-0.0275,-0.161125,-0.30625,0.02749625,0.1201935,-0.0110932505,1738726541.7310379
0.044625,-0.10425,-0.3685,0.02183525,0.07890325,0.021469,1738726541.745492
0.130625,0.0745,-0.3325,0.01596075,0.05302425,0.023101749,1738726541.7598798
0.148,0.061625,-0.31625,-0.00289925,0.015289251,-0.00276175,1738726541.775176
0.13825,-0.069625,-0.28275,-0.0075835,-0.00131225,-0.0088805,1738726541.78912
0.11125,-0.08325,-0.225625,-0.00579825,-0.0330505,0.0012665,1738726541.805044
0.041125,-0.03325,-0.069625,-0.00520325,-0.04435725,0.0068665,1738726541.818308
0.008875,-0.002125,0.00075,-0.010101249,-0.056045502,0.008026,1738726541.8356988
-0.04575,0.0345,0.120125,-0.013122501,-0.0577545,0.0048674997,1738726541.847302
-0.066875,0.03775,0.17575,-0.01501475,-0.05738825,0.00064075,1738726541.8617852
-0.07925,0.027375,0.234625,-0.012802,-0.049316503,-0.0062712496,1738726541.8764129
-0.072875,0.000125,0.292375,-0.007843,-0.038772497,-0.0065765,1738726541.8910909
-0.057875,-0.005625,0.26025,0.0025634998,-0.0141145,-0.00453175,1738726541.905632
-0.019375,-0.018,0.15625,0.004486,-0.0078125,-0.0043335,1738726541.92018
-0.004125,-0.0275,0.126125,0.002777,-0.0085755,-0.0043944996,1738726541.9352698
0.0105,-0.041875,0.1115,0.00115975,-0.01115425,-0.0036010002,1738726541.949388
0.01175,-0.042,0.112375,-0.001709,-0.01519775,-0.000885,1738726541.965987
0.0085,-0.034,0.114375,-0.00190725,-0.01634225,0.00039675,1738726541.978359
0.004375,-0.029125,0.11,-0.000946,-0.016998248,0.0013427499,1738726541.994865
-0.000375,-0.026625,0.104125,0.0017242499,-0.01855475,0.001831,1738726542.007563
-0.0095,-0.026875,0.102125,0.002243,-0.019897498,0.00187675,1738726542.024935
-0.012625,-0.026875,0.109,0.0044250004,-0.02174375,0.0026092501,1738726542.036556
-0.01425,-0.016625,0.108625,0.005844,-0.02171325,0.00251775,1738726542.051073
-0.012875,-0.015125,0.105875,0.005539,-0.02250675,-0.0004425,1738726542.06606
-0.008,-0.033875,0.10825,0.00505075,-0.02326975,-0.0020599999,1738726542.080298
-0.00725,-0.043125,0.110625,0.0054780003,-0.023819,-0.0025787498,1738726542.094835
-0.010125,-0.048375,0.1095,0.0071409997,-0.0243225,-0.00083925005,1738726542.109462
-0.012125,-0.0475,0.1145,0.0077667497,-0.02507025,0.00051875,1738726542.12448
-0.01275,-0.044,0.123,0.010024999,-0.025940001,0.0032195,1738726542.138567
-0.018875,-0.0215,0.128625,0.009903,-0.025879,0.00334175,1738726542.1547892
-0.0265,-0.01575,0.1365,0.00340275,-0.02919,-0.00125125,1738726542.16766
-0.048875,-0.03725,0.213875,-0.0002595,-0.03129575,-0.0037079998,1738726542.185262
-0.066625,-0.050625,0.259,-0.0021972498,-0.027847249,-0.00402825,1738726542.197081
-0.120375,-0.0695,0.343,-0.00169375,-0.02256775,-0.0028229998,1738726542.211781
-0.156125,-0.078375,0.37875,-0.00245675,-0.00570675,0.00102225,1738726542.226506
-0.23975,-0.078375,0.462875,-0.0028535,0.00494375,0.0042725,1738726542.2411132
-0.272,-0.054625,0.497875,-0.00238025,0.01820375,0.007599,1738726542.25558
-0.2895,-0.018625,0.5,-9.15e-05,0.06393425,0.006607,1738726542.270195
-0.302125,0.028375,0.419625,0.0017395001,0.0953065,0.00059500005,1738726542.2845912
-0.304,0.028375,0.325375,0.0069274995,0.14591976,-0.0139465,1738726542.2990038
-0.303,-0.004875,0.110875,0.010894749,0.162506,-0.01879875,1738726542.315797
-0.286875,-0.035375,0.002875,0.019714251,0.18170175,-0.01826475,1738726542.328175
-0.172,-0.092625,-0.28375,0.0263215,0.1829835,-0.01042175,1738726542.3447402
-0.07225,-0.070875,-0.437,0.0386505,0.1441955,0.01896675,1738726542.357606
0.09125,0.0475,-0.5,0.041564997,0.0991515,0.02769475,1738726542.3724039
0.117,0.077,-0.4265,0.0376435,0.0460205,0.0254365,1738726542.386167
0.118875,0.0845,-0.297625,0.0049285004,-0.01589975,0.0014495,1738726542.400707
0.11325,-0.022125,-0.21475,-0.010314999,-0.019867001,-0.01033025,1738726542.41614
0.10575,-0.074,-0.226375,-0.01425175,-0.0331725,-0.0075072497,1738726542.430175
0.061625,-0.04725,-0.149625,-0.011795,-0.047805753,0.000412,1738726542.444855
0.033,-0.014125,-0.075625,-0.0177155,-0.071792506,0.00434875,1738726542.459531
-0.021375,0.01025,0.056,-0.024078252,-0.07792675,0.00112925,1738726542.474103
-0.043125,0.00925,0.11975,-0.03158575,-0.081985496,-0.0050202496,1738726542.4886432
-0.061125,-0.0175,0.249875,-0.030304002,-0.0789795,-0.0058135,1738726542.505226
-0.05575,-0.02175,0.289375,-0.024765,-0.07061775,-0.00367725,1738726542.518046
-0.029875,0.001375,0.254875,-0.005066,-0.04110725,0.0033570002,1738726542.534931
-0.013125,-0.003125,0.191,0.001648,-0.0276185,0.00331125,1738726542.547115
0.00225,-0.021125,0.13175,0.0021972498,-0.0196075,0.00013725001,1738726542.5616488
0.01625,-0.05075,0.066375,-0.0003205,-0.0227355,0.00019825,1738726542.5761302
0.013625,-0.05775,0.06425,-0.00546275,-0.034606997,0.0036315,1738726542.5907578
-0.0065,-0.0355,0.118375,-0.00708,-0.039276,0.00596625,1738726542.605356
-0.01525,-0.020625,0.144,-0.0090637505,-0.038513247,0.0059205,1738726542.6200151
-0.01725,-0.017,0.156625,-0.00788875,-0.03500375,0.00453175,1738726542.6350038
-0.012625,-0.0195,0.144875,-0.004486,-0.031036502,0.0037079998,1738726542.6492002
-0.00975,-0.00675,0.105625,0.00102225,-0.02622975,0.00267025,1738726542.665896
-0.013625,-0.010375,0.092125,-0.001007,-0.027069,0.000229,1738726542.678369
-0.020125,-0.0295,0.092625,-0.00846875,-0.034317,-0.00440975,1738726542.694644
-0.035125,-0.06325,0.141875,-0.009491,-0.037796002,-0.002777,1738726542.707764
-0.0385,-0.056875,0.181,-0.00355525,-0.03598025,0.0058287503,1738726542.724751
-0.025875,-0.016625,0.200375,0.00187675,-0.0298615,0.00883475,1738726542.736972
-0.012625,-0.00125,0.17325,0.0075225,-0.019333,0.0078125,1738726542.752699
0.0125,-0.0035,0.124375,0.00691225,-0.018859752,0.00511175,1738726542.7660182
0.017375,-0.015875,0.11875,0.0034790002,-0.0241395,0.00070200005,1738726542.780558
-0.005,-0.04325,0.152375,0.00086975005,-0.02775575,-0.00016775,1738726542.795389
-0.034125,-0.054875,0.1985,-0.0017395001,-0.031128,0.0002135,1738726542.81
-0.072125,-0.06375,0.2635,-0.00372325,-0.032226503,0.00520325,1738726542.824966
-0.16125,-0.058625,0.39975,-0.00372325,-0.026947001,0.0090485,1738726542.8391922
-0.211,-0.03025,0.456375,-0.00305175,-0.0020905002,0.01490775,1738726542.854911
-0.286625,0.063125,0.5,-0.002777,0.016739,0.0123442495,1738726542.8682492
-0.29925,0.087,0.5,-0.001953,0.06425475,-0.008224499,1738726542.884964
-0.29375,0.050625,0.396625,-0.0007325,0.09022525,-0.020599252,1738726542.897268
-0.292875,0.020625,0.30625,0.0044555003,0.133545,-0.036316004,1738726542.9116569
-0.291625,-0.040625,0.09275,0.010452249,0.14912425,-0.0391235,1738726542.926173
-0.258375,-0.090625,-0.054375,0.02215575,0.160614,-0.038025003,1738726542.940949
-0.1765,-0.15125,-0.2415,0.048660252,0.16284175,-0.014495751,1738726542.955487
0.044875,-0.17,-0.5,0.046936,0.14123525,0.0086975,1738726542.970186
0.10825,-0.065375,-0.5,0.027954001,0.036422748,0.03993225,1738726542.9852722
0.127625,0.10825,-0.30625,0.01419075,-0.0079955,0.029892,1738726542.998976
0.119625,0.054625,-0.244625,-0.0100555,-0.027587999,-0.00413525,1738726543.016117
0.08175,-0.06475,-0.252625,-0.010147001,-0.03202825,-0.004837,1738726543.028445
0.046875,-0.044375,-0.21125,-0.008346501,-0.060165502,0.00912475,1738726543.0449128
-0.030125,0.03475,-0.03275,-0.014434749,-0.073578,0.010086001,1738726543.057742
-0.06425,0.05275,0.054375,-0.02142325,-0.0818175,0.006363,1738726543.072315
-0.09175,0.05225,0.1345,-0.025360001,-0.085785,-0.00453175,1738726543.086821
-0.11475,0.010125,0.2845,-0.021988,-0.08164975,-0.0081025,1738726543.105061
-0.10875,-0.009875,0.3315,-0.00672925,-0.05641175,-0.0071409997,1738726543.116364
-0.076625,-0.003,0.319875,0.003296,-0.039169252,-0.004776,1738726543.130848
-0.0565,-0.005,0.264375,0.0139770005,-0.011825499,-0.00785825,1738726543.1454568
-0.014375,-0.072375,0.111875,0.0122985,-0.0070495,-0.01048275,1738726543.1601548
-0.003125,-0.10075,0.069875,0.0049590003,-0.017654499,-0.00355525,1738726543.175287
-0.012,-0.069,0.1095,0.00064075,-0.026062,0.0032195,1738726543.1892722
-0.020625,-0.040125,0.159875,-0.0030975002,-0.031479,0.009323,1738726543.205111
-0.022125,-0.0105,0.1875,-0.001236,-0.026122998,0.008590749,1738726543.218456
-0.0165,-0.015375,0.15775,0.0020752498,-0.0194245,0.0065612504,1738726543.235183
-0.009375,-0.029625,0.12175,0.0063325,-0.01402275,0.00334175,1738726543.247481
0.003125,-0.06875,0.062625,0.00396725,-0.015915,0.00334175,1738726543.261995
0.00325,-0.079125,0.0575,-0.0062255003,-0.027587999,0.008484,1738726543.276671
-0.00675,-0.045625,0.115125,-0.0090485,-0.03408825,0.01216125,1738726543.2913668
-0.011375,-0.021375,0.16425,-0.008224499,-0.037475497,0.013412501,1738726543.3059788
-0.009125,-0.003,0.226375,-0.0062255003,-0.032776,0.0110015,1738726543.3204968
-0.00475,-0.009125,0.226125,-0.0012665,-0.02091975,0.00561525,1738726543.335159
-0.019875,-0.026125,0.21,-0.000885,-0.01857,0.00399775,1738726543.349966
-0.044625,-0.038,0.233625,-0.002884,-0.0194245,0.00283825,1738726543.3659651
-0.081875,-0.046125,0.279375,-0.00811775,-0.020202748,0.00352475,1738726543.379238
-0.17975,-0.0335,0.401625,-0.0095672505,-0.015915,0.0047455,1738726543.395125
-0.22275,-0.013125,0.462,-0.013351499,0.009734999,0.0036010002,1738726543.408445
-0.26225,0.04375,0.49175,-0.013931249,0.03318775,-0.000534,1738726543.4249809
-0.25875,0.0625,0.428375,-0.011795,0.08680725,-0.01728825,1738726543.437431
-0.245375,0.045125,0.25325,-0.009369001,0.10673525,-0.027359,1738726543.454725
-0.245125,0.01175,0.1835,0.00137325,0.134613,-0.041748002,1738726543.466441
-0.21425,-0.13775,0.004125,0.0109709995,0.146927,-0.04237375,1738726543.481051
-0.15775,-0.218,-0.13775,0.0226745,0.15679926,-0.0332795,1738726543.495639
-0.0755,-0.24075,-0.307375,0.04464725,0.1477355,0.0168,1738726543.51015
0.081,-0.04225,-0.5,0.049087502,0.11711125,0.042633,1738726543.524995
0.116875,0.10525,-0.5,0.028167749,0.016265752,0.0385895,1738726543.539178
0.11375,0.0925,-0.288625,0.00688175,-0.02326975,0.01098625,1738726543.555018
0.09425,-0.01875,-0.19625,-0.017501751,-0.052826,-0.01661675,1738726543.568445
0.041375,-0.079125,-0.083375,-0.01475525,-0.05833425,-0.0088195,1738726543.5853188
0.0135,-0.03875,-0.03025,-0.00817875,-0.06646725,0.008285499,1738726543.597759
-0.035,0.043875,0.0615,-0.00891125,-0.06823725,0.00975025,1738726543.615991
-0.055375,0.0615,0.1025,-0.0090485,-0.0692445,0.007187,1738726543.626824
-0.0805,0.052,0.2,-0.0051574996,-0.0685425,-0.003296,1738726543.641421
-0.0815,0.033125,0.258,-0.004013,-0.06533825,-0.0084379995,1738726543.656037
-0.074125,0.012875,0.30625,-0.000183,-0.045929,-0.01361075,1738726543.670614
-0.04,-0.02925,0.27975,0.0043182503,-0.029358,-0.013336251,1738726543.685517
-0.01825,-0.04925,0.197125,0.0111085,-0.0052642496,-0.009079001,1738726543.6998122
0.013875,-0.081625,0.033875,0.011383001,-0.0058287503,-0.00570675,1738726543.716197
0.014625,-0.07175,0.014375,0.0062407497,-0.02586375,0.0034790002,1738726543.7287428
-0.011,-0.013125,0.107625,0.00364675,-0.035476748,0.0053405,1738726543.745007
-0.023,-0.00575,0.155875,0.00169375,-0.039367747,0.0035704998,1738726543.757772
-0.0285,-0.016,0.180625,0.0016785001,-0.0333405,-0.0025025,1738726543.775115
-0.02625,-0.057625,0.168,0.00251775,-0.028167749,-0.0035095,1738726543.7870579
-0.022,-0.07375,0.1485,0.0030975002,-0.021789499,0.00054925,1738726543.805076
-0.01675,-0.059875,0.11425,0.0034942501,-0.022094749,0.0043182503,1738726543.816158
-0.017125,-0.040375,0.125125,0.0053709997,-0.028991751,0.007187,1738726543.830548
-0.020875,-0.021125,0.190125,0.0047455,-0.0306855,0.0053252503,1738726543.845141
-0.027875,-0.028125,0.215875,-0.001236,-0.0256195,-0.00090025004,1738726543.859801
-0.055375,-0.04425,0.264125,-0.0036010002,-0.02186575,-0.00245675,1738726543.875236
-0.08125,-0.046,0.289375,-0.0052337497,-0.017608749,-0.0028074998,1738726543.8891468
-0.153625,-0.045,0.357625,-0.0062712496,-0.00668325,-0.00270075,1738726543.9049459
-0.190625,-0.0385,0.408625,-0.0066374997,0.000763,-0.0027160002,1738726543.918418
-0.223,-0.022375,0.467375,-0.0062865,0.0262145,-0.0050355,1738726543.93521
-0.262875,0.01925,0.5,-0.0054475004,0.053131,-0.010086001,1738726543.947627
-0.273875,0.028625,0.438125,-0.0016785001,0.12564075,-0.025848499,1738726543.962026
-0.275,-0.02925,0.17575,0.00372325,0.15110776,-0.0330505,1738726543.976544
-0.246,-0.104625,0.0365,0.022643998,0.1748505,-0.031433,1738726543.9910789
-0.063,-0.278375,-0.369625,0.036193747,0.17660525,-0.01490775,1738726544.005645
0.048125,-0.256875,-0.5,0.048568748,0.15885925,0.015747,1738726544.020052
0.134375,0.159875,-0.465125,0.055908248,0.04621875,0.0719605,1738726544.0355148
0.12675,0.271375,-0.334625,0.041504003,-0.009445249,0.057785,1738726544.0488052
0.1115,0.19375,-0.234125,-0.013122501,-0.04403675,-0.015090999,1738726544.066127
0.0665,-0.082625,-0.16875,-0.025695749,-0.047699,-0.02671825,1738726544.078124
0.03225,-0.099875,-0.10975,-0.01763925,-0.067871004,-0.0034484998,1738726544.0953019
-0.0385,0.00025,0.05675,-0.01446525,-0.07510375,0.0062255003,1738726544.107334
-0.0625,0.03875,0.12825,-0.0172425,-0.0760955,0.0040435,1738726544.1226711
-0.081625,0.041375,0.2545,-0.01728825,-0.071701,-0.001831,1738726544.1364238
-0.079,0.012625,0.298375,-0.015090999,-0.0631715,-0.0072480002,1738726544.1510222
-0.071,-0.013,0.323375,-0.003128,-0.03627025,-0.00798025,1738726544.1664681
-0.048625,0.006875,0.32,0.0037385002,-0.020462,-0.00546275,1738726544.180249
-0.03375,0.009,0.267875,0.0076905,0.009582501,-0.010147001,1738726544.1957078
-0.000375,-0.04025,0.119,0.0061035,0.015594499,-0.013702501,1738726544.209258
0.014125,-0.06875,0.084,-0.00035100002,0.0076142503,-0.013702501,1738726544.225834
0.03075,-0.097875,0.0875,-0.0020905002,0.0013580001,-0.009811499,1738726544.238264
0.032625,-0.096375,0.098375,-0.0011445,-0.005844,0.0015105,1738726544.255477
0.0285,-0.05775,0.1105,7.625e-05,-0.007019,0.0061645,1738726544.2676082
0.026375,-0.0375,0.10575,0.00068675,-0.0073395,0.008270251,1738726544.282655
0.02475,-0.027625,0.103375,-0.000946,-0.008941749,0.006012,1738726544.2964249
0.020625,-0.028875,0.100375,-0.00099175,-0.009811499,0.0043335,1738726544.310945
0.01775,-0.032,0.101875,0.00169375,-0.01197825,0.00328075,1738726544.325789
0.010125,-0.025375,0.11325,0.00267025,-0.013183501,0.0034484998,1738726544.339735
0.0075,-0.021625,0.123625,0.00201425,-0.0141755,0.00231925,1738726544.3552482
0.00375,-0.025125,0.13925,0.000824,-0.0136565,0.0014495,1738726544.368629
0.003375,-0.02475,0.144875,0.0010375,-0.011260999,0.000412,1738726544.38533
0.003875,-0.025375,0.14425,0.0013427499,-0.00968925,-0.00024425,1738726544.397665
0.00325,-0.027,0.143125,0.0017395001,-0.008316,-0.00086975005,1738726544.415953
0.00275,-0.028125,0.14075,0.0042725,-0.0060425,-0.0015565,1738726544.426816
0.001375,-0.0345,0.136625,0.0046845004,-0.0054015,-0.0017242499,1738726544.444837
-0.000375,-0.03575,0.14,0.003952,-0.0044250004,-0.001526,1738726544.455946
-0.002,-0.033,0.140375,0.0040587503,-0.00340275,-0.0017242499,1738726544.472847
-0.0015,-0.037,0.13675,0.0026245,-0.001648,-0.00279225,1738726544.485342
-0.000625,-0.042375,0.134375,0.00190725,-0.00102225,-0.0025787498,1738726544.4997308
-0.0,-0.042,0.131,0.0020295,0.00057975,-0.00181575,1738726544.5160582
0.001375,-0.044375,0.1235,0.001587,0.00093075,-0.00154125,1738726544.5286121
0.00125,-0.045125,0.123,0.0007325,0.0009765,-0.001175,1738726544.54478
